key_resp_5.keys,key_resp_5.corr,key_resp_5.rt,trials.thisRepN,trials.thisTrialN,trials.thisN,trials.thisIndex,trials.ran,id*,Płeć*,Wiek*,date,expName,psychopyVersion,OS,frameRate,id,STUDY_ID,SESSION_ID,key_resp_7.keys,key_resp_7.rt,trials_2.thisRepN,trials_2.thisTrialN,trials_2.thisN,trials_2.thisIndex,trials_2.ran,series_0,series_1,acss_0,acss_1,comparison
"[""period""]",0,[0.9844000000059623],0,0,0,0,1,5f1b26dbd5dc042c9aedb7a4,Mężczyzna,19,2021-07-13_22h02.14.200,rantool2,2021.1.4,Win32,60.62810719,5f1b26dbd5dc042c9aedb7a4,60d9d14f4a8a35a482e0d9bf,60edf0d45c28a315ad8056c2,,,,,,,,,,,,
"[""comma""]",0,[0.26709999999403067],1,0,1,0,1,5f1b26dbd5dc042c9aedb7a4,Mężczyzna,19,2021-07-13_22h02.14.200,rantool2,2021.1.4,Win32,60.62810719,5f1b26dbd5dc042c9aedb7a4,60d9d14f4a8a35a482e0d9bf,60edf0d45c28a315ad8056c2,,,,,,,,,,,,
"[""comma""]",0,[0.34300000000001774],2,0,2,0,1,5f1b26dbd5dc042c9aedb7a4,Mężczyzna,19,2021-07-13_22h02.14.200,rantool2,2021.1.4,Win32,60.62810719,5f1b26dbd5dc042c9aedb7a4,60d9d14f4a8a35a482e0d9bf,60edf0d45c28a315ad8056c2,,,,,,,,,,,,
"[""comma""]",0,[0.32200000000000273],3,0,3,0,1,5f1b26dbd5dc042c9aedb7a4,Mężczyzna,19,2021-07-13_22h02.14.200,rantool2,2021.1.4,Win32,60.62810719,5f1b26dbd5dc042c9aedb7a4,60d9d14f4a8a35a482e0d9bf,60edf0d45c28a315ad8056c2,,,,,,,,,,,,
"[""period""]",0,[0.1739000000059434],4,0,4,0,1,5f1b26dbd5dc042c9aedb7a4,Mężczyzna,19,2021-07-13_22h02.14.200,rantool2,2021.1.4,Win32,60.62810719,5f1b26dbd5dc042c9aedb7a4,60d9d14f4a8a35a482e0d9bf,60edf0d45c28a315ad8056c2,,,,,,,,,,,,
"[""period""]",0,[0.2252999999820986],5,0,5,0,1,5f1b26dbd5dc042c9aedb7a4,Mężczyzna,19,2021-07-13_22h02.14.200,rantool2,2021.1.4,Win32,60.62810719,5f1b26dbd5dc042c9aedb7a4,60d9d14f4a8a35a482e0d9bf,60edf0d45c28a315ad8056c2,,,,,,,,,,,,
"[""comma""]",0,[0.2915000000000134],6,0,6,0,1,5f1b26dbd5dc042c9aedb7a4,Mężczyzna,19,2021-07-13_22h02.14.200,rantool2,2021.1.4,Win32,60.62810719,5f1b26dbd5dc042c9aedb7a4,60d9d14f4a8a35a482e0d9bf,60edf0d45c28a315ad8056c2,,,,,,,,,,,,
"[""comma""]",0,[0.3518000000119059],7,0,7,0,1,5f1b26dbd5dc042c9aedb7a4,Mężczyzna,19,2021-07-13_22h02.14.200,rantool2,2021.1.4,Win32,60.62810719,5f1b26dbd5dc042c9aedb7a4,60d9d14f4a8a35a482e0d9bf,60edf0d45c28a315ad8056c2,,,,,,,,,,,,
"[""comma""]",0,[0.35480000001192025],8,0,8,0,1,5f1b26dbd5dc042c9aedb7a4,Mężczyzna,19,2021-07-13_22h02.14.200,rantool2,2021.1.4,Win32,60.62810719,5f1b26dbd5dc042c9aedb7a4,60d9d14f4a8a35a482e0d9bf,60edf0d45c28a315ad8056c2,,,,,,,,,,,,
"[""period""]",0,[0.2929000000059716],9,0,9,0,1,5f1b26dbd5dc042c9aedb7a4,Mężczyzna,19,2021-07-13_22h02.14.200,rantool2,2021.1.4,Win32,60.62810719,5f1b26dbd5dc042c9aedb7a4,60d9d14f4a8a35a482e0d9bf,60edf0d45c28a315ad8056c2,,,,,,,,,,,,
"[""period""]",0,[0.28819999998808044],10,0,10,0,1,5f1b26dbd5dc042c9aedb7a4,Mężczyzna,19,2021-07-13_22h02.14.200,rantool2,2021.1.4,Win32,60.62810719,5f1b26dbd5dc042c9aedb7a4,60d9d14f4a8a35a482e0d9bf,60edf0d45c28a315ad8056c2,,,,,,,,,,,,
"[""comma""]",0,[0.24450000000001637],11,0,11,0,1,5f1b26dbd5dc042c9aedb7a4,Mężczyzna,19,2021-07-13_22h02.14.200,rantool2,2021.1.4,Win32,60.62810719,5f1b26dbd5dc042c9aedb7a4,60d9d14f4a8a35a482e0d9bf,60edf0d45c28a315ad8056c2,,,,,,,,,,,,
"[""period""]",0,[0.29390000000594796],12,0,12,0,1,5f1b26dbd5dc042c9aedb7a4,Mężczyzna,19,2021-07-13_22h02.14.200,rantool2,2021.1.4,Win32,60.62810719,5f1b26dbd5dc042c9aedb7a4,60d9d14f4a8a35a482e0d9bf,60edf0d45c28a315ad8056c2,,,,,,,,,,,,
"[""period""]",0,[0.23449999999999704],13,0,13,0,1,5f1b26dbd5dc042c9aedb7a4,Mężczyzna,19,2021-07-13_22h02.14.200,rantool2,2021.1.4,Win32,60.62810719,5f1b26dbd5dc042c9aedb7a4,60d9d14f4a8a35a482e0d9bf,60edf0d45c28a315ad8056c2,,,,,,,,,,,,
"[""period"",""comma""]",0,"[0.2833000000119341,0.5321999999880802]",14,0,14,0,1,5f1b26dbd5dc042c9aedb7a4,Mężczyzna,19,2021-07-13_22h02.14.200,rantool2,2021.1.4,Win32,60.62810719,5f1b26dbd5dc042c9aedb7a4,60d9d14f4a8a35a482e0d9bf,60edf0d45c28a315ad8056c2,,,,,,,,,,,,
"[""comma""]",0,[0.22469999998807566],15,0,15,0,1,5f1b26dbd5dc042c9aedb7a4,Mężczyzna,19,2021-07-13_22h02.14.200,rantool2,2021.1.4,Win32,60.62810719,5f1b26dbd5dc042c9aedb7a4,60d9d14f4a8a35a482e0d9bf,60edf0d45c28a315ad8056c2,,,,,,,,,,,,
"[""period""]",0,[0.2507000000179005],16,0,16,0,1,5f1b26dbd5dc042c9aedb7a4,Mężczyzna,19,2021-07-13_22h02.14.200,rantool2,2021.1.4,Win32,60.62810719,5f1b26dbd5dc042c9aedb7a4,60d9d14f4a8a35a482e0d9bf,60edf0d45c28a315ad8056c2,,,,,,,,,,,,
"[""period"",""comma""]",0,"[0.18299999999999272,1.96669999998808]",17,0,17,0,1,5f1b26dbd5dc042c9aedb7a4,Mężczyzna,19,2021-07-13_22h02.14.200,rantool2,2021.1.4,Win32,60.62810719,5f1b26dbd5dc042c9aedb7a4,60d9d14f4a8a35a482e0d9bf,60edf0d45c28a315ad8056c2,,,,,,,,,,,,
0,0,,18,0,18,0,1,5f1b26dbd5dc042c9aedb7a4,Mężczyzna,19,2021-07-13_22h02.14.200,rantool2,2021.1.4,Win32,60.62810719,5f1b26dbd5dc042c9aedb7a4,60d9d14f4a8a35a482e0d9bf,60edf0d45c28a315ad8056c2,,,,,,,,,,,,
"[""comma""]",0,[0.23870000001790004],19,0,19,0,1,5f1b26dbd5dc042c9aedb7a4,Mężczyzna,19,2021-07-13_22h02.14.200,rantool2,2021.1.4,Win32,60.62810719,5f1b26dbd5dc042c9aedb7a4,60d9d14f4a8a35a482e0d9bf,60edf0d45c28a315ad8056c2,,,,,,,,,,,,
"[""comma""]",0,[0.48389999997618816],20,0,20,0,1,5f1b26dbd5dc042c9aedb7a4,Mężczyzna,19,2021-07-13_22h02.14.200,rantool2,2021.1.4,Win32,60.62810719,5f1b26dbd5dc042c9aedb7a4,60d9d14f4a8a35a482e0d9bf,60edf0d45c28a315ad8056c2,,,,,,,,,,,,
"[""period""]",0,[0.5083000000119569],21,0,21,0,1,5f1b26dbd5dc042c9aedb7a4,Mężczyzna,19,2021-07-13_22h02.14.200,rantool2,2021.1.4,Win32,60.62810719,5f1b26dbd5dc042c9aedb7a4,60d9d14f4a8a35a482e0d9bf,60edf0d45c28a315ad8056c2,,,,,,,,,,,,
"[""period""]",0,[0.44019999998806725],22,0,22,0,1,5f1b26dbd5dc042c9aedb7a4,Mężczyzna,19,2021-07-13_22h02.14.200,rantool2,2021.1.4,Win32,60.62810719,5f1b26dbd5dc042c9aedb7a4,60d9d14f4a8a35a482e0d9bf,60edf0d45c28a315ad8056c2,,,,,,,,,,,,
"[""period""]",0,[0.3575999999940791],23,0,23,0,1,5f1b26dbd5dc042c9aedb7a4,Mężczyzna,19,2021-07-13_22h02.14.200,rantool2,2021.1.4,Win32,60.62810719,5f1b26dbd5dc042c9aedb7a4,60d9d14f4a8a35a482e0d9bf,60edf0d45c28a315ad8056c2,,,,,,,,,,,,
"[""comma""]",0,[0.4984999999999786],24,0,24,0,1,5f1b26dbd5dc042c9aedb7a4,Mężczyzna,19,2021-07-13_22h02.14.200,rantool2,2021.1.4,Win32,60.62810719,5f1b26dbd5dc042c9aedb7a4,60d9d14f4a8a35a482e0d9bf,60edf0d45c28a315ad8056c2,,,,,,,,,,,,
"[""period"",""comma""]",0,"[0.4782000000178641,0.5004999999999882]",25,0,25,0,1,5f1b26dbd5dc042c9aedb7a4,Mężczyzna,19,2021-07-13_22h02.14.200,rantool2,2021.1.4,Win32,60.62810719,5f1b26dbd5dc042c9aedb7a4,60d9d14f4a8a35a482e0d9bf,60edf0d45c28a315ad8056c2,,,,,,,,,,,,
"[""comma""]",0,[0.4705999999940218],26,0,26,0,1,5f1b26dbd5dc042c9aedb7a4,Mężczyzna,19,2021-07-13_22h02.14.200,rantool2,2021.1.4,Win32,60.62810719,5f1b26dbd5dc042c9aedb7a4,60d9d14f4a8a35a482e0d9bf,60edf0d45c28a315ad8056c2,,,,,,,,,,,,
"[""comma""]",0,[0.44959999999406364],27,0,27,0,1,5f1b26dbd5dc042c9aedb7a4,Mężczyzna,19,2021-07-13_22h02.14.200,rantool2,2021.1.4,Win32,60.62810719,5f1b26dbd5dc042c9aedb7a4,60d9d14f4a8a35a482e0d9bf,60edf0d45c28a315ad8056c2,,,,,,,,,,,,
"[""period""]",0,[0.4064000000059309],28,0,28,0,1,5f1b26dbd5dc042c9aedb7a4,Mężczyzna,19,2021-07-13_22h02.14.200,rantool2,2021.1.4,Win32,60.62810719,5f1b26dbd5dc042c9aedb7a4,60d9d14f4a8a35a482e0d9bf,60edf0d45c28a315ad8056c2,,,,,,,,,,,,
"[""period""]",0,[0.1882000000179005],29,0,29,0,1,5f1b26dbd5dc042c9aedb7a4,Mężczyzna,19,2021-07-13_22h02.14.200,rantool2,2021.1.4,Win32,60.62810719,5f1b26dbd5dc042c9aedb7a4,60d9d14f4a8a35a482e0d9bf,60edf0d45c28a315ad8056c2,,,,,,,,,,,,
"[""period""]",0,[0.010200000017903221],30,0,30,0,1,5f1b26dbd5dc042c9aedb7a4,Mężczyzna,19,2021-07-13_22h02.14.200,rantool2,2021.1.4,Win32,60.62810719,5f1b26dbd5dc042c9aedb7a4,60d9d14f4a8a35a482e0d9bf,60edf0d45c28a315ad8056c2,,,,,,,,,,,,
"[""period""]",0,[0.23399999999998045],31,0,31,0,1,5f1b26dbd5dc042c9aedb7a4,Mężczyzna,19,2021-07-13_22h02.14.200,rantool2,2021.1.4,Win32,60.62810719,5f1b26dbd5dc042c9aedb7a4,60d9d14f4a8a35a482e0d9bf,60edf0d45c28a315ad8056c2,,,,,,,,,,,,
"[""comma""]",0,[0.15090000000594728],32,0,32,0,1,5f1b26dbd5dc042c9aedb7a4,Mężczyzna,19,2021-07-13_22h02.14.200,rantool2,2021.1.4,Win32,60.62810719,5f1b26dbd5dc042c9aedb7a4,60d9d14f4a8a35a482e0d9bf,60edf0d45c28a315ad8056c2,,,,,,,,,,,,
"[""period""]",0,[0.23749999999995453],33,0,33,0,1,5f1b26dbd5dc042c9aedb7a4,Mężczyzna,19,2021-07-13_22h02.14.200,rantool2,2021.1.4,Win32,60.62810719,5f1b26dbd5dc042c9aedb7a4,60d9d14f4a8a35a482e0d9bf,60edf0d45c28a315ad8056c2,,,,,,,,,,,,
"[""period""]",0,[0.2656999999881009],34,0,34,0,1,5f1b26dbd5dc042c9aedb7a4,Mężczyzna,19,2021-07-13_22h02.14.200,rantool2,2021.1.4,Win32,60.62810719,5f1b26dbd5dc042c9aedb7a4,60d9d14f4a8a35a482e0d9bf,60edf0d45c28a315ad8056c2,,,,,,,,,,,,
"[""comma""]",0,[0.21579999998209587],35,0,35,0,1,5f1b26dbd5dc042c9aedb7a4,Mężczyzna,19,2021-07-13_22h02.14.200,rantool2,2021.1.4,Win32,60.62810719,5f1b26dbd5dc042c9aedb7a4,60d9d14f4a8a35a482e0d9bf,60edf0d45c28a315ad8056c2,,,,,,,,,,,,
"[""period""]",0,[0.22100000000000364],36,0,36,0,1,5f1b26dbd5dc042c9aedb7a4,Mężczyzna,19,2021-07-13_22h02.14.200,rantool2,2021.1.4,Win32,60.62810719,5f1b26dbd5dc042c9aedb7a4,60d9d14f4a8a35a482e0d9bf,60edf0d45c28a315ad8056c2,,,,,,,,,,,,
"[""comma""]",0,[0.23340000000598593],37,0,37,0,1,5f1b26dbd5dc042c9aedb7a4,Mężczyzna,19,2021-07-13_22h02.14.200,rantool2,2021.1.4,Win32,60.62810719,5f1b26dbd5dc042c9aedb7a4,60d9d14f4a8a35a482e0d9bf,60edf0d45c28a315ad8056c2,,,,,,,,,,,,
"[""period""]",0,[0.2548999999761463],38,0,38,0,1,5f1b26dbd5dc042c9aedb7a4,Mężczyzna,19,2021-07-13_22h02.14.200,rantool2,2021.1.4,Win32,60.62810719,5f1b26dbd5dc042c9aedb7a4,60d9d14f4a8a35a482e0d9bf,60edf0d45c28a315ad8056c2,,,,,,,,,,,,
"[""comma""]",0,[0.24129999998211815],39,0,39,0,1,5f1b26dbd5dc042c9aedb7a4,Mężczyzna,19,2021-07-13_22h02.14.200,rantool2,2021.1.4,Win32,60.62810719,5f1b26dbd5dc042c9aedb7a4,60d9d14f4a8a35a482e0d9bf,60edf0d45c28a315ad8056c2,,,,,,,,,,,,
"[""period""]",0,[0.22640000000592408],40,0,40,0,1,5f1b26dbd5dc042c9aedb7a4,Mężczyzna,19,2021-07-13_22h02.14.200,rantool2,2021.1.4,Win32,60.62810719,5f1b26dbd5dc042c9aedb7a4,60d9d14f4a8a35a482e0d9bf,60edf0d45c28a315ad8056c2,,,,,,,,,,,,
"[""period""]",0,[0.22350000000000136],41,0,41,0,1,5f1b26dbd5dc042c9aedb7a4,Mężczyzna,19,2021-07-13_22h02.14.200,rantool2,2021.1.4,Win32,60.62810719,5f1b26dbd5dc042c9aedb7a4,60d9d14f4a8a35a482e0d9bf,60edf0d45c28a315ad8056c2,,,,,,,,,,,,
"[""comma""]",0,[0.11000000000001364],42,0,42,0,1,5f1b26dbd5dc042c9aedb7a4,Mężczyzna,19,2021-07-13_22h02.14.200,rantool2,2021.1.4,Win32,60.62810719,5f1b26dbd5dc042c9aedb7a4,60d9d14f4a8a35a482e0d9bf,60edf0d45c28a315ad8056c2,,,,,,,,,,,,
"[""comma""]",0,[0.2375999999940177],43,0,43,0,1,5f1b26dbd5dc042c9aedb7a4,Mężczyzna,19,2021-07-13_22h02.14.200,rantool2,2021.1.4,Win32,60.62810719,5f1b26dbd5dc042c9aedb7a4,60d9d14f4a8a35a482e0d9bf,60edf0d45c28a315ad8056c2,,,,,,,,,,,,
"[""period""]",0,[0.2995000000000232],44,0,44,0,1,5f1b26dbd5dc042c9aedb7a4,Mężczyzna,19,2021-07-13_22h02.14.200,rantool2,2021.1.4,Win32,60.62810719,5f1b26dbd5dc042c9aedb7a4,60d9d14f4a8a35a482e0d9bf,60edf0d45c28a315ad8056c2,,,,,,,,,,,,
"[""comma""]",0,[0.2539000000059559],45,0,45,0,1,5f1b26dbd5dc042c9aedb7a4,Mężczyzna,19,2021-07-13_22h02.14.200,rantool2,2021.1.4,Win32,60.62810719,5f1b26dbd5dc042c9aedb7a4,60d9d14f4a8a35a482e0d9bf,60edf0d45c28a315ad8056c2,,,,,,,,,,,,
"[""comma""]",0,[0.23850000000004457],46,0,46,0,1,5f1b26dbd5dc042c9aedb7a4,Mężczyzna,19,2021-07-13_22h02.14.200,rantool2,2021.1.4,Win32,60.62810719,5f1b26dbd5dc042c9aedb7a4,60d9d14f4a8a35a482e0d9bf,60edf0d45c28a315ad8056c2,,,,,,,,,,,,
"[""period""]",0,[0.2275999999940268],47,0,47,0,1,5f1b26dbd5dc042c9aedb7a4,Mężczyzna,19,2021-07-13_22h02.14.200,rantool2,2021.1.4,Win32,60.62810719,5f1b26dbd5dc042c9aedb7a4,60d9d14f4a8a35a482e0d9bf,60edf0d45c28a315ad8056c2,,,,,,,,,,,,
"[""period""]",0,[-0.013900000005946822],48,0,48,0,1,5f1b26dbd5dc042c9aedb7a4,Mężczyzna,19,2021-07-13_22h02.14.200,rantool2,2021.1.4,Win32,60.62810719,5f1b26dbd5dc042c9aedb7a4,60d9d14f4a8a35a482e0d9bf,60edf0d45c28a315ad8056c2,,,,,,,,,,,,
"[""period""]",0,[0.2754000000059591],49,0,49,0,1,5f1b26dbd5dc042c9aedb7a4,Mężczyzna,19,2021-07-13_22h02.14.200,rantool2,2021.1.4,Win32,60.62810719,5f1b26dbd5dc042c9aedb7a4,60d9d14f4a8a35a482e0d9bf,60edf0d45c28a315ad8056c2,,,,,,,,,,,,
"[""comma""]",0,[0.3380000000000223],50,0,50,0,1,5f1b26dbd5dc042c9aedb7a4,Mężczyzna,19,2021-07-13_22h02.14.200,rantool2,2021.1.4,Win32,60.62810719,5f1b26dbd5dc042c9aedb7a4,60d9d14f4a8a35a482e0d9bf,60edf0d45c28a315ad8056c2,,,,,,,,,,,,
"[""period""]",0,[0.22390000000592636],51,0,51,0,1,5f1b26dbd5dc042c9aedb7a4,Mężczyzna,19,2021-07-13_22h02.14.200,rantool2,2021.1.4,Win32,60.62810719,5f1b26dbd5dc042c9aedb7a4,60d9d14f4a8a35a482e0d9bf,60edf0d45c28a315ad8056c2,,,,,,,,,,,,
"[""period""]",0,[0.2676999999880536],52,0,52,0,1,5f1b26dbd5dc042c9aedb7a4,Mężczyzna,19,2021-07-13_22h02.14.200,rantool2,2021.1.4,Win32,60.62810719,5f1b26dbd5dc042c9aedb7a4,60d9d14f4a8a35a482e0d9bf,60edf0d45c28a315ad8056c2,,,,,,,,,,,,
"[""comma""]",0,[0.23219999998809726],53,0,53,0,1,5f1b26dbd5dc042c9aedb7a4,Mężczyzna,19,2021-07-13_22h02.14.200,rantool2,2021.1.4,Win32,60.62810719,5f1b26dbd5dc042c9aedb7a4,60d9d14f4a8a35a482e0d9bf,60edf0d45c28a315ad8056c2,,,,,,,,,,,,
"[""period""]",0,[0.2323000000119464],54,0,54,0,1,5f1b26dbd5dc042c9aedb7a4,Mężczyzna,19,2021-07-13_22h02.14.200,rantool2,2021.1.4,Win32,60.62810719,5f1b26dbd5dc042c9aedb7a4,60d9d14f4a8a35a482e0d9bf,60edf0d45c28a315ad8056c2,,,,,,,,,,,,
"[""comma""]",0,[0.18899999999996453],55,0,55,0,1,5f1b26dbd5dc042c9aedb7a4,Mężczyzna,19,2021-07-13_22h02.14.200,rantool2,2021.1.4,Win32,60.62810719,5f1b26dbd5dc042c9aedb7a4,60d9d14f4a8a35a482e0d9bf,60edf0d45c28a315ad8056c2,,,,,,,,,,,,
"[""period""]",0,[0.08890000000593545],56,0,56,0,1,5f1b26dbd5dc042c9aedb7a4,Mężczyzna,19,2021-07-13_22h02.14.200,rantool2,2021.1.4,Win32,60.62810719,5f1b26dbd5dc042c9aedb7a4,60d9d14f4a8a35a482e0d9bf,60edf0d45c28a315ad8056c2,,,,,,,,,,,,
"[""comma""]",0,[0.24890000000596046],57,0,57,0,1,5f1b26dbd5dc042c9aedb7a4,Mężczyzna,19,2021-07-13_22h02.14.200,rantool2,2021.1.4,Win32,60.62810719,5f1b26dbd5dc042c9aedb7a4,60d9d14f4a8a35a482e0d9bf,60edf0d45c28a315ad8056c2,,,,,,,,,,,,
"[""comma""]",0,[0.29109999999406],58,0,58,0,1,5f1b26dbd5dc042c9aedb7a4,Mężczyzna,19,2021-07-13_22h02.14.200,rantool2,2021.1.4,Win32,60.62810719,5f1b26dbd5dc042c9aedb7a4,60d9d14f4a8a35a482e0d9bf,60edf0d45c28a315ad8056c2,,,,,,,,,,,,
"[""period""]",0,[0.3358000000119432],59,0,59,0,1,5f1b26dbd5dc042c9aedb7a4,Mężczyzna,19,2021-07-13_22h02.14.200,rantool2,2021.1.4,Win32,60.62810719,5f1b26dbd5dc042c9aedb7a4,60d9d14f4a8a35a482e0d9bf,60edf0d45c28a315ad8056c2,,,,,,,,,,,,
"[""comma""]",0,[0.332099999994],60,0,60,0,1,5f1b26dbd5dc042c9aedb7a4,Mężczyzna,19,2021-07-13_22h02.14.200,rantool2,2021.1.4,Win32,60.62810719,5f1b26dbd5dc042c9aedb7a4,60d9d14f4a8a35a482e0d9bf,60edf0d45c28a315ad8056c2,,,,,,,,,,,,
"[""comma""]",0,[0.24829999998212315],61,0,61,0,1,5f1b26dbd5dc042c9aedb7a4,Mężczyzna,19,2021-07-13_22h02.14.200,rantool2,2021.1.4,Win32,60.62810719,5f1b26dbd5dc042c9aedb7a4,60d9d14f4a8a35a482e0d9bf,60edf0d45c28a315ad8056c2,,,,,,,,,,,,
"[""comma""]",0,[0.3388999999761495],62,0,62,0,1,5f1b26dbd5dc042c9aedb7a4,Mężczyzna,19,2021-07-13_22h02.14.200,rantool2,2021.1.4,Win32,60.62810719,5f1b26dbd5dc042c9aedb7a4,60d9d14f4a8a35a482e0d9bf,60edf0d45c28a315ad8056c2,,,,,,,,,,,,
"[""period""]",0,[0.23809999999406273],63,0,63,0,1,5f1b26dbd5dc042c9aedb7a4,Mężczyzna,19,2021-07-13_22h02.14.200,rantool2,2021.1.4,Win32,60.62810719,5f1b26dbd5dc042c9aedb7a4,60d9d14f4a8a35a482e0d9bf,60edf0d45c28a315ad8056c2,,,,,,,,,,,,
"[""comma""]",0,[0.14959999999405227],64,0,64,0,1,5f1b26dbd5dc042c9aedb7a4,Mężczyzna,19,2021-07-13_22h02.14.200,rantool2,2021.1.4,Win32,60.62810719,5f1b26dbd5dc042c9aedb7a4,60d9d14f4a8a35a482e0d9bf,60edf0d45c28a315ad8056c2,,,,,,,,,,,,
"[""period""]",0,[0.15149999999999864],65,0,65,0,1,5f1b26dbd5dc042c9aedb7a4,Mężczyzna,19,2021-07-13_22h02.14.200,rantool2,2021.1.4,Win32,60.62810719,5f1b26dbd5dc042c9aedb7a4,60d9d14f4a8a35a482e0d9bf,60edf0d45c28a315ad8056c2,,,,,,,,,,,,
"[""comma""]",0,[0.2059000000059541],66,0,66,0,1,5f1b26dbd5dc042c9aedb7a4,Mężczyzna,19,2021-07-13_22h02.14.200,rantool2,2021.1.4,Win32,60.62810719,5f1b26dbd5dc042c9aedb7a4,60d9d14f4a8a35a482e0d9bf,60edf0d45c28a315ad8056c2,,,,,,,,,,,,
"[""period""]",0,[0.2185000000000059],67,0,67,0,1,5f1b26dbd5dc042c9aedb7a4,Mężczyzna,19,2021-07-13_22h02.14.200,rantool2,2021.1.4,Win32,60.62810719,5f1b26dbd5dc042c9aedb7a4,60d9d14f4a8a35a482e0d9bf,60edf0d45c28a315ad8056c2,,,,,,,,,,,,
"[""period""]",0,[0.21569999998808953],68,0,68,0,1,5f1b26dbd5dc042c9aedb7a4,Mężczyzna,19,2021-07-13_22h02.14.200,rantool2,2021.1.4,Win32,60.62810719,5f1b26dbd5dc042c9aedb7a4,60d9d14f4a8a35a482e0d9bf,60edf0d45c28a315ad8056c2,,,,,,,,,,,,
"[""comma""]",0,[0.09869999998807089],69,0,69,0,1,5f1b26dbd5dc042c9aedb7a4,Mężczyzna,19,2021-07-13_22h02.14.200,rantool2,2021.1.4,Win32,60.62810719,5f1b26dbd5dc042c9aedb7a4,60d9d14f4a8a35a482e0d9bf,60edf0d45c28a315ad8056c2,,,,,,,,,,,,
"[""comma"",""period""]",0,"[0.057400000005941365,1.9544000000059327]",70,0,70,0,1,5f1b26dbd5dc042c9aedb7a4,Mężczyzna,19,2021-07-13_22h02.14.200,rantool2,2021.1.4,Win32,60.62810719,5f1b26dbd5dc042c9aedb7a4,60d9d14f4a8a35a482e0d9bf,60edf0d45c28a315ad8056c2,,,,,,,,,,,,
0,0,,71,0,71,0,1,5f1b26dbd5dc042c9aedb7a4,Mężczyzna,19,2021-07-13_22h02.14.200,rantool2,2021.1.4,Win32,60.62810719,5f1b26dbd5dc042c9aedb7a4,60d9d14f4a8a35a482e0d9bf,60edf0d45c28a315ad8056c2,,,,,,,,,,,,
"[""comma""]",0,[0.15790000000595228],72,0,72,0,1,5f1b26dbd5dc042c9aedb7a4,Mężczyzna,19,2021-07-13_22h02.14.200,rantool2,2021.1.4,Win32,60.62810719,5f1b26dbd5dc042c9aedb7a4,60d9d14f4a8a35a482e0d9bf,60edf0d45c28a315ad8056c2,,,,,,,,,,,,
"[""comma""]",0,[0.25649999999996],73,0,73,0,1,5f1b26dbd5dc042c9aedb7a4,Mężczyzna,19,2021-07-13_22h02.14.200,rantool2,2021.1.4,Win32,60.62810719,5f1b26dbd5dc042c9aedb7a4,60d9d14f4a8a35a482e0d9bf,60edf0d45c28a315ad8056c2,,,,,,,,,,,,
"[""period""]",0,[0.26650000000000773],74,0,74,0,1,5f1b26dbd5dc042c9aedb7a4,Mężczyzna,19,2021-07-13_22h02.14.200,rantool2,2021.1.4,Win32,60.62810719,5f1b26dbd5dc042c9aedb7a4,60d9d14f4a8a35a482e0d9bf,60edf0d45c28a315ad8056c2,,,,,,,,,,,,
"[""comma""]",0,[0.22819999998807816],75,0,75,0,1,5f1b26dbd5dc042c9aedb7a4,Mężczyzna,19,2021-07-13_22h02.14.200,rantool2,2021.1.4,Win32,60.62810719,5f1b26dbd5dc042c9aedb7a4,60d9d14f4a8a35a482e0d9bf,60edf0d45c28a315ad8056c2,,,,,,,,,,,,
"[""period""]",0,[0.2319999999999709],76,0,76,0,1,5f1b26dbd5dc042c9aedb7a4,Mężczyzna,19,2021-07-13_22h02.14.200,rantool2,2021.1.4,Win32,60.62810719,5f1b26dbd5dc042c9aedb7a4,60d9d14f4a8a35a482e0d9bf,60edf0d45c28a315ad8056c2,,,,,,,,,,,,
"[""comma""]",0,[0.13469999998807225],77,0,77,0,1,5f1b26dbd5dc042c9aedb7a4,Mężczyzna,19,2021-07-13_22h02.14.200,rantool2,2021.1.4,Win32,60.62810719,5f1b26dbd5dc042c9aedb7a4,60d9d14f4a8a35a482e0d9bf,60edf0d45c28a315ad8056c2,,,,,,,,,,,,
"[""period""]",0,[0.13659999999401862],78,0,78,0,1,5f1b26dbd5dc042c9aedb7a4,Mężczyzna,19,2021-07-13_22h02.14.200,rantool2,2021.1.4,Win32,60.62810719,5f1b26dbd5dc042c9aedb7a4,60d9d14f4a8a35a482e0d9bf,60edf0d45c28a315ad8056c2,,,,,,,,,,,,
"[""comma""]",0,[0.23529999998214635],79,0,79,0,1,5f1b26dbd5dc042c9aedb7a4,Mężczyzna,19,2021-07-13_22h02.14.200,rantool2,2021.1.4,Win32,60.62810719,5f1b26dbd5dc042c9aedb7a4,60d9d14f4a8a35a482e0d9bf,60edf0d45c28a315ad8056c2,,,,,,,,,,,,
"[""period""]",0,[0.24070000001785274],80,0,80,0,1,5f1b26dbd5dc042c9aedb7a4,Mężczyzna,19,2021-07-13_22h02.14.200,rantool2,2021.1.4,Win32,60.62810719,5f1b26dbd5dc042c9aedb7a4,60d9d14f4a8a35a482e0d9bf,60edf0d45c28a315ad8056c2,,,,,,,,,,,,
"[""comma""]",0,[0.30819999998806225],81,0,81,0,1,5f1b26dbd5dc042c9aedb7a4,Mężczyzna,19,2021-07-13_22h02.14.200,rantool2,2021.1.4,Win32,60.62810719,5f1b26dbd5dc042c9aedb7a4,60d9d14f4a8a35a482e0d9bf,60edf0d45c28a315ad8056c2,,,,,,,,,,,,
"[""comma""]",0,[0.24890000000596046],82,0,82,0,1,5f1b26dbd5dc042c9aedb7a4,Mężczyzna,19,2021-07-13_22h02.14.200,rantool2,2021.1.4,Win32,60.62810719,5f1b26dbd5dc042c9aedb7a4,60d9d14f4a8a35a482e0d9bf,60edf0d45c28a315ad8056c2,,,,,,,,,,,,
"[""period"",""comma""]",0,"[0.1443000000119241,1.9272000000178764]",83,0,83,0,1,5f1b26dbd5dc042c9aedb7a4,Mężczyzna,19,2021-07-13_22h02.14.200,rantool2,2021.1.4,Win32,60.62810719,5f1b26dbd5dc042c9aedb7a4,60d9d14f4a8a35a482e0d9bf,60edf0d45c28a315ad8056c2,,,,,,,,,,,,
"[""period""]",0,[1.608000000000004],84,0,84,0,1,5f1b26dbd5dc042c9aedb7a4,Mężczyzna,19,2021-07-13_22h02.14.200,rantool2,2021.1.4,Win32,60.62810719,5f1b26dbd5dc042c9aedb7a4,60d9d14f4a8a35a482e0d9bf,60edf0d45c28a315ad8056c2,,,,,,,,,,,,
0,0,,85,0,85,0,1,5f1b26dbd5dc042c9aedb7a4,Mężczyzna,19,2021-07-13_22h02.14.200,rantool2,2021.1.4,Win32,60.62810719,5f1b26dbd5dc042c9aedb7a4,60d9d14f4a8a35a482e0d9bf,60edf0d45c28a315ad8056c2,,,,,,,,,,,,
"[""period""]",0,[0.24849999999997863],86,0,86,0,1,5f1b26dbd5dc042c9aedb7a4,Mężczyzna,19,2021-07-13_22h02.14.200,rantool2,2021.1.4,Win32,60.62810719,5f1b26dbd5dc042c9aedb7a4,60d9d14f4a8a35a482e0d9bf,60edf0d45c28a315ad8056c2,,,,,,,,,,,,
"[""period""]",0,[0.45980000001191],87,0,87,0,1,5f1b26dbd5dc042c9aedb7a4,Mężczyzna,19,2021-07-13_22h02.14.200,rantool2,2021.1.4,Win32,60.62810719,5f1b26dbd5dc042c9aedb7a4,60d9d14f4a8a35a482e0d9bf,60edf0d45c28a315ad8056c2,,,,,,,,,,,,
"[""comma""]",0,[0.7166999999880659],88,0,88,0,1,5f1b26dbd5dc042c9aedb7a4,Mężczyzna,19,2021-07-13_22h02.14.200,rantool2,2021.1.4,Win32,60.62810719,5f1b26dbd5dc042c9aedb7a4,60d9d14f4a8a35a482e0d9bf,60edf0d45c28a315ad8056c2,,,,,,,,,,,,
"[""period""]",0,[0.7422999999821513],89,0,89,0,1,5f1b26dbd5dc042c9aedb7a4,Mężczyzna,19,2021-07-13_22h02.14.200,rantool2,2021.1.4,Win32,60.62810719,5f1b26dbd5dc042c9aedb7a4,60d9d14f4a8a35a482e0d9bf,60edf0d45c28a315ad8056c2,,,,,,,,,,,,
"[""comma""]",0,[0.5081000000238873],90,0,90,0,1,5f1b26dbd5dc042c9aedb7a4,Mężczyzna,19,2021-07-13_22h02.14.200,rantool2,2021.1.4,Win32,60.62810719,5f1b26dbd5dc042c9aedb7a4,60d9d14f4a8a35a482e0d9bf,60edf0d45c28a315ad8056c2,,,,,,,,,,,,
"[""comma""]",0,[0.307300000011935],91,0,91,0,1,5f1b26dbd5dc042c9aedb7a4,Mężczyzna,19,2021-07-13_22h02.14.200,rantool2,2021.1.4,Win32,60.62810719,5f1b26dbd5dc042c9aedb7a4,60d9d14f4a8a35a482e0d9bf,60edf0d45c28a315ad8056c2,,,,,,,,,,,,
"[""period""]",0,[0.25579999998211633],92,0,92,0,1,5f1b26dbd5dc042c9aedb7a4,Mężczyzna,19,2021-07-13_22h02.14.200,rantool2,2021.1.4,Win32,60.62810719,5f1b26dbd5dc042c9aedb7a4,60d9d14f4a8a35a482e0d9bf,60edf0d45c28a315ad8056c2,,,,,,,,,,,,
"[""period""]",0,[0.2410999999939918],93,0,93,0,1,5f1b26dbd5dc042c9aedb7a4,Mężczyzna,19,2021-07-13_22h02.14.200,rantool2,2021.1.4,Win32,60.62810719,5f1b26dbd5dc042c9aedb7a4,60d9d14f4a8a35a482e0d9bf,60edf0d45c28a315ad8056c2,,,,,,,,,,,,
"[""comma""]",0,[0.23450000000002547],94,0,94,0,1,5f1b26dbd5dc042c9aedb7a4,Mężczyzna,19,2021-07-13_22h02.14.200,rantool2,2021.1.4,Win32,60.62810719,5f1b26dbd5dc042c9aedb7a4,60d9d14f4a8a35a482e0d9bf,60edf0d45c28a315ad8056c2,,,,,,,,,,,,
"[""period""]",0,[0.25030000001191866],95,0,95,0,1,5f1b26dbd5dc042c9aedb7a4,Mężczyzna,19,2021-07-13_22h02.14.200,rantool2,2021.1.4,Win32,60.62810719,5f1b26dbd5dc042c9aedb7a4,60d9d14f4a8a35a482e0d9bf,60edf0d45c28a315ad8056c2,,,,,,,,,,,,
"[""period""]",0,[0.2654000000059682],96,0,96,0,1,5f1b26dbd5dc042c9aedb7a4,Mężczyzna,19,2021-07-13_22h02.14.200,rantool2,2021.1.4,Win32,60.62810719,5f1b26dbd5dc042c9aedb7a4,60d9d14f4a8a35a482e0d9bf,60edf0d45c28a315ad8056c2,,,,,,,,,,,,
"[""period""]",0,[0.26030000001190956],97,0,97,0,1,5f1b26dbd5dc042c9aedb7a4,Mężczyzna,19,2021-07-13_22h02.14.200,rantool2,2021.1.4,Win32,60.62810719,5f1b26dbd5dc042c9aedb7a4,60d9d14f4a8a35a482e0d9bf,60edf0d45c28a315ad8056c2,,,,,,,,,,,,
"[""comma""]",0,[0.28549999999995634],98,0,98,0,1,5f1b26dbd5dc042c9aedb7a4,Mężczyzna,19,2021-07-13_22h02.14.200,rantool2,2021.1.4,Win32,60.62810719,5f1b26dbd5dc042c9aedb7a4,60d9d14f4a8a35a482e0d9bf,60edf0d45c28a315ad8056c2,,,,,,,,,,,,
"[""comma""]",0,[0.24130000001196095],99,0,99,0,1,5f1b26dbd5dc042c9aedb7a4,Mężczyzna,19,2021-07-13_22h02.14.200,rantool2,2021.1.4,Win32,60.62810719,5f1b26dbd5dc042c9aedb7a4,60d9d14f4a8a35a482e0d9bf,60edf0d45c28a315ad8056c2,,,,,,,,,,,,
"[""comma""]",0,[0.10050000000001091],100,0,100,0,1,5f1b26dbd5dc042c9aedb7a4,Mężczyzna,19,2021-07-13_22h02.14.200,rantool2,2021.1.4,Win32,60.62810719,5f1b26dbd5dc042c9aedb7a4,60d9d14f4a8a35a482e0d9bf,60edf0d45c28a315ad8056c2,,,,,,,,,,,,
"[""comma""]",0,[0.2148999999761827],101,0,101,0,1,5f1b26dbd5dc042c9aedb7a4,Mężczyzna,19,2021-07-13_22h02.14.200,rantool2,2021.1.4,Win32,60.62810719,5f1b26dbd5dc042c9aedb7a4,60d9d14f4a8a35a482e0d9bf,60edf0d45c28a315ad8056c2,,,,,,,,,,,,
"[""comma""]",0,[0.18740000000593682],102,0,102,0,1,5f1b26dbd5dc042c9aedb7a4,Mężczyzna,19,2021-07-13_22h02.14.200,rantool2,2021.1.4,Win32,60.62810719,5f1b26dbd5dc042c9aedb7a4,60d9d14f4a8a35a482e0d9bf,60edf0d45c28a315ad8056c2,,,,,,,,,,,,
"[""period""]",0,[0.2319999999999709],103,0,103,0,1,5f1b26dbd5dc042c9aedb7a4,Mężczyzna,19,2021-07-13_22h02.14.200,rantool2,2021.1.4,Win32,60.62810719,5f1b26dbd5dc042c9aedb7a4,60d9d14f4a8a35a482e0d9bf,60edf0d45c28a315ad8056c2,,,,,,,,,,,,
"[""comma""]",0,[0.2656000000238805],104,0,104,0,1,5f1b26dbd5dc042c9aedb7a4,Mężczyzna,19,2021-07-13_22h02.14.200,rantool2,2021.1.4,Win32,60.62810719,5f1b26dbd5dc042c9aedb7a4,60d9d14f4a8a35a482e0d9bf,60edf0d45c28a315ad8056c2,,,,,,,,,,,,
"[""period""]",0,[0.2352999999820895],105,0,105,0,1,5f1b26dbd5dc042c9aedb7a4,Mężczyzna,19,2021-07-13_22h02.14.200,rantool2,2021.1.4,Win32,60.62810719,5f1b26dbd5dc042c9aedb7a4,60d9d14f4a8a35a482e0d9bf,60edf0d45c28a315ad8056c2,,,,,,,,,,,,
"[""comma""]",0,[0.19419999998808635],106,0,106,0,1,5f1b26dbd5dc042c9aedb7a4,Mężczyzna,19,2021-07-13_22h02.14.200,rantool2,2021.1.4,Win32,60.62810719,5f1b26dbd5dc042c9aedb7a4,60d9d14f4a8a35a482e0d9bf,60edf0d45c28a315ad8056c2,,,,,,,,,,,,
"[""comma""]",0,[0.21800000000001774],107,0,107,0,1,5f1b26dbd5dc042c9aedb7a4,Mężczyzna,19,2021-07-13_22h02.14.200,rantool2,2021.1.4,Win32,60.62810719,5f1b26dbd5dc042c9aedb7a4,60d9d14f4a8a35a482e0d9bf,60edf0d45c28a315ad8056c2,,,,,,,,,,,,
"[""period""]",0,[0.1989000000059491],108,0,108,0,1,5f1b26dbd5dc042c9aedb7a4,Mężczyzna,19,2021-07-13_22h02.14.200,rantool2,2021.1.4,Win32,60.62810719,5f1b26dbd5dc042c9aedb7a4,60d9d14f4a8a35a482e0d9bf,60edf0d45c28a315ad8056c2,,,,,,,,,,,,
"[""period""]",0,[0.1677000000179305],109,0,109,0,1,5f1b26dbd5dc042c9aedb7a4,Mężczyzna,19,2021-07-13_22h02.14.200,rantool2,2021.1.4,Win32,60.62810719,5f1b26dbd5dc042c9aedb7a4,60d9d14f4a8a35a482e0d9bf,60edf0d45c28a315ad8056c2,,,,,,,,,,,,
"[""period""]",0,[0.20969999998806088],110,0,110,0,1,5f1b26dbd5dc042c9aedb7a4,Mężczyzna,19,2021-07-13_22h02.14.200,rantool2,2021.1.4,Win32,60.62810719,5f1b26dbd5dc042c9aedb7a4,60d9d14f4a8a35a482e0d9bf,60edf0d45c28a315ad8056c2,,,,,,,,,,,,
"[""comma""]",0,[0.23200000000002774],111,0,111,0,1,5f1b26dbd5dc042c9aedb7a4,Mężczyzna,19,2021-07-13_22h02.14.200,rantool2,2021.1.4,Win32,60.62810719,5f1b26dbd5dc042c9aedb7a4,60d9d14f4a8a35a482e0d9bf,60edf0d45c28a315ad8056c2,,,,,,,,,,,,
"[""period""]",0,[0.2059000000059541],112,0,112,0,1,5f1b26dbd5dc042c9aedb7a4,Mężczyzna,19,2021-07-13_22h02.14.200,rantool2,2021.1.4,Win32,60.62810719,5f1b26dbd5dc042c9aedb7a4,60d9d14f4a8a35a482e0d9bf,60edf0d45c28a315ad8056c2,,,,,,,,,,,,
"[""comma""]",0,[0.21580000001188182],113,0,113,0,1,5f1b26dbd5dc042c9aedb7a4,Mężczyzna,19,2021-07-13_22h02.14.200,rantool2,2021.1.4,Win32,60.62810719,5f1b26dbd5dc042c9aedb7a4,60d9d14f4a8a35a482e0d9bf,60edf0d45c28a315ad8056c2,,,,,,,,,,,,
"[""period""]",0,[0.23860000002383686],114,0,114,0,1,5f1b26dbd5dc042c9aedb7a4,Mężczyzna,19,2021-07-13_22h02.14.200,rantool2,2021.1.4,Win32,60.62810719,5f1b26dbd5dc042c9aedb7a4,60d9d14f4a8a35a482e0d9bf,60edf0d45c28a315ad8056c2,,,,,,,,,,,,
"[""period""]",0,[0.24920000001787912],115,0,115,0,1,5f1b26dbd5dc042c9aedb7a4,Mężczyzna,19,2021-07-13_22h02.14.200,rantool2,2021.1.4,Win32,60.62810719,5f1b26dbd5dc042c9aedb7a4,60d9d14f4a8a35a482e0d9bf,60edf0d45c28a315ad8056c2,,,,,,,,,,,,
"[""comma"",""period""]",0,"[0.15409999999405954,1.9487999999821568]",116,0,116,0,1,5f1b26dbd5dc042c9aedb7a4,Mężczyzna,19,2021-07-13_22h02.14.200,rantool2,2021.1.4,Win32,60.62810719,5f1b26dbd5dc042c9aedb7a4,60d9d14f4a8a35a482e0d9bf,60edf0d45c28a315ad8056c2,,,,,,,,,,,,
"[""period""]",0,[1.893800000011879],117,0,117,0,1,5f1b26dbd5dc042c9aedb7a4,Mężczyzna,19,2021-07-13_22h02.14.200,rantool2,2021.1.4,Win32,60.62810719,5f1b26dbd5dc042c9aedb7a4,60d9d14f4a8a35a482e0d9bf,60edf0d45c28a315ad8056c2,,,,,,,,,,,,
"[""period""]",0,[0.5986000000238505],118,0,118,0,1,5f1b26dbd5dc042c9aedb7a4,Mężczyzna,19,2021-07-13_22h02.14.200,rantool2,2021.1.4,Win32,60.62810719,5f1b26dbd5dc042c9aedb7a4,60d9d14f4a8a35a482e0d9bf,60edf0d45c28a315ad8056c2,,,,,,,,,,,,
"[""comma""]",0,[0.2485999999940418],119,0,119,0,1,5f1b26dbd5dc042c9aedb7a4,Mężczyzna,19,2021-07-13_22h02.14.200,rantool2,2021.1.4,Win32,60.62810719,5f1b26dbd5dc042c9aedb7a4,60d9d14f4a8a35a482e0d9bf,60edf0d45c28a315ad8056c2,,,,,,,,,,,,
,,,,,,,,5f1b26dbd5dc042c9aedb7a4,Mężczyzna,19,2021-07-13_22h02.14.200,rantool2,2021.1.4,Win32,60.62810719,5f1b26dbd5dc042c9aedb7a4,60d9d14f4a8a35a482e0d9bf,60edf0d45c28a315ad8056c2,f,4.1603,0,0,0,22,1,ORORROO,ORORROR,22.02732763,21.57657071,series_0
,,,,,,,,5f1b26dbd5dc042c9aedb7a4,Mężczyzna,19,2021-07-13_22h02.14.200,rantool2,2021.1.4,Win32,60.62810719,5f1b26dbd5dc042c9aedb7a4,60d9d14f4a8a35a482e0d9bf,60edf0d45c28a315ad8056c2,j,1.8042,0,1,1,16,1,OROOOOO,OROOOOR,20.43051175,21.17347734,series_1
,,,,,,,,5f1b26dbd5dc042c9aedb7a4,Mężczyzna,19,2021-07-13_22h02.14.200,rantool2,2021.1.4,Win32,60.62810719,5f1b26dbd5dc042c9aedb7a4,60d9d14f4a8a35a482e0d9bf,60edf0d45c28a315ad8056c2,f,1.3059,0,2,2,11,1,OORORRO,OORORRR,22.18365867,22.6797523,series_1
,,,,,,,,5f1b26dbd5dc042c9aedb7a4,Mężczyzna,19,2021-07-13_22h02.14.200,rantool2,2021.1.4,Win32,60.62810719,5f1b26dbd5dc042c9aedb7a4,60d9d14f4a8a35a482e0d9bf,60edf0d45c28a315ad8056c2,f,1.1873,0,3,3,6,1,OOORROO,OOORROR,21.12383932,21.38562617,series_1
,,,,,,,,5f1b26dbd5dc042c9aedb7a4,Mężczyzna,19,2021-07-13_22h02.14.200,rantool2,2021.1.4,Win32,60.62810719,5f1b26dbd5dc042c9aedb7a4,60d9d14f4a8a35a482e0d9bf,60edf0d45c28a315ad8056c2,j,1.342,0,4,4,40,1,ROROOOO,ROROOOR,20.87963819,21.37121559,series_1
,,,,,,,,5f1b26dbd5dc042c9aedb7a4,Mężczyzna,19,2021-07-13_22h02.14.200,rantool2,2021.1.4,Win32,60.62810719,5f1b26dbd5dc042c9aedb7a4,60d9d14f4a8a35a482e0d9bf,60edf0d45c28a315ad8056c2,f,1.3487,0,5,5,57,1,RRROORO,RRROORR,21.82425538,22.07102821,series_1
,,,,,,,,5f1b26dbd5dc042c9aedb7a4,Mężczyzna,19,2021-07-13_22h02.14.200,rantool2,2021.1.4,Win32,60.62810719,5f1b26dbd5dc042c9aedb7a4,60d9d14f4a8a35a482e0d9bf,60edf0d45c28a315ad8056c2,j,0.087,0,6,6,41,1,ROROORO,ROROORR,20.42602454,21.71443381,series_1
,,,,,,,,5f1b26dbd5dc042c9aedb7a4,Mężczyzna,19,2021-07-13_22h02.14.200,rantool2,2021.1.4,Win32,60.62810719,5f1b26dbd5dc042c9aedb7a4,60d9d14f4a8a35a482e0d9bf,60edf0d45c28a315ad8056c2,f,1.0528,0,7,7,4,1,OOOROOO,OOOROOR,19.91402015,21.21223021,series_1
,,,,,,,,5f1b26dbd5dc042c9aedb7a4,Mężczyzna,19,2021-07-13_22h02.14.200,rantool2,2021.1.4,Win32,60.62810719,5f1b26dbd5dc042c9aedb7a4,60d9d14f4a8a35a482e0d9bf,60edf0d45c28a315ad8056c2,f,1.2429,0,8,8,33,1,ROOOORO,ROOOORR,20.83779602,22.03072203,series_1
,,,,,,,,5f1b26dbd5dc042c9aedb7a4,Mężczyzna,19,2021-07-13_22h02.14.200,rantool2,2021.1.4,Win32,60.62810719,5f1b26dbd5dc042c9aedb7a4,60d9d14f4a8a35a482e0d9bf,60edf0d45c28a315ad8056c2,j,1.2659,0,9,9,23,1,ORORRRO,ORORRRR,22.1285618,21.9921709,series_0
,,,,,,,,5f1b26dbd5dc042c9aedb7a4,Mężczyzna,19,2021-07-13_22h02.14.200,rantool2,2021.1.4,Win32,60.62810719,5f1b26dbd5dc042c9aedb7a4,60d9d14f4a8a35a482e0d9bf,60edf0d45c28a315ad8056c2,j,1.2836,0,10,10,49,1,RROOORO,RROOORR,21.76276513,22.53364006,series_1
,,,,,,,,5f1b26dbd5dc042c9aedb7a4,Mężczyzna,19,2021-07-13_22h02.14.200,rantool2,2021.1.4,Win32,60.62810719,5f1b26dbd5dc042c9aedb7a4,60d9d14f4a8a35a482e0d9bf,60edf0d45c28a315ad8056c2,f,1.2229,0,11,11,12,1,OORROOO,OORROOR,21.30250474,22.02786418,series_1
,,,,,,,,5f1b26dbd5dc042c9aedb7a4,Mężczyzna,19,2021-07-13_22h02.14.200,rantool2,2021.1.4,Win32,60.62810719,5f1b26dbd5dc042c9aedb7a4,60d9d14f4a8a35a482e0d9bf,60edf0d45c28a315ad8056c2,f,1.2508,0,12,12,1,1,OOOOORO,OOOOORR,19.92253567,20.74050628,series_1
,,,,,,,,5f1b26dbd5dc042c9aedb7a4,Mężczyzna,19,2021-07-13_22h02.14.200,rantool2,2021.1.4,Win32,60.62810719,5f1b26dbd5dc042c9aedb7a4,60d9d14f4a8a35a482e0d9bf,60edf0d45c28a315ad8056c2,j,1.1655,0,13,13,27,1,ORRORRO,ORRORRR,21.55250791,22.2428857,series_1
,,,,,,,,5f1b26dbd5dc042c9aedb7a4,Mężczyzna,19,2021-07-13_22h02.14.200,rantool2,2021.1.4,Win32,60.62810719,5f1b26dbd5dc042c9aedb7a4,60d9d14f4a8a35a482e0d9bf,60edf0d45c28a315ad8056c2,f,1.2074,0,14,14,59,1,RRRORRO,RRRORRR,21.56657303,20.89823192,series_0
,,,,,,,,5f1b26dbd5dc042c9aedb7a4,Mężczyzna,19,2021-07-13_22h02.14.200,rantool2,2021.1.4,Win32,60.62810719,5f1b26dbd5dc042c9aedb7a4,60d9d14f4a8a35a482e0d9bf,60edf0d45c28a315ad8056c2,j,1.1725,0,15,15,13,1,OORRORO,OORRORR,21.66733484,22.11181017,series_1
,,,,,,,,5f1b26dbd5dc042c9aedb7a4,Mężczyzna,19,2021-07-13_22h02.14.200,rantool2,2021.1.4,Win32,60.62810719,5f1b26dbd5dc042c9aedb7a4,60d9d14f4a8a35a482e0d9bf,60edf0d45c28a315ad8056c2,j,1.2425,0,16,16,37,1,ROORORO,ROORORR,20.42602454,21.57657071,series_1
,,,,,,,,5f1b26dbd5dc042c9aedb7a4,Mężczyzna,19,2021-07-13_22h02.14.200,rantool2,2021.1.4,Win32,60.62810719,5f1b26dbd5dc042c9aedb7a4,60d9d14f4a8a35a482e0d9bf,60edf0d45c28a315ad8056c2,f,1.3673,0,17,17,61,1,RRRRORO,RRRRORR,21.81333602,21.17347734,series_0
,,,,,,,,5f1b26dbd5dc042c9aedb7a4,Mężczyzna,19,2021-07-13_22h02.14.200,rantool2,2021.1.4,Win32,60.62810719,5f1b26dbd5dc042c9aedb7a4,60d9d14f4a8a35a482e0d9bf,60edf0d45c28a315ad8056c2,f,1.2681,0,18,18,21,1,ORORORO,ORORORR,20.39515459,22.06781359,series_1
,,,,,,,,5f1b26dbd5dc042c9aedb7a4,Mężczyzna,19,2021-07-13_22h02.14.200,rantool2,2021.1.4,Win32,60.62810719,5f1b26dbd5dc042c9aedb7a4,60d9d14f4a8a35a482e0d9bf,60edf0d45c28a315ad8056c2,f,1.4949,0,19,19,0,1,OOOOOOO,OOOOOOR,18.52739004,19.62521613,series_1
,,,,,,,,5f1b26dbd5dc042c9aedb7a4,Mężczyzna,19,2021-07-13_22h02.14.200,rantool2,2021.1.4,Win32,60.62810719,5f1b26dbd5dc042c9aedb7a4,60d9d14f4a8a35a482e0d9bf,60edf0d45c28a315ad8056c2,f,3.1409,0,20,20,26,1,ORROROO,ORROROR,22.02732763,21.71443381,series_0
,,,,,,,,5f1b26dbd5dc042c9aedb7a4,Mężczyzna,19,2021-07-13_22h02.14.200,rantool2,2021.1.4,Win32,60.62810719,5f1b26dbd5dc042c9aedb7a4,60d9d14f4a8a35a482e0d9bf,60edf0d45c28a315ad8056c2,j,1.4249,0,21,21,52,1,RROROOO,RROROOR,22.18365867,22.11097995,series_0
,,,,,,,,5f1b26dbd5dc042c9aedb7a4,Mężczyzna,19,2021-07-13_22h02.14.200,rantool2,2021.1.4,Win32,60.62810719,5f1b26dbd5dc042c9aedb7a4,60d9d14f4a8a35a482e0d9bf,60edf0d45c28a315ad8056c2,j,1.5892,0,22,22,2,1,OOOOROO,OOOOROR,20.43051175,21.02936224,series_1
,,,,,,,,5f1b26dbd5dc042c9aedb7a4,Mężczyzna,19,2021-07-13_22h02.14.200,rantool2,2021.1.4,Win32,60.62810719,5f1b26dbd5dc042c9aedb7a4,60d9d14f4a8a35a482e0d9bf,60edf0d45c28a315ad8056c2,j,1.4088,0,23,23,35,1,ROOORRO,ROOORRR,21.76276513,22.16977179,series_1
,,,,,,,,5f1b26dbd5dc042c9aedb7a4,Mężczyzna,19,2021-07-13_22h02.14.200,rantool2,2021.1.4,Win32,60.62810719,5f1b26dbd5dc042c9aedb7a4,60d9d14f4a8a35a482e0d9bf,60edf0d45c28a315ad8056c2,f,1.4322,0,24,24,3,1,OOOORRO,OOOORRR,20.90986523,21.74922619,series_1
,,,,,,,,5f1b26dbd5dc042c9aedb7a4,Mężczyzna,19,2021-07-13_22h02.14.200,rantool2,2021.1.4,Win32,60.62810719,5f1b26dbd5dc042c9aedb7a4,60d9d14f4a8a35a482e0d9bf,60edf0d45c28a315ad8056c2,f,1.2888,0,25,25,36,1,ROOROOO,ROOROOR,21.07991943,20.9984461,series_0
,,,,,,,,5f1b26dbd5dc042c9aedb7a4,Mężczyzna,19,2021-07-13_22h02.14.200,rantool2,2021.1.4,Win32,60.62810719,5f1b26dbd5dc042c9aedb7a4,60d9d14f4a8a35a482e0d9bf,60edf0d45c28a315ad8056c2,j,1.393,0,26,26,32,1,ROOOOOO,ROOOOOR,19.92253567,21.27974287,series_1
,,,,,,,,5f1b26dbd5dc042c9aedb7a4,Mężczyzna,19,2021-07-13_22h02.14.200,rantool2,2021.1.4,Win32,60.62810719,5f1b26dbd5dc042c9aedb7a4,60d9d14f4a8a35a482e0d9bf,60edf0d45c28a315ad8056c2,j,3.1192,0,27,27,60,1,RRRROOO,RRRROOR,22.10108823,22.15934078,series_1
,,,,,,,,5f1b26dbd5dc042c9aedb7a4,Mężczyzna,19,2021-07-13_22h02.14.200,rantool2,2021.1.4,Win32,60.62810719,5f1b26dbd5dc042c9aedb7a4,60d9d14f4a8a35a482e0d9bf,60edf0d45c28a315ad8056c2,j,3.7525,0,28,28,48,1,RROOOOO,RROOOOR,20.90986523,22.15934078,series_1
,,,,,,,,5f1b26dbd5dc042c9aedb7a4,Mężczyzna,19,2021-07-13_22h02.14.200,rantool2,2021.1.4,Win32,60.62810719,5f1b26dbd5dc042c9aedb7a4,60d9d14f4a8a35a482e0d9bf,60edf0d45c28a315ad8056c2,f,1.8012,0,29,29,43,1,RORORRO,RORORRR,20.71309134,21.07490964,series_1
,,,,,,,,5f1b26dbd5dc042c9aedb7a4,Mężczyzna,19,2021-07-13_22h02.14.200,rantool2,2021.1.4,Win32,60.62810719,5f1b26dbd5dc042c9aedb7a4,60d9d14f4a8a35a482e0d9bf,60edf0d45c28a315ad8056c2,j,2.2646,0,30,30,42,1,ROROROO,ROROROR,20.39515459,19.8361834,series_0
,,,,,,,,5f1b26dbd5dc042c9aedb7a4,Mężczyzna,19,2021-07-13_22h02.14.200,rantool2,2021.1.4,Win32,60.62810719,5f1b26dbd5dc042c9aedb7a4,60d9d14f4a8a35a482e0d9bf,60edf0d45c28a315ad8056c2,f,1.5178,0,31,31,51,1,RROORRO,RROORRR,21.89852628,22.02786418,series_1
,,,,,,,,5f1b26dbd5dc042c9aedb7a4,Mężczyzna,19,2021-07-13_22h02.14.200,rantool2,2021.1.4,Win32,60.62810719,5f1b26dbd5dc042c9aedb7a4,60d9d14f4a8a35a482e0d9bf,60edf0d45c28a315ad8056c2,j,2.0003,0,32,32,15,1,OORRRRO,OORRRRR,22.10108823,21.74922619,series_0
,,,,,,,,5f1b26dbd5dc042c9aedb7a4,Mężczyzna,19,2021-07-13_22h02.14.200,rantool2,2021.1.4,Win32,60.62810719,5f1b26dbd5dc042c9aedb7a4,60d9d14f4a8a35a482e0d9bf,60edf0d45c28a315ad8056c2,f,1.5986,0,33,33,55,1,RRORRRO,RRORRRR,21.56657303,21.21223021,series_0
,,,,,,,,5f1b26dbd5dc042c9aedb7a4,Mężczyzna,19,2021-07-13_22h02.14.200,rantool2,2021.1.4,Win32,60.62810719,5f1b26dbd5dc042c9aedb7a4,60d9d14f4a8a35a482e0d9bf,60edf0d45c28a315ad8056c2,j,1.6582,0,34,34,53,1,RRORORO,RRORORR,20.71309134,21.90565814,series_1
,,,,,,,,5f1b26dbd5dc042c9aedb7a4,Mężczyzna,19,2021-07-13_22h02.14.200,rantool2,2021.1.4,Win32,60.62810719,5f1b26dbd5dc042c9aedb7a4,60d9d14f4a8a35a482e0d9bf,60edf0d45c28a315ad8056c2,f,2.3001,0,35,35,47,1,RORRRRO,RORRRRR,21.81333602,21.02936224,series_0
,,,,,,,,5f1b26dbd5dc042c9aedb7a4,Mężczyzna,19,2021-07-13_22h02.14.200,rantool2,2021.1.4,Win32,60.62810719,5f1b26dbd5dc042c9aedb7a4,60d9d14f4a8a35a482e0d9bf,60edf0d45c28a315ad8056c2,f,2.082,0,36,36,24,1,ORROOOO,ORROOOR,21.12383932,22.07102821,series_1
,,,,,,,,5f1b26dbd5dc042c9aedb7a4,Mężczyzna,19,2021-07-13_22h02.14.200,rantool2,2021.1.4,Win32,60.62810719,5f1b26dbd5dc042c9aedb7a4,60d9d14f4a8a35a482e0d9bf,60edf0d45c28a315ad8056c2,j,1.5525,0,37,37,44,1,RORROOO,RORROOR,21.66733484,22.02566557,series_1
,,,,,,,,5f1b26dbd5dc042c9aedb7a4,Mężczyzna,19,2021-07-13_22h02.14.200,rantool2,2021.1.4,Win32,60.62810719,5f1b26dbd5dc042c9aedb7a4,60d9d14f4a8a35a482e0d9bf,60edf0d45c28a315ad8056c2,f,0.0074,0,38,38,17,1,OROOORO,OROOORR,21.03750787,22.12173012,series_1
,,,,,,,,5f1b26dbd5dc042c9aedb7a4,Mężczyzna,19,2021-07-13_22h02.14.200,rantool2,2021.1.4,Win32,60.62810719,5f1b26dbd5dc042c9aedb7a4,60d9d14f4a8a35a482e0d9bf,60edf0d45c28a315ad8056c2,f,3.0413,0,39,39,28,1,ORRROOO,ORRROOR,22.24142883,22.53364006,series_1
,,,,,,,,5f1b26dbd5dc042c9aedb7a4,Mężczyzna,19,2021-07-13_22h02.14.200,rantool2,2021.1.4,Win32,60.62810719,5f1b26dbd5dc042c9aedb7a4,60d9d14f4a8a35a482e0d9bf,60edf0d45c28a315ad8056c2,j,1.3255,0,40,40,20,1,OROROOO,OROROOR,21.31236711,21.90565814,series_1
,,,,,,,,5f1b26dbd5dc042c9aedb7a4,Mężczyzna,19,2021-07-13_22h02.14.200,rantool2,2021.1.4,Win32,60.62810719,5f1b26dbd5dc042c9aedb7a4,60d9d14f4a8a35a482e0d9bf,60edf0d45c28a315ad8056c2,j,0.4447,0,41,41,9,1,OOROORO,OOROORR,21.07991943,22.2428857,series_1
,,,,,,,,5f1b26dbd5dc042c9aedb7a4,Mężczyzna,19,2021-07-13_22h02.14.200,rantool2,2021.1.4,Win32,60.62810719,5f1b26dbd5dc042c9aedb7a4,60d9d14f4a8a35a482e0d9bf,60edf0d45c28a315ad8056c2,j,2.2669,0,42,42,8,1,OOROOOO,OOROOOR,19.91402015,20.89823192,series_1
,,,,,,,,5f1b26dbd5dc042c9aedb7a4,Mężczyzna,19,2021-07-13_22h02.14.200,rantool2,2021.1.4,Win32,60.62810719,5f1b26dbd5dc042c9aedb7a4,60d9d14f4a8a35a482e0d9bf,60edf0d45c28a315ad8056c2,j,3.3209,0,43,43,14,1,OORRROO,OORRROR,22.24142883,22.16977179,series_0
,,,,,,,,5f1b26dbd5dc042c9aedb7a4,Mężczyzna,19,2021-07-13_22h02.14.200,rantool2,2021.1.4,Win32,60.62810719,5f1b26dbd5dc042c9aedb7a4,60d9d14f4a8a35a482e0d9bf,60edf0d45c28a315ad8056c2,f,3.2321,0,44,44,38,1,ROORROO,ROORROR,21.79500819,21.36812781,series_0
,,,,,,,,5f1b26dbd5dc042c9aedb7a4,Mężczyzna,19,2021-07-13_22h02.14.200,rantool2,2021.1.4,Win32,60.62810719,5f1b26dbd5dc042c9aedb7a4,60d9d14f4a8a35a482e0d9bf,60edf0d45c28a315ad8056c2,j,4.2165,0,45,45,34,1,ROOOROO,ROOOROR,21.03750787,21.24781509,series_1
,,,,,,,,5f1b26dbd5dc042c9aedb7a4,Mężczyzna,19,2021-07-13_22h02.14.200,rantool2,2021.1.4,Win32,60.62810719,5f1b26dbd5dc042c9aedb7a4,60d9d14f4a8a35a482e0d9bf,60edf0d45c28a315ad8056c2,f,3.8826,0,46,46,31,1,ORRRRRO,ORRRRRR,22.16413392,20.74050628,series_0
,,,,,,,,5f1b26dbd5dc042c9aedb7a4,Mężczyzna,19,2021-07-13_22h02.14.200,rantool2,2021.1.4,Win32,60.62810719,5f1b26dbd5dc042c9aedb7a4,60d9d14f4a8a35a482e0d9bf,60edf0d45c28a315ad8056c2,j,2.8227,0,47,47,62,1,RRRRROO,RRRRROR,22.16413392,21.27974287,series_0
,,,,,,,,5f1b26dbd5dc042c9aedb7a4,Mężczyzna,19,2021-07-13_22h02.14.200,rantool2,2021.1.4,Win32,60.62810719,5f1b26dbd5dc042c9aedb7a4,60d9d14f4a8a35a482e0d9bf,60edf0d45c28a315ad8056c2,f,1.4729,0,48,48,30,1,ORRRROO,ORRRROR,22.46748491,22.03072203,series_0
,,,,,,,,5f1b26dbd5dc042c9aedb7a4,Mężczyzna,19,2021-07-13_22h02.14.200,rantool2,2021.1.4,Win32,60.62810719,5f1b26dbd5dc042c9aedb7a4,60d9d14f4a8a35a482e0d9bf,60edf0d45c28a315ad8056c2,f,1.3598,0,49,49,63,1,RRRRRRO,RRRRRRR,21.35278725,19.62521613,series_0
,,,,,,,,5f1b26dbd5dc042c9aedb7a4,Mężczyzna,19,2021-07-13_22h02.14.200,rantool2,2021.1.4,Win32,60.62810719,5f1b26dbd5dc042c9aedb7a4,60d9d14f4a8a35a482e0d9bf,60edf0d45c28a315ad8056c2,j,1.9177,0,50,50,19,1,OROORRO,OROORRR,21.73568164,22.11181017,series_1
,,,,,,,,5f1b26dbd5dc042c9aedb7a4,Mężczyzna,19,2021-07-13_22h02.14.200,rantool2,2021.1.4,Win32,60.62810719,5f1b26dbd5dc042c9aedb7a4,60d9d14f4a8a35a482e0d9bf,60edf0d45c28a315ad8056c2,f,1.3677,0,51,51,58,1,RRROROO,RRROROR,22.1285618,21.37121559,series_0
,,,,,,,,5f1b26dbd5dc042c9aedb7a4,Mężczyzna,19,2021-07-13_22h02.14.200,rantool2,2021.1.4,Win32,60.62810719,5f1b26dbd5dc042c9aedb7a4,60d9d14f4a8a35a482e0d9bf,60edf0d45c28a315ad8056c2,j,2.029,0,52,52,25,1,ORROORO,ORROORR,21.79500819,22.61624387,series_1
,,,,,,,,5f1b26dbd5dc042c9aedb7a4,Mężczyzna,19,2021-07-13_22h02.14.200,rantool2,2021.1.4,Win32,60.62810719,5f1b26dbd5dc042c9aedb7a4,60d9d14f4a8a35a482e0d9bf,60edf0d45c28a315ad8056c2,j,2.4381,0,53,53,46,1,RORRROO,RORRROR,22.00300695,21.24781509,series_0
,,,,,,,,5f1b26dbd5dc042c9aedb7a4,Mężczyzna,19,2021-07-13_22h02.14.200,rantool2,2021.1.4,Win32,60.62810719,5f1b26dbd5dc042c9aedb7a4,60d9d14f4a8a35a482e0d9bf,60edf0d45c28a315ad8056c2,j,2.5672,0,54,54,45,1,RORRORO,RORRORR,20.78182524,21.22513037,series_1
,,,,,,,,5f1b26dbd5dc042c9aedb7a4,Mężczyzna,19,2021-07-13_22h02.14.200,rantool2,2021.1.4,Win32,60.62810719,5f1b26dbd5dc042c9aedb7a4,60d9d14f4a8a35a482e0d9bf,60edf0d45c28a315ad8056c2,f,3.2944,0,55,55,7,1,OOORRRO,OOORRRR,21.6194508,21.899017,series_1
,,,,,,,,5f1b26dbd5dc042c9aedb7a4,Mężczyzna,19,2021-07-13_22h02.14.200,rantool2,2021.1.4,Win32,60.62810719,5f1b26dbd5dc042c9aedb7a4,60d9d14f4a8a35a482e0d9bf,60edf0d45c28a315ad8056c2,j,2.1354,0,56,56,5,1,OOORORO,OOORORR,20.87963819,21.9921709,series_1
,,,,,,,,5f1b26dbd5dc042c9aedb7a4,Mężczyzna,19,2021-07-13_22h02.14.200,rantool2,2021.1.4,Win32,60.62810719,5f1b26dbd5dc042c9aedb7a4,60d9d14f4a8a35a482e0d9bf,60edf0d45c28a315ad8056c2,j,3.4887,0,57,57,10,1,OOROROO,OOROROR,21.31236711,21.07490964,series_0
,,,,,,,,5f1b26dbd5dc042c9aedb7a4,Mężczyzna,19,2021-07-13_22h02.14.200,rantool2,2021.1.4,Win32,60.62810719,5f1b26dbd5dc042c9aedb7a4,60d9d14f4a8a35a482e0d9bf,60edf0d45c28a315ad8056c2,j,3.0066,0,58,58,56,1,RRROOOO,RRROOOR,21.6194508,22.31681875,series_1
,,,,,,,,5f1b26dbd5dc042c9aedb7a4,Mężczyzna,19,2021-07-13_22h02.14.200,rantool2,2021.1.4,Win32,60.62810719,5f1b26dbd5dc042c9aedb7a4,60d9d14f4a8a35a482e0d9bf,60edf0d45c28a315ad8056c2,f,2.4005,0,59,59,29,1,ORRRORO,ORRRORR,22.00300695,22.12173012,series_1
,,,,,,,,5f1b26dbd5dc042c9aedb7a4,Mężczyzna,19,2021-07-13_22h02.14.200,rantool2,2021.1.4,Win32,60.62810719,5f1b26dbd5dc042c9aedb7a4,60d9d14f4a8a35a482e0d9bf,60edf0d45c28a315ad8056c2,f,3.7005,0,60,60,54,1,RRORROO,RRORROR,21.55250791,20.9984461,series_0
,,,,,,,,5f1b26dbd5dc042c9aedb7a4,Mężczyzna,19,2021-07-13_22h02.14.200,rantool2,2021.1.4,Win32,60.62810719,5f1b26dbd5dc042c9aedb7a4,60d9d14f4a8a35a482e0d9bf,60edf0d45c28a315ad8056c2,j,3.7676,0,61,61,18,1,OROOROO,OROOROR,20.84860893,21.22513037,series_1
,,,,,,,,5f1b26dbd5dc042c9aedb7a4,Mężczyzna,19,2021-07-13_22h02.14.200,rantool2,2021.1.4,Win32,60.62810719,5f1b26dbd5dc042c9aedb7a4,60d9d14f4a8a35a482e0d9bf,60edf0d45c28a315ad8056c2,j,1.4275,0,62,62,39,1,ROORRRO,ROORRRR,21.82425538,21.38562617,series_0
,,,,,,,,5f1b26dbd5dc042c9aedb7a4,Mężczyzna,19,2021-07-13_22h02.14.200,rantool2,2021.1.4,Win32,60.62810719,5f1b26dbd5dc042c9aedb7a4,60d9d14f4a8a35a482e0d9bf,60edf0d45c28a315ad8056c2,f,1.4012,0,63,63,50,1,RROOROO,RROOROR,21.73568164,22.02566557,series_1
