key_resp_7.keys,key_resp_7.rt,trials_2.thisRepN,trials_2.thisTrialN,trials_2.thisN,trials_2.thisIndex,trials_2.ran,id,series_0,series_1,acss_0,acss_1,comparison,id*,Płeć*,Wiek*,date,expName,psychopyVersion,OS,frameRate,STUDY_ID,SESSION_ID,key_resp_5.keys,key_resp_5.corr,key_resp_5.rt,trials.thisRepN,trials.thisTrialN,trials.thisN,trials.thisIndex,trials.ran
j,1.9,0,0,0,55,1,605b45d13c7c1d03b0acaa3a,RRORRRO,RRORRRR,21.56657303,21.21223021,series_0,605b45d13c7c1d03b0acaa3a,Mężczyzna,18,2021-09-06_17h18.35.300,rantool2,2021.1.4,Win32,60,6135e006383e6ea6c3d06a28,61364d4170302c9d1aa894cc,,,,,,,,
f,1.8,0,1,1,1,1,605b45d13c7c1d03b0acaa3a,OOOOORO,OOOOORR,19.92253567,20.74050628,series_1,605b45d13c7c1d03b0acaa3a,Mężczyzna,18,2021-09-06_17h18.35.300,rantool2,2021.1.4,Win32,60,6135e006383e6ea6c3d06a28,61364d4170302c9d1aa894cc,,,,,,,,
j,2.1,0,2,2,59,1,605b45d13c7c1d03b0acaa3a,RRRORRO,RRRORRR,21.56657303,20.89823192,series_0,605b45d13c7c1d03b0acaa3a,Mężczyzna,18,2021-09-06_17h18.35.300,rantool2,2021.1.4,Win32,60,6135e006383e6ea6c3d06a28,61364d4170302c9d1aa894cc,,,,,,,,
f,2.4,0,3,3,36,1,605b45d13c7c1d03b0acaa3a,ROOROOO,ROOROOR,21.07991943,20.9984461,series_0,605b45d13c7c1d03b0acaa3a,Mężczyzna,18,2021-09-06_17h18.35.300,rantool2,2021.1.4,Win32,60,6135e006383e6ea6c3d06a28,61364d4170302c9d1aa894cc,,,,,,,,
f,2.5,0,4,4,62,1,605b45d13c7c1d03b0acaa3a,RRRRROO,RRRRROR,22.16413392,21.27974287,series_0,605b45d13c7c1d03b0acaa3a,Mężczyzna,18,2021-09-06_17h18.35.300,rantool2,2021.1.4,Win32,60,6135e006383e6ea6c3d06a28,61364d4170302c9d1aa894cc,,,,,,,,
j,3.3,0,5,5,50,1,605b45d13c7c1d03b0acaa3a,RROOROO,RROOROR,21.73568164,22.02566557,series_1,605b45d13c7c1d03b0acaa3a,Mężczyzna,18,2021-09-06_17h18.35.300,rantool2,2021.1.4,Win32,60,6135e006383e6ea6c3d06a28,61364d4170302c9d1aa894cc,,,,,,,,
f,2.7,0,6,6,0,1,605b45d13c7c1d03b0acaa3a,OOOOOOO,OOOOOOR,18.52739004,19.62521613,series_1,605b45d13c7c1d03b0acaa3a,Mężczyzna,18,2021-09-06_17h18.35.300,rantool2,2021.1.4,Win32,60,6135e006383e6ea6c3d06a28,61364d4170302c9d1aa894cc,,,,,,,,
f,1.7,0,7,7,20,1,605b45d13c7c1d03b0acaa3a,OROROOO,OROROOR,21.31236711,21.90565814,series_1,605b45d13c7c1d03b0acaa3a,Mężczyzna,18,2021-09-06_17h18.35.300,rantool2,2021.1.4,Win32,60,6135e006383e6ea6c3d06a28,61364d4170302c9d1aa894cc,,,,,,,,
j,2,0,8,8,54,1,605b45d13c7c1d03b0acaa3a,RRORROO,RRORROR,21.55250791,20.9984461,series_0,605b45d13c7c1d03b0acaa3a,Mężczyzna,18,2021-09-06_17h18.35.300,rantool2,2021.1.4,Win32,60,6135e006383e6ea6c3d06a28,61364d4170302c9d1aa894cc,,,,,,,,
j,3.3,0,9,9,43,1,605b45d13c7c1d03b0acaa3a,RORORRO,RORORRR,20.71309134,21.07490964,series_1,605b45d13c7c1d03b0acaa3a,Mężczyzna,18,2021-09-06_17h18.35.300,rantool2,2021.1.4,Win32,60,6135e006383e6ea6c3d06a28,61364d4170302c9d1aa894cc,,,,,,,,
j,2.9,0,10,10,2,1,605b45d13c7c1d03b0acaa3a,OOOOROO,OOOOROR,20.43051175,21.02936224,series_1,605b45d13c7c1d03b0acaa3a,Mężczyzna,18,2021-09-06_17h18.35.300,rantool2,2021.1.4,Win32,60,6135e006383e6ea6c3d06a28,61364d4170302c9d1aa894cc,,,,,,,,
f,1.9,0,11,11,32,1,605b45d13c7c1d03b0acaa3a,ROOOOOO,ROOOOOR,19.92253567,21.27974287,series_1,605b45d13c7c1d03b0acaa3a,Mężczyzna,18,2021-09-06_17h18.35.300,rantool2,2021.1.4,Win32,60,6135e006383e6ea6c3d06a28,61364d4170302c9d1aa894cc,,,,,,,,
j,2.6,0,12,12,40,1,605b45d13c7c1d03b0acaa3a,ROROOOO,ROROOOR,20.87963819,21.37121559,series_1,605b45d13c7c1d03b0acaa3a,Mężczyzna,18,2021-09-06_17h18.35.300,rantool2,2021.1.4,Win32,60,6135e006383e6ea6c3d06a28,61364d4170302c9d1aa894cc,,,,,,,,
f,1.9,0,13,13,19,1,605b45d13c7c1d03b0acaa3a,OROORRO,OROORRR,21.73568164,22.11181017,series_1,605b45d13c7c1d03b0acaa3a,Mężczyzna,18,2021-09-06_17h18.35.300,rantool2,2021.1.4,Win32,60,6135e006383e6ea6c3d06a28,61364d4170302c9d1aa894cc,,,,,,,,
f,2,0,14,14,57,1,605b45d13c7c1d03b0acaa3a,RRROORO,RRROORR,21.82425538,22.07102821,series_1,605b45d13c7c1d03b0acaa3a,Mężczyzna,18,2021-09-06_17h18.35.300,rantool2,2021.1.4,Win32,60,6135e006383e6ea6c3d06a28,61364d4170302c9d1aa894cc,,,,,,,,
f,2.4,0,15,15,9,1,605b45d13c7c1d03b0acaa3a,OOROORO,OOROORR,21.07991943,22.2428857,series_1,605b45d13c7c1d03b0acaa3a,Mężczyzna,18,2021-09-06_17h18.35.300,rantool2,2021.1.4,Win32,60,6135e006383e6ea6c3d06a28,61364d4170302c9d1aa894cc,,,,,,,,
j,3.1,0,16,16,7,1,605b45d13c7c1d03b0acaa3a,OOORRRO,OOORRRR,21.6194508,21.899017,series_1,605b45d13c7c1d03b0acaa3a,Mężczyzna,18,2021-09-06_17h18.35.300,rantool2,2021.1.4,Win32,60,6135e006383e6ea6c3d06a28,61364d4170302c9d1aa894cc,,,,,,,,
f,2.4,0,17,17,51,1,605b45d13c7c1d03b0acaa3a,RROORRO,RROORRR,21.89852628,22.02786418,series_1,605b45d13c7c1d03b0acaa3a,Mężczyzna,18,2021-09-06_17h18.35.300,rantool2,2021.1.4,Win32,60,6135e006383e6ea6c3d06a28,61364d4170302c9d1aa894cc,,,,,,,,
j,2.2,0,18,18,33,1,605b45d13c7c1d03b0acaa3a,ROOOORO,ROOOORR,20.83779602,22.03072203,series_1,605b45d13c7c1d03b0acaa3a,Mężczyzna,18,2021-09-06_17h18.35.300,rantool2,2021.1.4,Win32,60,6135e006383e6ea6c3d06a28,61364d4170302c9d1aa894cc,,,,,,,,
f,3.3,0,19,19,60,1,605b45d13c7c1d03b0acaa3a,RRRROOO,RRRROOR,22.10108823,22.15934078,series_1,605b45d13c7c1d03b0acaa3a,Mężczyzna,18,2021-09-06_17h18.35.300,rantool2,2021.1.4,Win32,60,6135e006383e6ea6c3d06a28,61364d4170302c9d1aa894cc,,,,,,,,
f,2.4,0,20,20,11,1,605b45d13c7c1d03b0acaa3a,OORORRO,OORORRR,22.18365867,22.6797523,series_1,605b45d13c7c1d03b0acaa3a,Mężczyzna,18,2021-09-06_17h18.35.300,rantool2,2021.1.4,Win32,60,6135e006383e6ea6c3d06a28,61364d4170302c9d1aa894cc,,,,,,,,
f,3.9,0,21,21,21,1,605b45d13c7c1d03b0acaa3a,ORORORO,ORORORR,20.39515459,22.06781359,series_1,605b45d13c7c1d03b0acaa3a,Mężczyzna,18,2021-09-06_17h18.35.300,rantool2,2021.1.4,Win32,60,6135e006383e6ea6c3d06a28,61364d4170302c9d1aa894cc,,,,,,,,
j,3.6,0,22,22,5,1,605b45d13c7c1d03b0acaa3a,OOORORO,OOORORR,20.87963819,21.9921709,series_1,605b45d13c7c1d03b0acaa3a,Mężczyzna,18,2021-09-06_17h18.35.300,rantool2,2021.1.4,Win32,60,6135e006383e6ea6c3d06a28,61364d4170302c9d1aa894cc,,,,,,,,
f,2.5,0,23,23,58,1,605b45d13c7c1d03b0acaa3a,RRROROO,RRROROR,22.1285618,21.37121559,series_0,605b45d13c7c1d03b0acaa3a,Mężczyzna,18,2021-09-06_17h18.35.300,rantool2,2021.1.4,Win32,60,6135e006383e6ea6c3d06a28,61364d4170302c9d1aa894cc,,,,,,,,
j,2.8,0,24,24,14,1,605b45d13c7c1d03b0acaa3a,OORRROO,OORRROR,22.24142883,22.16977179,series_0,605b45d13c7c1d03b0acaa3a,Mężczyzna,18,2021-09-06_17h18.35.300,rantool2,2021.1.4,Win32,60,6135e006383e6ea6c3d06a28,61364d4170302c9d1aa894cc,,,,,,,,
j,3.5,0,25,25,29,1,605b45d13c7c1d03b0acaa3a,ORRRORO,ORRRORR,22.00300695,22.12173012,series_1,605b45d13c7c1d03b0acaa3a,Mężczyzna,18,2021-09-06_17h18.35.300,rantool2,2021.1.4,Win32,60,6135e006383e6ea6c3d06a28,61364d4170302c9d1aa894cc,,,,,,,,
j,1.7,0,26,26,27,1,605b45d13c7c1d03b0acaa3a,ORRORRO,ORRORRR,21.55250791,22.2428857,series_1,605b45d13c7c1d03b0acaa3a,Mężczyzna,18,2021-09-06_17h18.35.300,rantool2,2021.1.4,Win32,60,6135e006383e6ea6c3d06a28,61364d4170302c9d1aa894cc,,,,,,,,
j,2.1,0,27,27,17,1,605b45d13c7c1d03b0acaa3a,OROOORO,OROOORR,21.03750787,22.12173012,series_1,605b45d13c7c1d03b0acaa3a,Mężczyzna,18,2021-09-06_17h18.35.300,rantool2,2021.1.4,Win32,60,6135e006383e6ea6c3d06a28,61364d4170302c9d1aa894cc,,,,,,,,
f,1.5,0,28,28,22,1,605b45d13c7c1d03b0acaa3a,ORORROO,ORORROR,22.02732763,21.57657071,series_0,605b45d13c7c1d03b0acaa3a,Mężczyzna,18,2021-09-06_17h18.35.300,rantool2,2021.1.4,Win32,60,6135e006383e6ea6c3d06a28,61364d4170302c9d1aa894cc,,,,,,,,
f,1.8,0,29,29,4,1,605b45d13c7c1d03b0acaa3a,OOOROOO,OOOROOR,19.91402015,21.21223021,series_1,605b45d13c7c1d03b0acaa3a,Mężczyzna,18,2021-09-06_17h18.35.300,rantool2,2021.1.4,Win32,60,6135e006383e6ea6c3d06a28,61364d4170302c9d1aa894cc,,,,,,,,
j,2.1,0,30,30,12,1,605b45d13c7c1d03b0acaa3a,OORROOO,OORROOR,21.30250474,22.02786418,series_1,605b45d13c7c1d03b0acaa3a,Mężczyzna,18,2021-09-06_17h18.35.300,rantool2,2021.1.4,Win32,60,6135e006383e6ea6c3d06a28,61364d4170302c9d1aa894cc,,,,,,,,
f,1.4,0,31,31,15,1,605b45d13c7c1d03b0acaa3a,OORRRRO,OORRRRR,22.10108823,21.74922619,series_0,605b45d13c7c1d03b0acaa3a,Mężczyzna,18,2021-09-06_17h18.35.300,rantool2,2021.1.4,Win32,60,6135e006383e6ea6c3d06a28,61364d4170302c9d1aa894cc,,,,,,,,
j,2.6,0,32,32,8,1,605b45d13c7c1d03b0acaa3a,OOROOOO,OOROOOR,19.91402015,20.89823192,series_1,605b45d13c7c1d03b0acaa3a,Mężczyzna,18,2021-09-06_17h18.35.300,rantool2,2021.1.4,Win32,60,6135e006383e6ea6c3d06a28,61364d4170302c9d1aa894cc,,,,,,,,
f,3.1,0,33,33,44,1,605b45d13c7c1d03b0acaa3a,RORROOO,RORROOR,21.66733484,22.02566557,series_1,605b45d13c7c1d03b0acaa3a,Mężczyzna,18,2021-09-06_17h18.35.300,rantool2,2021.1.4,Win32,60,6135e006383e6ea6c3d06a28,61364d4170302c9d1aa894cc,,,,,,,,
f,1.8,0,34,34,48,1,605b45d13c7c1d03b0acaa3a,RROOOOO,RROOOOR,20.90986523,22.15934078,series_1,605b45d13c7c1d03b0acaa3a,Mężczyzna,18,2021-09-06_17h18.35.300,rantool2,2021.1.4,Win32,60,6135e006383e6ea6c3d06a28,61364d4170302c9d1aa894cc,,,,,,,,
j,3.8,0,35,35,56,1,605b45d13c7c1d03b0acaa3a,RRROOOO,RRROOOR,21.6194508,22.31681875,series_1,605b45d13c7c1d03b0acaa3a,Mężczyzna,18,2021-09-06_17h18.35.300,rantool2,2021.1.4,Win32,60,6135e006383e6ea6c3d06a28,61364d4170302c9d1aa894cc,,,,,,,,
j,3,0,36,36,53,1,605b45d13c7c1d03b0acaa3a,RRORORO,RRORORR,20.71309134,21.90565814,series_1,605b45d13c7c1d03b0acaa3a,Mężczyzna,18,2021-09-06_17h18.35.300,rantool2,2021.1.4,Win32,60,6135e006383e6ea6c3d06a28,61364d4170302c9d1aa894cc,,,,,,,,
j,1.9,0,37,37,38,1,605b45d13c7c1d03b0acaa3a,ROORROO,ROORROR,21.79500819,21.36812781,series_0,605b45d13c7c1d03b0acaa3a,Mężczyzna,18,2021-09-06_17h18.35.300,rantool2,2021.1.4,Win32,60,6135e006383e6ea6c3d06a28,61364d4170302c9d1aa894cc,,,,,,,,
j,1.4,0,38,38,63,1,605b45d13c7c1d03b0acaa3a,RRRRRRO,RRRRRRR,21.35278725,19.62521613,series_0,605b45d13c7c1d03b0acaa3a,Mężczyzna,18,2021-09-06_17h18.35.300,rantool2,2021.1.4,Win32,60,6135e006383e6ea6c3d06a28,61364d4170302c9d1aa894cc,,,,,,,,
f,2.4,0,39,39,39,1,605b45d13c7c1d03b0acaa3a,ROORRRO,ROORRRR,21.82425538,21.38562617,series_0,605b45d13c7c1d03b0acaa3a,Mężczyzna,18,2021-09-06_17h18.35.300,rantool2,2021.1.4,Win32,60,6135e006383e6ea6c3d06a28,61364d4170302c9d1aa894cc,,,,,,,,
f,2,0,40,40,23,1,605b45d13c7c1d03b0acaa3a,ORORRRO,ORORRRR,22.1285618,21.9921709,series_0,605b45d13c7c1d03b0acaa3a,Mężczyzna,18,2021-09-06_17h18.35.300,rantool2,2021.1.4,Win32,60,6135e006383e6ea6c3d06a28,61364d4170302c9d1aa894cc,,,,,,,,
j,3.5,0,41,41,46,1,605b45d13c7c1d03b0acaa3a,RORRROO,RORRROR,22.00300695,21.24781509,series_0,605b45d13c7c1d03b0acaa3a,Mężczyzna,18,2021-09-06_17h18.35.300,rantool2,2021.1.4,Win32,60,6135e006383e6ea6c3d06a28,61364d4170302c9d1aa894cc,,,,,,,,
j,3.1,0,42,42,52,1,605b45d13c7c1d03b0acaa3a,RROROOO,RROROOR,22.18365867,22.11097995,series_0,605b45d13c7c1d03b0acaa3a,Mężczyzna,18,2021-09-06_17h18.35.300,rantool2,2021.1.4,Win32,60,6135e006383e6ea6c3d06a28,61364d4170302c9d1aa894cc,,,,,,,,
f,2.8,0,43,43,3,1,605b45d13c7c1d03b0acaa3a,OOOORRO,OOOORRR,20.90986523,21.74922619,series_1,605b45d13c7c1d03b0acaa3a,Mężczyzna,18,2021-09-06_17h18.35.300,rantool2,2021.1.4,Win32,60,6135e006383e6ea6c3d06a28,61364d4170302c9d1aa894cc,,,,,,,,
f,2.5,0,44,44,47,1,605b45d13c7c1d03b0acaa3a,RORRRRO,RORRRRR,21.81333602,21.02936224,series_0,605b45d13c7c1d03b0acaa3a,Mężczyzna,18,2021-09-06_17h18.35.300,rantool2,2021.1.4,Win32,60,6135e006383e6ea6c3d06a28,61364d4170302c9d1aa894cc,,,,,,,,
f,3.1,0,45,45,49,1,605b45d13c7c1d03b0acaa3a,RROOORO,RROOORR,21.76276513,22.53364006,series_1,605b45d13c7c1d03b0acaa3a,Mężczyzna,18,2021-09-06_17h18.35.300,rantool2,2021.1.4,Win32,60,6135e006383e6ea6c3d06a28,61364d4170302c9d1aa894cc,,,,,,,,
f,4,0,46,46,42,1,605b45d13c7c1d03b0acaa3a,ROROROO,ROROROR,20.39515459,19.8361834,series_0,605b45d13c7c1d03b0acaa3a,Mężczyzna,18,2021-09-06_17h18.35.300,rantool2,2021.1.4,Win32,60,6135e006383e6ea6c3d06a28,61364d4170302c9d1aa894cc,,,,,,,,
f,4.2,0,47,47,26,1,605b45d13c7c1d03b0acaa3a,ORROROO,ORROROR,22.02732763,21.71443381,series_0,605b45d13c7c1d03b0acaa3a,Mężczyzna,18,2021-09-06_17h18.35.300,rantool2,2021.1.4,Win32,60,6135e006383e6ea6c3d06a28,61364d4170302c9d1aa894cc,,,,,,,,
f,3.3,0,48,48,61,1,605b45d13c7c1d03b0acaa3a,RRRRORO,RRRRORR,21.81333602,21.17347734,series_0,605b45d13c7c1d03b0acaa3a,Mężczyzna,18,2021-09-06_17h18.35.300,rantool2,2021.1.4,Win32,60,6135e006383e6ea6c3d06a28,61364d4170302c9d1aa894cc,,,,,,,,
j,2.6,0,49,49,45,1,605b45d13c7c1d03b0acaa3a,RORRORO,RORRORR,20.78182524,21.22513037,series_1,605b45d13c7c1d03b0acaa3a,Mężczyzna,18,2021-09-06_17h18.35.300,rantool2,2021.1.4,Win32,60,6135e006383e6ea6c3d06a28,61364d4170302c9d1aa894cc,,,,,,,,
f,1.4,0,50,50,37,1,605b45d13c7c1d03b0acaa3a,ROORORO,ROORORR,20.42602454,21.57657071,series_1,605b45d13c7c1d03b0acaa3a,Mężczyzna,18,2021-09-06_17h18.35.300,rantool2,2021.1.4,Win32,60,6135e006383e6ea6c3d06a28,61364d4170302c9d1aa894cc,,,,,,,,
j,1.8,0,51,51,25,1,605b45d13c7c1d03b0acaa3a,ORROORO,ORROORR,21.79500819,22.61624387,series_1,605b45d13c7c1d03b0acaa3a,Mężczyzna,18,2021-09-06_17h18.35.300,rantool2,2021.1.4,Win32,60,6135e006383e6ea6c3d06a28,61364d4170302c9d1aa894cc,,,,,,,,
j,2.9,0,52,52,16,1,605b45d13c7c1d03b0acaa3a,OROOOOO,OROOOOR,20.43051175,21.17347734,series_1,605b45d13c7c1d03b0acaa3a,Mężczyzna,18,2021-09-06_17h18.35.300,rantool2,2021.1.4,Win32,60,6135e006383e6ea6c3d06a28,61364d4170302c9d1aa894cc,,,,,,,,
f,1.2,0,53,53,30,1,605b45d13c7c1d03b0acaa3a,ORRRROO,ORRRROR,22.46748491,22.03072203,series_0,605b45d13c7c1d03b0acaa3a,Mężczyzna,18,2021-09-06_17h18.35.300,rantool2,2021.1.4,Win32,60,6135e006383e6ea6c3d06a28,61364d4170302c9d1aa894cc,,,,,,,,
f,1.4,0,54,54,10,1,605b45d13c7c1d03b0acaa3a,OOROROO,OOROROR,21.31236711,21.07490964,series_0,605b45d13c7c1d03b0acaa3a,Mężczyzna,18,2021-09-06_17h18.35.300,rantool2,2021.1.4,Win32,60,6135e006383e6ea6c3d06a28,61364d4170302c9d1aa894cc,,,,,,,,
f,1.8,0,55,55,31,1,605b45d13c7c1d03b0acaa3a,ORRRRRO,ORRRRRR,22.16413392,20.74050628,series_0,605b45d13c7c1d03b0acaa3a,Mężczyzna,18,2021-09-06_17h18.35.300,rantool2,2021.1.4,Win32,60,6135e006383e6ea6c3d06a28,61364d4170302c9d1aa894cc,,,,,,,,
j,1.5,0,56,56,41,1,605b45d13c7c1d03b0acaa3a,ROROORO,ROROORR,20.42602454,21.71443381,series_1,605b45d13c7c1d03b0acaa3a,Mężczyzna,18,2021-09-06_17h18.35.300,rantool2,2021.1.4,Win32,60,6135e006383e6ea6c3d06a28,61364d4170302c9d1aa894cc,,,,,,,,
f,1,0,57,57,13,1,605b45d13c7c1d03b0acaa3a,OORRORO,OORRORR,21.66733484,22.11181017,series_1,605b45d13c7c1d03b0acaa3a,Mężczyzna,18,2021-09-06_17h18.35.300,rantool2,2021.1.4,Win32,60,6135e006383e6ea6c3d06a28,61364d4170302c9d1aa894cc,,,,,,,,
f,1,0,58,58,28,1,605b45d13c7c1d03b0acaa3a,ORRROOO,ORRROOR,22.24142883,22.53364006,series_1,605b45d13c7c1d03b0acaa3a,Mężczyzna,18,2021-09-06_17h18.35.300,rantool2,2021.1.4,Win32,60,6135e006383e6ea6c3d06a28,61364d4170302c9d1aa894cc,,,,,,,,
j,0.8,0,59,59,24,1,605b45d13c7c1d03b0acaa3a,ORROOOO,ORROOOR,21.12383932,22.07102821,series_1,605b45d13c7c1d03b0acaa3a,Mężczyzna,18,2021-09-06_17h18.35.300,rantool2,2021.1.4,Win32,60,6135e006383e6ea6c3d06a28,61364d4170302c9d1aa894cc,,,,,,,,
f,1,0,60,60,34,1,605b45d13c7c1d03b0acaa3a,ROOOROO,ROOOROR,21.03750787,21.24781509,series_1,605b45d13c7c1d03b0acaa3a,Mężczyzna,18,2021-09-06_17h18.35.300,rantool2,2021.1.4,Win32,60,6135e006383e6ea6c3d06a28,61364d4170302c9d1aa894cc,,,,,,,,
j,1.1,0,61,61,18,1,605b45d13c7c1d03b0acaa3a,OROOROO,OROOROR,20.84860893,21.22513037,series_1,605b45d13c7c1d03b0acaa3a,Mężczyzna,18,2021-09-06_17h18.35.300,rantool2,2021.1.4,Win32,60,6135e006383e6ea6c3d06a28,61364d4170302c9d1aa894cc,,,,,,,,
f,1.6,0,62,62,6,1,605b45d13c7c1d03b0acaa3a,OOORROO,OOORROR,21.12383932,21.38562617,series_1,605b45d13c7c1d03b0acaa3a,Mężczyzna,18,2021-09-06_17h18.35.300,rantool2,2021.1.4,Win32,60,6135e006383e6ea6c3d06a28,61364d4170302c9d1aa894cc,,,,,,,,
f,1.3,0,63,63,35,1,605b45d13c7c1d03b0acaa3a,ROOORRO,ROOORRR,21.76276513,22.16977179,series_1,605b45d13c7c1d03b0acaa3a,Mężczyzna,18,2021-09-06_17h18.35.300,rantool2,2021.1.4,Win32,60,6135e006383e6ea6c3d06a28,61364d4170302c9d1aa894cc,,,,,,,,
,,,,,,,605b45d13c7c1d03b0acaa3a,,,,,,605b45d13c7c1d03b0acaa3a,Mężczyzna,18,2021-09-06_17h18.35.300,rantool2,2021.1.4,Win32,60,6135e006383e6ea6c3d06a28,61364d4170302c9d1aa894cc,"[""comma""]",0,[1.1000000000000227],0,0,0,0,1
,,,,,,,605b45d13c7c1d03b0acaa3a,,,,,,605b45d13c7c1d03b0acaa3a,Mężczyzna,18,2021-09-06_17h18.35.300,rantool2,2021.1.4,Win32,60,6135e006383e6ea6c3d06a28,61364d4170302c9d1aa894cc,"[""comma""]",0,[0.4000000000000341],1,0,1,0,1
,,,,,,,605b45d13c7c1d03b0acaa3a,,,,,,605b45d13c7c1d03b0acaa3a,Mężczyzna,18,2021-09-06_17h18.35.300,rantool2,2021.1.4,Win32,60,6135e006383e6ea6c3d06a28,61364d4170302c9d1aa894cc,"[""period""]",0,[0.30000000000001137],2,0,2,0,1
,,,,,,,605b45d13c7c1d03b0acaa3a,,,,,,605b45d13c7c1d03b0acaa3a,Mężczyzna,18,2021-09-06_17h18.35.300,rantool2,2021.1.4,Win32,60,6135e006383e6ea6c3d06a28,61364d4170302c9d1aa894cc,"[""comma""]",0,[0.19999999999998863],3,0,3,0,1
,,,,,,,605b45d13c7c1d03b0acaa3a,,,,,,605b45d13c7c1d03b0acaa3a,Mężczyzna,18,2021-09-06_17h18.35.300,rantool2,2021.1.4,Win32,60,6135e006383e6ea6c3d06a28,61364d4170302c9d1aa894cc,"[""comma""]",0,[0.5],4,0,4,0,1
,,,,,,,605b45d13c7c1d03b0acaa3a,,,,,,605b45d13c7c1d03b0acaa3a,Mężczyzna,18,2021-09-06_17h18.35.300,rantool2,2021.1.4,Win32,60,6135e006383e6ea6c3d06a28,61364d4170302c9d1aa894cc,"[""period""]",0,[0.19999999999998863],5,0,5,0,1
,,,,,,,605b45d13c7c1d03b0acaa3a,,,,,,605b45d13c7c1d03b0acaa3a,Mężczyzna,18,2021-09-06_17h18.35.300,rantool2,2021.1.4,Win32,60,6135e006383e6ea6c3d06a28,61364d4170302c9d1aa894cc,"[""period""]",0,[0.19999999999998863],6,0,6,0,1
,,,,,,,605b45d13c7c1d03b0acaa3a,,,,,,605b45d13c7c1d03b0acaa3a,Mężczyzna,18,2021-09-06_17h18.35.300,rantool2,2021.1.4,Win32,60,6135e006383e6ea6c3d06a28,61364d4170302c9d1aa894cc,"[""period""]",0,[0.19999999999998863],7,0,7,0,1
,,,,,,,605b45d13c7c1d03b0acaa3a,,,,,,605b45d13c7c1d03b0acaa3a,Mężczyzna,18,2021-09-06_17h18.35.300,rantool2,2021.1.4,Win32,60,6135e006383e6ea6c3d06a28,61364d4170302c9d1aa894cc,"[""period""]",0,[0.10000000000002274],8,0,8,0,1
,,,,,,,605b45d13c7c1d03b0acaa3a,,,,,,605b45d13c7c1d03b0acaa3a,Mężczyzna,18,2021-09-06_17h18.35.300,rantool2,2021.1.4,Win32,60,6135e006383e6ea6c3d06a28,61364d4170302c9d1aa894cc,"[""comma""]",0,[0.19999999999998863],9,0,9,0,1
,,,,,,,605b45d13c7c1d03b0acaa3a,,,,,,605b45d13c7c1d03b0acaa3a,Mężczyzna,18,2021-09-06_17h18.35.300,rantool2,2021.1.4,Win32,60,6135e006383e6ea6c3d06a28,61364d4170302c9d1aa894cc,"[""comma""]",0,[0.30000000000001137],10,0,10,0,1
,,,,,,,605b45d13c7c1d03b0acaa3a,,,,,,605b45d13c7c1d03b0acaa3a,Mężczyzna,18,2021-09-06_17h18.35.300,rantool2,2021.1.4,Win32,60,6135e006383e6ea6c3d06a28,61364d4170302c9d1aa894cc,"[""comma""]",0,[0.19999999999998863],11,0,11,0,1
,,,,,,,605b45d13c7c1d03b0acaa3a,,,,,,605b45d13c7c1d03b0acaa3a,Mężczyzna,18,2021-09-06_17h18.35.300,rantool2,2021.1.4,Win32,60,6135e006383e6ea6c3d06a28,61364d4170302c9d1aa894cc,"[""period""]",0,[0.30000000000001137],12,0,12,0,1
,,,,,,,605b45d13c7c1d03b0acaa3a,,,,,,605b45d13c7c1d03b0acaa3a,Mężczyzna,18,2021-09-06_17h18.35.300,rantool2,2021.1.4,Win32,60,6135e006383e6ea6c3d06a28,61364d4170302c9d1aa894cc,"[""comma""]",0,[0.10000000000002274],13,0,13,0,1
,,,,,,,605b45d13c7c1d03b0acaa3a,,,,,,605b45d13c7c1d03b0acaa3a,Mężczyzna,18,2021-09-06_17h18.35.300,rantool2,2021.1.4,Win32,60,6135e006383e6ea6c3d06a28,61364d4170302c9d1aa894cc,"[""comma""]",0,[0.10000000000002274],14,0,14,0,1
,,,,,,,605b45d13c7c1d03b0acaa3a,,,,,,605b45d13c7c1d03b0acaa3a,Mężczyzna,18,2021-09-06_17h18.35.300,rantool2,2021.1.4,Win32,60,6135e006383e6ea6c3d06a28,61364d4170302c9d1aa894cc,"[""period""]",0,[0],15,0,15,0,1
,,,,,,,605b45d13c7c1d03b0acaa3a,,,,,,605b45d13c7c1d03b0acaa3a,Mężczyzna,18,2021-09-06_17h18.35.300,rantool2,2021.1.4,Win32,60,6135e006383e6ea6c3d06a28,61364d4170302c9d1aa894cc,"[""period""]",0,[0.10000000000002274],16,0,16,0,1
,,,,,,,605b45d13c7c1d03b0acaa3a,,,,,,605b45d13c7c1d03b0acaa3a,Mężczyzna,18,2021-09-06_17h18.35.300,rantool2,2021.1.4,Win32,60,6135e006383e6ea6c3d06a28,61364d4170302c9d1aa894cc,"[""comma""]",0,[0.19999999999998863],17,0,17,0,1
,,,,,,,605b45d13c7c1d03b0acaa3a,,,,,,605b45d13c7c1d03b0acaa3a,Mężczyzna,18,2021-09-06_17h18.35.300,rantool2,2021.1.4,Win32,60,6135e006383e6ea6c3d06a28,61364d4170302c9d1aa894cc,"[""period""]",0,[0.10000000000002274],18,0,18,0,1
,,,,,,,605b45d13c7c1d03b0acaa3a,,,,,,605b45d13c7c1d03b0acaa3a,Mężczyzna,18,2021-09-06_17h18.35.300,rantool2,2021.1.4,Win32,60,6135e006383e6ea6c3d06a28,61364d4170302c9d1aa894cc,"[""comma""]",0,[0.10000000000002274],19,0,19,0,1
,,,,,,,605b45d13c7c1d03b0acaa3a,,,,,,605b45d13c7c1d03b0acaa3a,Mężczyzna,18,2021-09-06_17h18.35.300,rantool2,2021.1.4,Win32,60,6135e006383e6ea6c3d06a28,61364d4170302c9d1aa894cc,"[""comma""]",0,[0],20,0,20,0,1
,,,,,,,605b45d13c7c1d03b0acaa3a,,,,,,605b45d13c7c1d03b0acaa3a,Mężczyzna,18,2021-09-06_17h18.35.300,rantool2,2021.1.4,Win32,60,6135e006383e6ea6c3d06a28,61364d4170302c9d1aa894cc,"[""comma""]",0,[0.19999999999998863],21,0,21,0,1
,,,,,,,605b45d13c7c1d03b0acaa3a,,,,,,605b45d13c7c1d03b0acaa3a,Mężczyzna,18,2021-09-06_17h18.35.300,rantool2,2021.1.4,Win32,60,6135e006383e6ea6c3d06a28,61364d4170302c9d1aa894cc,"[""comma""]",0,[0.30000000000001137],22,0,22,0,1
,,,,,,,605b45d13c7c1d03b0acaa3a,,,,,,605b45d13c7c1d03b0acaa3a,Mężczyzna,18,2021-09-06_17h18.35.300,rantool2,2021.1.4,Win32,60,6135e006383e6ea6c3d06a28,61364d4170302c9d1aa894cc,"[""period""]",0,[0.19999999999998863],23,0,23,0,1
,,,,,,,605b45d13c7c1d03b0acaa3a,,,,,,605b45d13c7c1d03b0acaa3a,Mężczyzna,18,2021-09-06_17h18.35.300,rantool2,2021.1.4,Win32,60,6135e006383e6ea6c3d06a28,61364d4170302c9d1aa894cc,"[""comma""]",0,[0],24,0,24,0,1
,,,,,,,605b45d13c7c1d03b0acaa3a,,,,,,605b45d13c7c1d03b0acaa3a,Mężczyzna,18,2021-09-06_17h18.35.300,rantool2,2021.1.4,Win32,60,6135e006383e6ea6c3d06a28,61364d4170302c9d1aa894cc,"[""comma""]",0,[0.10000000000002274],25,0,25,0,1
,,,,,,,605b45d13c7c1d03b0acaa3a,,,,,,605b45d13c7c1d03b0acaa3a,Mężczyzna,18,2021-09-06_17h18.35.300,rantool2,2021.1.4,Win32,60,6135e006383e6ea6c3d06a28,61364d4170302c9d1aa894cc,"[""period""]",0,[0.10000000000002274],26,0,26,0,1
,,,,,,,605b45d13c7c1d03b0acaa3a,,,,,,605b45d13c7c1d03b0acaa3a,Mężczyzna,18,2021-09-06_17h18.35.300,rantool2,2021.1.4,Win32,60,6135e006383e6ea6c3d06a28,61364d4170302c9d1aa894cc,"[""period""]",0,[0],27,0,27,0,1
,,,,,,,605b45d13c7c1d03b0acaa3a,,,,,,605b45d13c7c1d03b0acaa3a,Mężczyzna,18,2021-09-06_17h18.35.300,rantool2,2021.1.4,Win32,60,6135e006383e6ea6c3d06a28,61364d4170302c9d1aa894cc,"[""comma""]",0,[0],28,0,28,0,1
,,,,,,,605b45d13c7c1d03b0acaa3a,,,,,,605b45d13c7c1d03b0acaa3a,Mężczyzna,18,2021-09-06_17h18.35.300,rantool2,2021.1.4,Win32,60,6135e006383e6ea6c3d06a28,61364d4170302c9d1aa894cc,"[""comma""]",0,[0],29,0,29,0,1
,,,,,,,605b45d13c7c1d03b0acaa3a,,,,,,605b45d13c7c1d03b0acaa3a,Mężczyzna,18,2021-09-06_17h18.35.300,rantool2,2021.1.4,Win32,60,6135e006383e6ea6c3d06a28,61364d4170302c9d1aa894cc,"[""comma""]",0,[0.19999999999998863],30,0,30,0,1
,,,,,,,605b45d13c7c1d03b0acaa3a,,,,,,605b45d13c7c1d03b0acaa3a,Mężczyzna,18,2021-09-06_17h18.35.300,rantool2,2021.1.4,Win32,60,6135e006383e6ea6c3d06a28,61364d4170302c9d1aa894cc,"[""period""]",0,[0.19999999999998863],31,0,31,0,1
,,,,,,,605b45d13c7c1d03b0acaa3a,,,,,,605b45d13c7c1d03b0acaa3a,Mężczyzna,18,2021-09-06_17h18.35.300,rantool2,2021.1.4,Win32,60,6135e006383e6ea6c3d06a28,61364d4170302c9d1aa894cc,"[""period""]",0,[0],32,0,32,0,1
,,,,,,,605b45d13c7c1d03b0acaa3a,,,,,,605b45d13c7c1d03b0acaa3a,Mężczyzna,18,2021-09-06_17h18.35.300,rantool2,2021.1.4,Win32,60,6135e006383e6ea6c3d06a28,61364d4170302c9d1aa894cc,"[""period""]",0,[0.10000000000002274],33,0,33,0,1
,,,,,,,605b45d13c7c1d03b0acaa3a,,,,,,605b45d13c7c1d03b0acaa3a,Mężczyzna,18,2021-09-06_17h18.35.300,rantool2,2021.1.4,Win32,60,6135e006383e6ea6c3d06a28,61364d4170302c9d1aa894cc,"[""period""]",0,[0.19999999999998863],34,0,34,0,1
,,,,,,,605b45d13c7c1d03b0acaa3a,,,,,,605b45d13c7c1d03b0acaa3a,Mężczyzna,18,2021-09-06_17h18.35.300,rantool2,2021.1.4,Win32,60,6135e006383e6ea6c3d06a28,61364d4170302c9d1aa894cc,"[""period""]",0,[0.4000000000000341],35,0,35,0,1
,,,,,,,605b45d13c7c1d03b0acaa3a,,,,,,605b45d13c7c1d03b0acaa3a,Mężczyzna,18,2021-09-06_17h18.35.300,rantool2,2021.1.4,Win32,60,6135e006383e6ea6c3d06a28,61364d4170302c9d1aa894cc,"[""period""]",0,[0.4000000000000341],36,0,36,0,1
,,,,,,,605b45d13c7c1d03b0acaa3a,,,,,,605b45d13c7c1d03b0acaa3a,Mężczyzna,18,2021-09-06_17h18.35.300,rantool2,2021.1.4,Win32,60,6135e006383e6ea6c3d06a28,61364d4170302c9d1aa894cc,"[""comma""]",0,[0.30000000000001137],37,0,37,0,1
,,,,,,,605b45d13c7c1d03b0acaa3a,,,,,,605b45d13c7c1d03b0acaa3a,Mężczyzna,18,2021-09-06_17h18.35.300,rantool2,2021.1.4,Win32,60,6135e006383e6ea6c3d06a28,61364d4170302c9d1aa894cc,"[""comma""]",0,[0.30000000000001137],38,0,38,0,1
,,,,,,,605b45d13c7c1d03b0acaa3a,,,,,,605b45d13c7c1d03b0acaa3a,Mężczyzna,18,2021-09-06_17h18.35.300,rantool2,2021.1.4,Win32,60,6135e006383e6ea6c3d06a28,61364d4170302c9d1aa894cc,"[""period""]",0,[0.4000000000000341],39,0,39,0,1
,,,,,,,605b45d13c7c1d03b0acaa3a,,,,,,605b45d13c7c1d03b0acaa3a,Mężczyzna,18,2021-09-06_17h18.35.300,rantool2,2021.1.4,Win32,60,6135e006383e6ea6c3d06a28,61364d4170302c9d1aa894cc,"[""comma""]",0,[0.5],40,0,40,0,1
,,,,,,,605b45d13c7c1d03b0acaa3a,,,,,,605b45d13c7c1d03b0acaa3a,Mężczyzna,18,2021-09-06_17h18.35.300,rantool2,2021.1.4,Win32,60,6135e006383e6ea6c3d06a28,61364d4170302c9d1aa894cc,"[""period""]",0,[0.4000000000000341],41,0,41,0,1
,,,,,,,605b45d13c7c1d03b0acaa3a,,,,,,605b45d13c7c1d03b0acaa3a,Mężczyzna,18,2021-09-06_17h18.35.300,rantool2,2021.1.4,Win32,60,6135e006383e6ea6c3d06a28,61364d4170302c9d1aa894cc,"[""comma""]",0,[0.19999999999998863],42,0,42,0,1
,,,,,,,605b45d13c7c1d03b0acaa3a,,,,,,605b45d13c7c1d03b0acaa3a,Mężczyzna,18,2021-09-06_17h18.35.300,rantool2,2021.1.4,Win32,60,6135e006383e6ea6c3d06a28,61364d4170302c9d1aa894cc,"[""comma""]",0,[0],43,0,43,0,1
,,,,,,,605b45d13c7c1d03b0acaa3a,,,,,,605b45d13c7c1d03b0acaa3a,Mężczyzna,18,2021-09-06_17h18.35.300,rantool2,2021.1.4,Win32,60,6135e006383e6ea6c3d06a28,61364d4170302c9d1aa894cc,"[""comma""]",0,[0.30000000000001137],44,0,44,0,1
,,,,,,,605b45d13c7c1d03b0acaa3a,,,,,,605b45d13c7c1d03b0acaa3a,Mężczyzna,18,2021-09-06_17h18.35.300,rantool2,2021.1.4,Win32,60,6135e006383e6ea6c3d06a28,61364d4170302c9d1aa894cc,"[""comma""]",0,[0.30000000000001137],45,0,45,0,1
,,,,,,,605b45d13c7c1d03b0acaa3a,,,,,,605b45d13c7c1d03b0acaa3a,Mężczyzna,18,2021-09-06_17h18.35.300,rantool2,2021.1.4,Win32,60,6135e006383e6ea6c3d06a28,61364d4170302c9d1aa894cc,"[""comma""]",0,[0.19999999999998863],46,0,46,0,1
,,,,,,,605b45d13c7c1d03b0acaa3a,,,,,,605b45d13c7c1d03b0acaa3a,Mężczyzna,18,2021-09-06_17h18.35.300,rantool2,2021.1.4,Win32,60,6135e006383e6ea6c3d06a28,61364d4170302c9d1aa894cc,"[""period""]",0,[0],47,0,47,0,1
,,,,,,,605b45d13c7c1d03b0acaa3a,,,,,,605b45d13c7c1d03b0acaa3a,Mężczyzna,18,2021-09-06_17h18.35.300,rantool2,2021.1.4,Win32,60,6135e006383e6ea6c3d06a28,61364d4170302c9d1aa894cc,"[""comma""]",0,[0.19999999999998863],48,0,48,0,1
,,,,,,,605b45d13c7c1d03b0acaa3a,,,,,,605b45d13c7c1d03b0acaa3a,Mężczyzna,18,2021-09-06_17h18.35.300,rantool2,2021.1.4,Win32,60,6135e006383e6ea6c3d06a28,61364d4170302c9d1aa894cc,"[""comma""]",0,[0.30000000000001137],49,0,49,0,1
,,,,,,,605b45d13c7c1d03b0acaa3a,,,,,,605b45d13c7c1d03b0acaa3a,Mężczyzna,18,2021-09-06_17h18.35.300,rantool2,2021.1.4,Win32,60,6135e006383e6ea6c3d06a28,61364d4170302c9d1aa894cc,"[""period""]",0,[0.19999999999998863],50,0,50,0,1
,,,,,,,605b45d13c7c1d03b0acaa3a,,,,,,605b45d13c7c1d03b0acaa3a,Mężczyzna,18,2021-09-06_17h18.35.300,rantool2,2021.1.4,Win32,60,6135e006383e6ea6c3d06a28,61364d4170302c9d1aa894cc,"[""period""]",0,[0.19999999999998863],51,0,51,0,1
,,,,,,,605b45d13c7c1d03b0acaa3a,,,,,,605b45d13c7c1d03b0acaa3a,Mężczyzna,18,2021-09-06_17h18.35.300,rantool2,2021.1.4,Win32,60,6135e006383e6ea6c3d06a28,61364d4170302c9d1aa894cc,"[""period""]",0,[0.19999999999998863],52,0,52,0,1
,,,,,,,605b45d13c7c1d03b0acaa3a,,,,,,605b45d13c7c1d03b0acaa3a,Mężczyzna,18,2021-09-06_17h18.35.300,rantool2,2021.1.4,Win32,60,6135e006383e6ea6c3d06a28,61364d4170302c9d1aa894cc,"[""comma""]",0,[0.30000000000001137],53,0,53,0,1
,,,,,,,605b45d13c7c1d03b0acaa3a,,,,,,605b45d13c7c1d03b0acaa3a,Mężczyzna,18,2021-09-06_17h18.35.300,rantool2,2021.1.4,Win32,60,6135e006383e6ea6c3d06a28,61364d4170302c9d1aa894cc,"[""period""]",0,[0],54,0,54,0,1
,,,,,,,605b45d13c7c1d03b0acaa3a,,,,,,605b45d13c7c1d03b0acaa3a,Mężczyzna,18,2021-09-06_17h18.35.300,rantool2,2021.1.4,Win32,60,6135e006383e6ea6c3d06a28,61364d4170302c9d1aa894cc,"[""comma""]",0,[0.10000000000002274],55,0,55,0,1
,,,,,,,605b45d13c7c1d03b0acaa3a,,,,,,605b45d13c7c1d03b0acaa3a,Mężczyzna,18,2021-09-06_17h18.35.300,rantool2,2021.1.4,Win32,60,6135e006383e6ea6c3d06a28,61364d4170302c9d1aa894cc,"[""comma""]",0,[0.10000000000002274],56,0,56,0,1
,,,,,,,605b45d13c7c1d03b0acaa3a,,,,,,605b45d13c7c1d03b0acaa3a,Mężczyzna,18,2021-09-06_17h18.35.300,rantool2,2021.1.4,Win32,60,6135e006383e6ea6c3d06a28,61364d4170302c9d1aa894cc,"[""comma""]",0,[0.19999999999998863],57,0,57,0,1
,,,,,,,605b45d13c7c1d03b0acaa3a,,,,,,605b45d13c7c1d03b0acaa3a,Mężczyzna,18,2021-09-06_17h18.35.300,rantool2,2021.1.4,Win32,60,6135e006383e6ea6c3d06a28,61364d4170302c9d1aa894cc,"[""period""]",0,[0],58,0,58,0,1
,,,,,,,605b45d13c7c1d03b0acaa3a,,,,,,605b45d13c7c1d03b0acaa3a,Mężczyzna,18,2021-09-06_17h18.35.300,rantool2,2021.1.4,Win32,60,6135e006383e6ea6c3d06a28,61364d4170302c9d1aa894cc,"[""period""]",0,[0.30000000000001137],59,0,59,0,1
,,,,,,,605b45d13c7c1d03b0acaa3a,,,,,,605b45d13c7c1d03b0acaa3a,Mężczyzna,18,2021-09-06_17h18.35.300,rantool2,2021.1.4,Win32,60,6135e006383e6ea6c3d06a28,61364d4170302c9d1aa894cc,"[""period""]",0,[0.19999999999998863],60,0,60,0,1
,,,,,,,605b45d13c7c1d03b0acaa3a,,,,,,605b45d13c7c1d03b0acaa3a,Mężczyzna,18,2021-09-06_17h18.35.300,rantool2,2021.1.4,Win32,60,6135e006383e6ea6c3d06a28,61364d4170302c9d1aa894cc,"[""period""]",0,[0.30000000000001137],61,0,61,0,1
,,,,,,,605b45d13c7c1d03b0acaa3a,,,,,,605b45d13c7c1d03b0acaa3a,Mężczyzna,18,2021-09-06_17h18.35.300,rantool2,2021.1.4,Win32,60,6135e006383e6ea6c3d06a28,61364d4170302c9d1aa894cc,"[""period"",""comma""]",0,"[0.30000000000001137,1.5]",62,0,62,0,1
,,,,,,,605b45d13c7c1d03b0acaa3a,,,,,,605b45d13c7c1d03b0acaa3a,Mężczyzna,18,2021-09-06_17h18.35.300,rantool2,2021.1.4,Win32,60,6135e006383e6ea6c3d06a28,61364d4170302c9d1aa894cc,0,0,,63,0,63,0,1
,,,,,,,605b45d13c7c1d03b0acaa3a,,,,,,605b45d13c7c1d03b0acaa3a,Mężczyzna,18,2021-09-06_17h18.35.300,rantool2,2021.1.4,Win32,60,6135e006383e6ea6c3d06a28,61364d4170302c9d1aa894cc,"[""comma""]",0,[0.19999999999998863],64,0,64,0,1
,,,,,,,605b45d13c7c1d03b0acaa3a,,,,,,605b45d13c7c1d03b0acaa3a,Mężczyzna,18,2021-09-06_17h18.35.300,rantool2,2021.1.4,Win32,60,6135e006383e6ea6c3d06a28,61364d4170302c9d1aa894cc,"[""comma""]",0,[0.19999999999998863],65,0,65,0,1
,,,,,,,605b45d13c7c1d03b0acaa3a,,,,,,605b45d13c7c1d03b0acaa3a,Mężczyzna,18,2021-09-06_17h18.35.300,rantool2,2021.1.4,Win32,60,6135e006383e6ea6c3d06a28,61364d4170302c9d1aa894cc,"[""comma""]",0,[0.19999999999998863],66,0,66,0,1
,,,,,,,605b45d13c7c1d03b0acaa3a,,,,,,605b45d13c7c1d03b0acaa3a,Mężczyzna,18,2021-09-06_17h18.35.300,rantool2,2021.1.4,Win32,60,6135e006383e6ea6c3d06a28,61364d4170302c9d1aa894cc,"[""period""]",0,[0.19999999999998863],67,0,67,0,1
,,,,,,,605b45d13c7c1d03b0acaa3a,,,,,,605b45d13c7c1d03b0acaa3a,Mężczyzna,18,2021-09-06_17h18.35.300,rantool2,2021.1.4,Win32,60,6135e006383e6ea6c3d06a28,61364d4170302c9d1aa894cc,"[""period""]",0,[0.19999999999998863],68,0,68,0,1
,,,,,,,605b45d13c7c1d03b0acaa3a,,,,,,605b45d13c7c1d03b0acaa3a,Mężczyzna,18,2021-09-06_17h18.35.300,rantool2,2021.1.4,Win32,60,6135e006383e6ea6c3d06a28,61364d4170302c9d1aa894cc,"[""period""]",0,[0.19999999999998863],69,0,69,0,1
,,,,,,,605b45d13c7c1d03b0acaa3a,,,,,,605b45d13c7c1d03b0acaa3a,Mężczyzna,18,2021-09-06_17h18.35.300,rantool2,2021.1.4,Win32,60,6135e006383e6ea6c3d06a28,61364d4170302c9d1aa894cc,"[""period""]",0,[0.30000000000001137],70,0,70,0,1
,,,,,,,605b45d13c7c1d03b0acaa3a,,,,,,605b45d13c7c1d03b0acaa3a,Mężczyzna,18,2021-09-06_17h18.35.300,rantool2,2021.1.4,Win32,60,6135e006383e6ea6c3d06a28,61364d4170302c9d1aa894cc,"[""comma"",""period""]",0,"[0.19999999999998863,1.6999999999999886]",71,0,71,0,1
,,,,,,,605b45d13c7c1d03b0acaa3a,,,,,,605b45d13c7c1d03b0acaa3a,Mężczyzna,18,2021-09-06_17h18.35.300,rantool2,2021.1.4,Win32,60,6135e006383e6ea6c3d06a28,61364d4170302c9d1aa894cc,0,0,,72,0,72,0,1
,,,,,,,605b45d13c7c1d03b0acaa3a,,,,,,605b45d13c7c1d03b0acaa3a,Mężczyzna,18,2021-09-06_17h18.35.300,rantool2,2021.1.4,Win32,60,6135e006383e6ea6c3d06a28,61364d4170302c9d1aa894cc,"[""period""]",0,[0.4000000000000341],73,0,73,0,1
,,,,,,,605b45d13c7c1d03b0acaa3a,,,,,,605b45d13c7c1d03b0acaa3a,Mężczyzna,18,2021-09-06_17h18.35.300,rantool2,2021.1.4,Win32,60,6135e006383e6ea6c3d06a28,61364d4170302c9d1aa894cc,"[""period""]",0,[0.30000000000001137],74,0,74,0,1
,,,,,,,605b45d13c7c1d03b0acaa3a,,,,,,605b45d13c7c1d03b0acaa3a,Mężczyzna,18,2021-09-06_17h18.35.300,rantool2,2021.1.4,Win32,60,6135e006383e6ea6c3d06a28,61364d4170302c9d1aa894cc,"[""period""]",0,[0.30000000000001137],75,0,75,0,1
,,,,,,,605b45d13c7c1d03b0acaa3a,,,,,,605b45d13c7c1d03b0acaa3a,Mężczyzna,18,2021-09-06_17h18.35.300,rantool2,2021.1.4,Win32,60,6135e006383e6ea6c3d06a28,61364d4170302c9d1aa894cc,"[""period""]",0,[0.19999999999998863],76,0,76,0,1
,,,,,,,605b45d13c7c1d03b0acaa3a,,,,,,605b45d13c7c1d03b0acaa3a,Mężczyzna,18,2021-09-06_17h18.35.300,rantool2,2021.1.4,Win32,60,6135e006383e6ea6c3d06a28,61364d4170302c9d1aa894cc,"[""comma""]",0,[0.19999999999998863],77,0,77,0,1
,,,,,,,605b45d13c7c1d03b0acaa3a,,,,,,605b45d13c7c1d03b0acaa3a,Mężczyzna,18,2021-09-06_17h18.35.300,rantool2,2021.1.4,Win32,60,6135e006383e6ea6c3d06a28,61364d4170302c9d1aa894cc,"[""comma""]",0,[0.19999999999998863],78,0,78,0,1
,,,,,,,605b45d13c7c1d03b0acaa3a,,,,,,605b45d13c7c1d03b0acaa3a,Mężczyzna,18,2021-09-06_17h18.35.300,rantool2,2021.1.4,Win32,60,6135e006383e6ea6c3d06a28,61364d4170302c9d1aa894cc,"[""comma""]",0,[0.19999999999998863],79,0,79,0,1
,,,,,,,605b45d13c7c1d03b0acaa3a,,,,,,605b45d13c7c1d03b0acaa3a,Mężczyzna,18,2021-09-06_17h18.35.300,rantool2,2021.1.4,Win32,60,6135e006383e6ea6c3d06a28,61364d4170302c9d1aa894cc,"[""period""]",0,[0.19999999999998863],80,0,80,0,1
,,,,,,,605b45d13c7c1d03b0acaa3a,,,,,,605b45d13c7c1d03b0acaa3a,Mężczyzna,18,2021-09-06_17h18.35.300,rantool2,2021.1.4,Win32,60,6135e006383e6ea6c3d06a28,61364d4170302c9d1aa894cc,"[""period""]",0,[0.30000000000001137],81,0,81,0,1
,,,,,,,605b45d13c7c1d03b0acaa3a,,,,,,605b45d13c7c1d03b0acaa3a,Mężczyzna,18,2021-09-06_17h18.35.300,rantool2,2021.1.4,Win32,60,6135e006383e6ea6c3d06a28,61364d4170302c9d1aa894cc,"[""comma""]",0,[0.10000000000002274],82,0,82,0,1
,,,,,,,605b45d13c7c1d03b0acaa3a,,,,,,605b45d13c7c1d03b0acaa3a,Mężczyzna,18,2021-09-06_17h18.35.300,rantool2,2021.1.4,Win32,60,6135e006383e6ea6c3d06a28,61364d4170302c9d1aa894cc,"[""comma""]",0,[0],83,0,83,0,1
,,,,,,,605b45d13c7c1d03b0acaa3a,,,,,,605b45d13c7c1d03b0acaa3a,Mężczyzna,18,2021-09-06_17h18.35.300,rantool2,2021.1.4,Win32,60,6135e006383e6ea6c3d06a28,61364d4170302c9d1aa894cc,"[""period""]",0,[0.10000000000002274],84,0,84,0,1
,,,,,,,605b45d13c7c1d03b0acaa3a,,,,,,605b45d13c7c1d03b0acaa3a,Mężczyzna,18,2021-09-06_17h18.35.300,rantool2,2021.1.4,Win32,60,6135e006383e6ea6c3d06a28,61364d4170302c9d1aa894cc,"[""period""]",0,[0.30000000000001137],85,0,85,0,1
,,,,,,,605b45d13c7c1d03b0acaa3a,,,,,,605b45d13c7c1d03b0acaa3a,Mężczyzna,18,2021-09-06_17h18.35.300,rantool2,2021.1.4,Win32,60,6135e006383e6ea6c3d06a28,61364d4170302c9d1aa894cc,"[""comma""]",0,[0.19999999999998863],86,0,86,0,1
,,,,,,,605b45d13c7c1d03b0acaa3a,,,,,,605b45d13c7c1d03b0acaa3a,Mężczyzna,18,2021-09-06_17h18.35.300,rantool2,2021.1.4,Win32,60,6135e006383e6ea6c3d06a28,61364d4170302c9d1aa894cc,"[""comma""]",0,[0.10000000000002274],87,0,87,0,1
,,,,,,,605b45d13c7c1d03b0acaa3a,,,,,,605b45d13c7c1d03b0acaa3a,Mężczyzna,18,2021-09-06_17h18.35.300,rantool2,2021.1.4,Win32,60,6135e006383e6ea6c3d06a28,61364d4170302c9d1aa894cc,"[""period""]",0,[0.19999999999998863],88,0,88,0,1
,,,,,,,605b45d13c7c1d03b0acaa3a,,,,,,605b45d13c7c1d03b0acaa3a,Mężczyzna,18,2021-09-06_17h18.35.300,rantool2,2021.1.4,Win32,60,6135e006383e6ea6c3d06a28,61364d4170302c9d1aa894cc,"[""period""]",0,[0.30000000000001137],89,0,89,0,1
,,,,,,,605b45d13c7c1d03b0acaa3a,,,,,,605b45d13c7c1d03b0acaa3a,Mężczyzna,18,2021-09-06_17h18.35.300,rantool2,2021.1.4,Win32,60,6135e006383e6ea6c3d06a28,61364d4170302c9d1aa894cc,"[""period""]",0,[0.19999999999998863],90,0,90,0,1
,,,,,,,605b45d13c7c1d03b0acaa3a,,,,,,605b45d13c7c1d03b0acaa3a,Mężczyzna,18,2021-09-06_17h18.35.300,rantool2,2021.1.4,Win32,60,6135e006383e6ea6c3d06a28,61364d4170302c9d1aa894cc,"[""period""]",0,[0.2999999999999545],91,0,91,0,1
,,,,,,,605b45d13c7c1d03b0acaa3a,,,,,,605b45d13c7c1d03b0acaa3a,Mężczyzna,18,2021-09-06_17h18.35.300,rantool2,2021.1.4,Win32,60,6135e006383e6ea6c3d06a28,61364d4170302c9d1aa894cc,"[""comma""]",0,[0.1999999999999318],92,0,92,0,1
,,,,,,,605b45d13c7c1d03b0acaa3a,,,,,,605b45d13c7c1d03b0acaa3a,Mężczyzna,18,2021-09-06_17h18.35.300,rantool2,2021.1.4,Win32,60,6135e006383e6ea6c3d06a28,61364d4170302c9d1aa894cc,"[""comma""]",0,[0.39999999999997726],93,0,93,0,1
,,,,,,,605b45d13c7c1d03b0acaa3a,,,,,,605b45d13c7c1d03b0acaa3a,Mężczyzna,18,2021-09-06_17h18.35.300,rantool2,2021.1.4,Win32,60,6135e006383e6ea6c3d06a28,61364d4170302c9d1aa894cc,"[""comma""]",0,[0.2999999999999545],94,0,94,0,1
,,,,,,,605b45d13c7c1d03b0acaa3a,,,,,,605b45d13c7c1d03b0acaa3a,Mężczyzna,18,2021-09-06_17h18.35.300,rantool2,2021.1.4,Win32,60,6135e006383e6ea6c3d06a28,61364d4170302c9d1aa894cc,"[""period""]",0,[0.2999999999999545],95,0,95,0,1
,,,,,,,605b45d13c7c1d03b0acaa3a,,,,,,605b45d13c7c1d03b0acaa3a,Mężczyzna,18,2021-09-06_17h18.35.300,rantool2,2021.1.4,Win32,60,6135e006383e6ea6c3d06a28,61364d4170302c9d1aa894cc,"[""comma""]",0,[0.1999999999999318],96,0,96,0,1
,,,,,,,605b45d13c7c1d03b0acaa3a,,,,,,605b45d13c7c1d03b0acaa3a,Mężczyzna,18,2021-09-06_17h18.35.300,rantool2,2021.1.4,Win32,60,6135e006383e6ea6c3d06a28,61364d4170302c9d1aa894cc,"[""period""]",0,[0.1999999999999318],97,0,97,0,1
,,,,,,,605b45d13c7c1d03b0acaa3a,,,,,,605b45d13c7c1d03b0acaa3a,Mężczyzna,18,2021-09-06_17h18.35.300,rantool2,2021.1.4,Win32,60,6135e006383e6ea6c3d06a28,61364d4170302c9d1aa894cc,"[""period""]",0,[0.1999999999999318],98,0,98,0,1
,,,,,,,605b45d13c7c1d03b0acaa3a,,,,,,605b45d13c7c1d03b0acaa3a,Mężczyzna,18,2021-09-06_17h18.35.300,rantool2,2021.1.4,Win32,60,6135e006383e6ea6c3d06a28,61364d4170302c9d1aa894cc,"[""comma""]",0,[0],99,0,99,0,1
,,,,,,,605b45d13c7c1d03b0acaa3a,,,,,,605b45d13c7c1d03b0acaa3a,Mężczyzna,18,2021-09-06_17h18.35.300,rantool2,2021.1.4,Win32,60,6135e006383e6ea6c3d06a28,61364d4170302c9d1aa894cc,"[""comma""]",0,[0.10000000000002274],100,0,100,0,1
,,,,,,,605b45d13c7c1d03b0acaa3a,,,,,,605b45d13c7c1d03b0acaa3a,Mężczyzna,18,2021-09-06_17h18.35.300,rantool2,2021.1.4,Win32,60,6135e006383e6ea6c3d06a28,61364d4170302c9d1aa894cc,"[""comma"",""comma""]",0,"[0.09999999999990905,1.8999999999999773]",101,0,101,0,1
,,,,,,,605b45d13c7c1d03b0acaa3a,,,,,,605b45d13c7c1d03b0acaa3a,Mężczyzna,18,2021-09-06_17h18.35.300,rantool2,2021.1.4,Win32,60,6135e006383e6ea6c3d06a28,61364d4170302c9d1aa894cc,0,0,,102,0,102,0,1
,,,,,,,605b45d13c7c1d03b0acaa3a,,,,,,605b45d13c7c1d03b0acaa3a,Mężczyzna,18,2021-09-06_17h18.35.300,rantool2,2021.1.4,Win32,60,6135e006383e6ea6c3d06a28,61364d4170302c9d1aa894cc,"[""period""]",0,[0.2999999999999545],103,0,103,0,1
,,,,,,,605b45d13c7c1d03b0acaa3a,,,,,,605b45d13c7c1d03b0acaa3a,Mężczyzna,18,2021-09-06_17h18.35.300,rantool2,2021.1.4,Win32,60,6135e006383e6ea6c3d06a28,61364d4170302c9d1aa894cc,"[""period""]",0,[0.1999999999999318],104,0,104,0,1
,,,,,,,605b45d13c7c1d03b0acaa3a,,,,,,605b45d13c7c1d03b0acaa3a,Mężczyzna,18,2021-09-06_17h18.35.300,rantool2,2021.1.4,Win32,60,6135e006383e6ea6c3d06a28,61364d4170302c9d1aa894cc,"[""period""]",0,[0.5],105,0,105,0,1
,,,,,,,605b45d13c7c1d03b0acaa3a,,,,,,605b45d13c7c1d03b0acaa3a,Mężczyzna,18,2021-09-06_17h18.35.300,rantool2,2021.1.4,Win32,60,6135e006383e6ea6c3d06a28,61364d4170302c9d1aa894cc,"[""period""]",0,[0.8999999999999773],106,0,106,0,1
,,,,,,,605b45d13c7c1d03b0acaa3a,,,,,,605b45d13c7c1d03b0acaa3a,Mężczyzna,18,2021-09-06_17h18.35.300,rantool2,2021.1.4,Win32,60,6135e006383e6ea6c3d06a28,61364d4170302c9d1aa894cc,"[""period""]",0,[0.39999999999997726],107,0,107,0,1
,,,,,,,605b45d13c7c1d03b0acaa3a,,,,,,605b45d13c7c1d03b0acaa3a,Mężczyzna,18,2021-09-06_17h18.35.300,rantool2,2021.1.4,Win32,60,6135e006383e6ea6c3d06a28,61364d4170302c9d1aa894cc,"[""comma""]",0,[0.2999999999999545],108,0,108,0,1
,,,,,,,605b45d13c7c1d03b0acaa3a,,,,,,605b45d13c7c1d03b0acaa3a,Mężczyzna,18,2021-09-06_17h18.35.300,rantool2,2021.1.4,Win32,60,6135e006383e6ea6c3d06a28,61364d4170302c9d1aa894cc,"[""comma""]",0,[0.2999999999999545],109,0,109,0,1
,,,,,,,605b45d13c7c1d03b0acaa3a,,,,,,605b45d13c7c1d03b0acaa3a,Mężczyzna,18,2021-09-06_17h18.35.300,rantool2,2021.1.4,Win32,60,6135e006383e6ea6c3d06a28,61364d4170302c9d1aa894cc,"[""comma""]",0,[0.1999999999999318],110,0,110,0,1
,,,,,,,605b45d13c7c1d03b0acaa3a,,,,,,605b45d13c7c1d03b0acaa3a,Mężczyzna,18,2021-09-06_17h18.35.300,rantool2,2021.1.4,Win32,60,6135e006383e6ea6c3d06a28,61364d4170302c9d1aa894cc,"[""comma""]",0,[0.1999999999999318],111,0,111,0,1
,,,,,,,605b45d13c7c1d03b0acaa3a,,,,,,605b45d13c7c1d03b0acaa3a,Mężczyzna,18,2021-09-06_17h18.35.300,rantool2,2021.1.4,Win32,60,6135e006383e6ea6c3d06a28,61364d4170302c9d1aa894cc,"[""comma""]",0,[0.5],112,0,112,0,1
,,,,,,,605b45d13c7c1d03b0acaa3a,,,,,,605b45d13c7c1d03b0acaa3a,Mężczyzna,18,2021-09-06_17h18.35.300,rantool2,2021.1.4,Win32,60,6135e006383e6ea6c3d06a28,61364d4170302c9d1aa894cc,"[""comma""]",0,[0.1999999999999318],113,0,113,0,1
,,,,,,,605b45d13c7c1d03b0acaa3a,,,,,,605b45d13c7c1d03b0acaa3a,Mężczyzna,18,2021-09-06_17h18.35.300,rantool2,2021.1.4,Win32,60,6135e006383e6ea6c3d06a28,61364d4170302c9d1aa894cc,"[""period"",""comma""]",0,"[0.09999999999990905,1.8999999999999773]",114,0,114,0,1
,,,,,,,605b45d13c7c1d03b0acaa3a,,,,,,605b45d13c7c1d03b0acaa3a,Mężczyzna,18,2021-09-06_17h18.35.300,rantool2,2021.1.4,Win32,60,6135e006383e6ea6c3d06a28,61364d4170302c9d1aa894cc,0,0,,115,0,115,0,1
,,,,,,,605b45d13c7c1d03b0acaa3a,,,,,,605b45d13c7c1d03b0acaa3a,Mężczyzna,18,2021-09-06_17h18.35.300,rantool2,2021.1.4,Win32,60,6135e006383e6ea6c3d06a28,61364d4170302c9d1aa894cc,"[""comma""]",0,[0.1999999999999318],116,0,116,0,1
,,,,,,,605b45d13c7c1d03b0acaa3a,,,,,,605b45d13c7c1d03b0acaa3a,Mężczyzna,18,2021-09-06_17h18.35.300,rantool2,2021.1.4,Win32,60,6135e006383e6ea6c3d06a28,61364d4170302c9d1aa894cc,"[""comma""]",0,[0.1999999999999318],117,0,117,0,1
,,,,,,,605b45d13c7c1d03b0acaa3a,,,,,,605b45d13c7c1d03b0acaa3a,Mężczyzna,18,2021-09-06_17h18.35.300,rantool2,2021.1.4,Win32,60,6135e006383e6ea6c3d06a28,61364d4170302c9d1aa894cc,"[""comma""]",0,[0.09999999999990905],118,0,118,0,1
,,,,,,,605b45d13c7c1d03b0acaa3a,,,,,,605b45d13c7c1d03b0acaa3a,Mężczyzna,18,2021-09-06_17h18.35.300,rantool2,2021.1.4,Win32,60,6135e006383e6ea6c3d06a28,61364d4170302c9d1aa894cc,"[""period""]",0,[0.1999999999999318],119,0,119,0,1
