key_resp_7.keys,key_resp_7.rt,trials_2.thisRepN,trials_2.thisTrialN,trials_2.thisN,trials_2.thisIndex,trials_2.ran,id,series_0,series_1,acss_0,acss_1,comparison,id*,Płeć*,Wiek*,date,expName,psychopyVersion,OS,frameRate,STUDY_ID,SESSION_ID,key_resp_5.keys,key_resp_5.corr,key_resp_5.rt,trials.thisRepN,trials.thisTrialN,trials.thisN,trials.thisIndex,trials.ran
j,3.6829,0,0,0,1,1,612d4424c05bbeb681896f12,OOOOORO,OOOOORR,19.92253567,20.74050628,series_1,612d4424c05bbeb681896f12,Mężczyzna,28,2021-09-06_19h16.20.748,rantool2,2021.1.4,Win32,60.21194605,6135e006383e6ea6c3d06a28,61364cce22c5e699fb1f743d,,,,,,,,
f,3.1727,0,1,1,16,1,612d4424c05bbeb681896f12,OROOOOO,OROOOOR,20.43051175,21.17347734,series_1,612d4424c05bbeb681896f12,Mężczyzna,28,2021-09-06_19h16.20.748,rantool2,2021.1.4,Win32,60.21194605,6135e006383e6ea6c3d06a28,61364cce22c5e699fb1f743d,,,,,,,,
f,3.4028,0,2,2,57,1,612d4424c05bbeb681896f12,RRROORO,RRROORR,21.82425538,22.07102821,series_1,612d4424c05bbeb681896f12,Mężczyzna,28,2021-09-06_19h16.20.748,rantool2,2021.1.4,Win32,60.21194605,6135e006383e6ea6c3d06a28,61364cce22c5e699fb1f743d,,,,,,,,
j,2.3658,0,3,3,45,1,612d4424c05bbeb681896f12,RORRORO,RORRORR,20.78182524,21.22513037,series_1,612d4424c05bbeb681896f12,Mężczyzna,28,2021-09-06_19h16.20.748,rantool2,2021.1.4,Win32,60.21194605,6135e006383e6ea6c3d06a28,61364cce22c5e699fb1f743d,,,,,,,,
j,2.5227,0,4,4,32,1,612d4424c05bbeb681896f12,ROOOOOO,ROOOOOR,19.92253567,21.27974287,series_1,612d4424c05bbeb681896f12,Mężczyzna,28,2021-09-06_19h16.20.748,rantool2,2021.1.4,Win32,60.21194605,6135e006383e6ea6c3d06a28,61364cce22c5e699fb1f743d,,,,,,,,
f,3.2861,0,5,5,31,1,612d4424c05bbeb681896f12,ORRRRRO,ORRRRRR,22.16413392,20.74050628,series_0,612d4424c05bbeb681896f12,Mężczyzna,28,2021-09-06_19h16.20.748,rantool2,2021.1.4,Win32,60.21194605,6135e006383e6ea6c3d06a28,61364cce22c5e699fb1f743d,,,,,,,,
j,4.1965,0,6,6,38,1,612d4424c05bbeb681896f12,ROORROO,ROORROR,21.79500819,21.36812781,series_0,612d4424c05bbeb681896f12,Mężczyzna,28,2021-09-06_19h16.20.748,rantool2,2021.1.4,Win32,60.21194605,6135e006383e6ea6c3d06a28,61364cce22c5e699fb1f743d,,,,,,,,
j,3.953,0,7,7,63,1,612d4424c05bbeb681896f12,RRRRRRO,RRRRRRR,21.35278725,19.62521613,series_0,612d4424c05bbeb681896f12,Mężczyzna,28,2021-09-06_19h16.20.748,rantool2,2021.1.4,Win32,60.21194605,6135e006383e6ea6c3d06a28,61364cce22c5e699fb1f743d,,,,,,,,
f,3.2052,0,8,8,37,1,612d4424c05bbeb681896f12,ROORORO,ROORORR,20.42602454,21.57657071,series_1,612d4424c05bbeb681896f12,Mężczyzna,28,2021-09-06_19h16.20.748,rantool2,2021.1.4,Win32,60.21194605,6135e006383e6ea6c3d06a28,61364cce22c5e699fb1f743d,,,,,,,,
f,3.9799,0,9,9,59,1,612d4424c05bbeb681896f12,RRRORRO,RRRORRR,21.56657303,20.89823192,series_0,612d4424c05bbeb681896f12,Mężczyzna,28,2021-09-06_19h16.20.748,rantool2,2021.1.4,Win32,60.21194605,6135e006383e6ea6c3d06a28,61364cce22c5e699fb1f743d,,,,,,,,
j,2.9744,0,10,10,51,1,612d4424c05bbeb681896f12,RROORRO,RROORRR,21.89852628,22.02786418,series_1,612d4424c05bbeb681896f12,Mężczyzna,28,2021-09-06_19h16.20.748,rantool2,2021.1.4,Win32,60.21194605,6135e006383e6ea6c3d06a28,61364cce22c5e699fb1f743d,,,,,,,,
f,4.0115,0,11,11,50,1,612d4424c05bbeb681896f12,RROOROO,RROOROR,21.73568164,22.02566557,series_1,612d4424c05bbeb681896f12,Mężczyzna,28,2021-09-06_19h16.20.748,rantool2,2021.1.4,Win32,60.21194605,6135e006383e6ea6c3d06a28,61364cce22c5e699fb1f743d,,,,,,,,
j,2.2782,0,12,12,7,1,612d4424c05bbeb681896f12,OOORRRO,OOORRRR,21.6194508,21.899017,series_1,612d4424c05bbeb681896f12,Mężczyzna,28,2021-09-06_19h16.20.748,rantool2,2021.1.4,Win32,60.21194605,6135e006383e6ea6c3d06a28,61364cce22c5e699fb1f743d,,,,,,,,
f,2.3283,0,13,13,49,1,612d4424c05bbeb681896f12,RROOORO,RROOORR,21.76276513,22.53364006,series_1,612d4424c05bbeb681896f12,Mężczyzna,28,2021-09-06_19h16.20.748,rantool2,2021.1.4,Win32,60.21194605,6135e006383e6ea6c3d06a28,61364cce22c5e699fb1f743d,,,,,,,,
f,2.121,0,14,14,60,1,612d4424c05bbeb681896f12,RRRROOO,RRRROOR,22.10108823,22.15934078,series_1,612d4424c05bbeb681896f12,Mężczyzna,28,2021-09-06_19h16.20.748,rantool2,2021.1.4,Win32,60.21194605,6135e006383e6ea6c3d06a28,61364cce22c5e699fb1f743d,,,,,,,,
j,2.0742,0,15,15,44,1,612d4424c05bbeb681896f12,RORROOO,RORROOR,21.66733484,22.02566557,series_1,612d4424c05bbeb681896f12,Mężczyzna,28,2021-09-06_19h16.20.748,rantool2,2021.1.4,Win32,60.21194605,6135e006383e6ea6c3d06a28,61364cce22c5e699fb1f743d,,,,,,,,
j,2.1084,0,16,16,40,1,612d4424c05bbeb681896f12,ROROOOO,ROROOOR,20.87963819,21.37121559,series_1,612d4424c05bbeb681896f12,Mężczyzna,28,2021-09-06_19h16.20.748,rantool2,2021.1.4,Win32,60.21194605,6135e006383e6ea6c3d06a28,61364cce22c5e699fb1f743d,,,,,,,,
f,2.4043,0,17,17,0,1,612d4424c05bbeb681896f12,OOOOOOO,OOOOOOR,18.52739004,19.62521613,series_1,612d4424c05bbeb681896f12,Mężczyzna,28,2021-09-06_19h16.20.748,rantool2,2021.1.4,Win32,60.21194605,6135e006383e6ea6c3d06a28,61364cce22c5e699fb1f743d,,,,,,,,
j,3.1783,0,18,18,47,1,612d4424c05bbeb681896f12,RORRRRO,RORRRRR,21.81333602,21.02936224,series_0,612d4424c05bbeb681896f12,Mężczyzna,28,2021-09-06_19h16.20.748,rantool2,2021.1.4,Win32,60.21194605,6135e006383e6ea6c3d06a28,61364cce22c5e699fb1f743d,,,,,,,,
j,2.203,0,19,19,35,1,612d4424c05bbeb681896f12,ROOORRO,ROOORRR,21.76276513,22.16977179,series_1,612d4424c05bbeb681896f12,Mężczyzna,28,2021-09-06_19h16.20.748,rantool2,2021.1.4,Win32,60.21194605,6135e006383e6ea6c3d06a28,61364cce22c5e699fb1f743d,,,,,,,,
f,3.1068,0,20,20,55,1,612d4424c05bbeb681896f12,RRORRRO,RRORRRR,21.56657303,21.21223021,series_0,612d4424c05bbeb681896f12,Mężczyzna,28,2021-09-06_19h16.20.748,rantool2,2021.1.4,Win32,60.21194605,6135e006383e6ea6c3d06a28,61364cce22c5e699fb1f743d,,,,,,,,
f,2.1872,0,21,21,23,1,612d4424c05bbeb681896f12,ORORRRO,ORORRRR,22.1285618,21.9921709,series_0,612d4424c05bbeb681896f12,Mężczyzna,28,2021-09-06_19h16.20.748,rantool2,2021.1.4,Win32,60.21194605,6135e006383e6ea6c3d06a28,61364cce22c5e699fb1f743d,,,,,,,,
j,1.8522,0,22,22,10,1,612d4424c05bbeb681896f12,OOROROO,OOROROR,21.31236711,21.07490964,series_0,612d4424c05bbeb681896f12,Mężczyzna,28,2021-09-06_19h16.20.748,rantool2,2021.1.4,Win32,60.21194605,6135e006383e6ea6c3d06a28,61364cce22c5e699fb1f743d,,,,,,,,
f,1.9638,0,23,23,61,1,612d4424c05bbeb681896f12,RRRRORO,RRRRORR,21.81333602,21.17347734,series_0,612d4424c05bbeb681896f12,Mężczyzna,28,2021-09-06_19h16.20.748,rantool2,2021.1.4,Win32,60.21194605,6135e006383e6ea6c3d06a28,61364cce22c5e699fb1f743d,,,,,,,,
f,2.1722,0,24,24,13,1,612d4424c05bbeb681896f12,OORRORO,OORRORR,21.66733484,22.11181017,series_1,612d4424c05bbeb681896f12,Mężczyzna,28,2021-09-06_19h16.20.748,rantool2,2021.1.4,Win32,60.21194605,6135e006383e6ea6c3d06a28,61364cce22c5e699fb1f743d,,,,,,,,
j,1.8534,0,25,25,20,1,612d4424c05bbeb681896f12,OROROOO,OROROOR,21.31236711,21.90565814,series_1,612d4424c05bbeb681896f12,Mężczyzna,28,2021-09-06_19h16.20.748,rantool2,2021.1.4,Win32,60.21194605,6135e006383e6ea6c3d06a28,61364cce22c5e699fb1f743d,,,,,,,,
f,1.6768,0,26,26,15,1,612d4424c05bbeb681896f12,OORRRRO,OORRRRR,22.10108823,21.74922619,series_0,612d4424c05bbeb681896f12,Mężczyzna,28,2021-09-06_19h16.20.748,rantool2,2021.1.4,Win32,60.21194605,6135e006383e6ea6c3d06a28,61364cce22c5e699fb1f743d,,,,,,,,
f,2.8947,0,27,27,4,1,612d4424c05bbeb681896f12,OOOROOO,OOOROOR,19.91402015,21.21223021,series_1,612d4424c05bbeb681896f12,Mężczyzna,28,2021-09-06_19h16.20.748,rantool2,2021.1.4,Win32,60.21194605,6135e006383e6ea6c3d06a28,61364cce22c5e699fb1f743d,,,,,,,,
j,4.0405,0,28,28,62,1,612d4424c05bbeb681896f12,RRRRROO,RRRRROR,22.16413392,21.27974287,series_0,612d4424c05bbeb681896f12,Mężczyzna,28,2021-09-06_19h16.20.748,rantool2,2021.1.4,Win32,60.21194605,6135e006383e6ea6c3d06a28,61364cce22c5e699fb1f743d,,,,,,,,
f,2.6242,0,29,29,5,1,612d4424c05bbeb681896f12,OOORORO,OOORORR,20.87963819,21.9921709,series_1,612d4424c05bbeb681896f12,Mężczyzna,28,2021-09-06_19h16.20.748,rantool2,2021.1.4,Win32,60.21194605,6135e006383e6ea6c3d06a28,61364cce22c5e699fb1f743d,,,,,,,,
j,1.7896,0,30,30,18,1,612d4424c05bbeb681896f12,OROOROO,OROOROR,20.84860893,21.22513037,series_1,612d4424c05bbeb681896f12,Mężczyzna,28,2021-09-06_19h16.20.748,rantool2,2021.1.4,Win32,60.21194605,6135e006383e6ea6c3d06a28,61364cce22c5e699fb1f743d,,,,,,,,
j,3.3569,0,31,31,54,1,612d4424c05bbeb681896f12,RRORROO,RRORROR,21.55250791,20.9984461,series_0,612d4424c05bbeb681896f12,Mężczyzna,28,2021-09-06_19h16.20.748,rantool2,2021.1.4,Win32,60.21194605,6135e006383e6ea6c3d06a28,61364cce22c5e699fb1f743d,,,,,,,,
f,1.5707,0,32,32,11,1,612d4424c05bbeb681896f12,OORORRO,OORORRR,22.18365867,22.6797523,series_1,612d4424c05bbeb681896f12,Mężczyzna,28,2021-09-06_19h16.20.748,rantool2,2021.1.4,Win32,60.21194605,6135e006383e6ea6c3d06a28,61364cce22c5e699fb1f743d,,,,,,,,
j,1.5698,0,33,33,43,1,612d4424c05bbeb681896f12,RORORRO,RORORRR,20.71309134,21.07490964,series_1,612d4424c05bbeb681896f12,Mężczyzna,28,2021-09-06_19h16.20.748,rantool2,2021.1.4,Win32,60.21194605,6135e006383e6ea6c3d06a28,61364cce22c5e699fb1f743d,,,,,,,,
f,3.0945,0,34,34,52,1,612d4424c05bbeb681896f12,RROROOO,RROROOR,22.18365867,22.11097995,series_0,612d4424c05bbeb681896f12,Mężczyzna,28,2021-09-06_19h16.20.748,rantool2,2021.1.4,Win32,60.21194605,6135e006383e6ea6c3d06a28,61364cce22c5e699fb1f743d,,,,,,,,
j,2.3764,0,35,35,53,1,612d4424c05bbeb681896f12,RRORORO,RRORORR,20.71309134,21.90565814,series_1,612d4424c05bbeb681896f12,Mężczyzna,28,2021-09-06_19h16.20.748,rantool2,2021.1.4,Win32,60.21194605,6135e006383e6ea6c3d06a28,61364cce22c5e699fb1f743d,,,,,,,,
f,1.8623,0,36,36,41,1,612d4424c05bbeb681896f12,ROROORO,ROROORR,20.42602454,21.71443381,series_1,612d4424c05bbeb681896f12,Mężczyzna,28,2021-09-06_19h16.20.748,rantool2,2021.1.4,Win32,60.21194605,6135e006383e6ea6c3d06a28,61364cce22c5e699fb1f743d,,,,,,,,
j,1.3133,0,37,37,48,1,612d4424c05bbeb681896f12,RROOOOO,RROOOOR,20.90986523,22.15934078,series_1,612d4424c05bbeb681896f12,Mężczyzna,28,2021-09-06_19h16.20.748,rantool2,2021.1.4,Win32,60.21194605,6135e006383e6ea6c3d06a28,61364cce22c5e699fb1f743d,,,,,,,,
f,2.0533,0,38,38,30,1,612d4424c05bbeb681896f12,ORRRROO,ORRRROR,22.46748491,22.03072203,series_0,612d4424c05bbeb681896f12,Mężczyzna,28,2021-09-06_19h16.20.748,rantool2,2021.1.4,Win32,60.21194605,6135e006383e6ea6c3d06a28,61364cce22c5e699fb1f743d,,,,,,,,
j,1.7756,0,39,39,36,1,612d4424c05bbeb681896f12,ROOROOO,ROOROOR,21.07991943,20.9984461,series_0,612d4424c05bbeb681896f12,Mężczyzna,28,2021-09-06_19h16.20.748,rantool2,2021.1.4,Win32,60.21194605,6135e006383e6ea6c3d06a28,61364cce22c5e699fb1f743d,,,,,,,,
f,2.6043,0,40,40,3,1,612d4424c05bbeb681896f12,OOOORRO,OOOORRR,20.90986523,21.74922619,series_1,612d4424c05bbeb681896f12,Mężczyzna,28,2021-09-06_19h16.20.748,rantool2,2021.1.4,Win32,60.21194605,6135e006383e6ea6c3d06a28,61364cce22c5e699fb1f743d,,,,,,,,
j,1.9692,0,41,41,46,1,612d4424c05bbeb681896f12,RORRROO,RORRROR,22.00300695,21.24781509,series_0,612d4424c05bbeb681896f12,Mężczyzna,28,2021-09-06_19h16.20.748,rantool2,2021.1.4,Win32,60.21194605,6135e006383e6ea6c3d06a28,61364cce22c5e699fb1f743d,,,,,,,,
f,2.0797,0,42,42,12,1,612d4424c05bbeb681896f12,OORROOO,OORROOR,21.30250474,22.02786418,series_1,612d4424c05bbeb681896f12,Mężczyzna,28,2021-09-06_19h16.20.748,rantool2,2021.1.4,Win32,60.21194605,6135e006383e6ea6c3d06a28,61364cce22c5e699fb1f743d,,,,,,,,
j,1.8266,0,43,43,28,1,612d4424c05bbeb681896f12,ORRROOO,ORRROOR,22.24142883,22.53364006,series_1,612d4424c05bbeb681896f12,Mężczyzna,28,2021-09-06_19h16.20.748,rantool2,2021.1.4,Win32,60.21194605,6135e006383e6ea6c3d06a28,61364cce22c5e699fb1f743d,,,,,,,,
j,2.2289,0,44,44,39,1,612d4424c05bbeb681896f12,ROORRRO,ROORRRR,21.82425538,21.38562617,series_0,612d4424c05bbeb681896f12,Mężczyzna,28,2021-09-06_19h16.20.748,rantool2,2021.1.4,Win32,60.21194605,6135e006383e6ea6c3d06a28,61364cce22c5e699fb1f743d,,,,,,,,
j,2.8209,0,45,45,26,1,612d4424c05bbeb681896f12,ORROROO,ORROROR,22.02732763,21.71443381,series_0,612d4424c05bbeb681896f12,Mężczyzna,28,2021-09-06_19h16.20.748,rantool2,2021.1.4,Win32,60.21194605,6135e006383e6ea6c3d06a28,61364cce22c5e699fb1f743d,,,,,,,,
f,2.0131,0,46,46,22,1,612d4424c05bbeb681896f12,ORORROO,ORORROR,22.02732763,21.57657071,series_0,612d4424c05bbeb681896f12,Mężczyzna,28,2021-09-06_19h16.20.748,rantool2,2021.1.4,Win32,60.21194605,6135e006383e6ea6c3d06a28,61364cce22c5e699fb1f743d,,,,,,,,
f,3.5307,0,47,47,29,1,612d4424c05bbeb681896f12,ORRRORO,ORRRORR,22.00300695,22.12173012,series_1,612d4424c05bbeb681896f12,Mężczyzna,28,2021-09-06_19h16.20.748,rantool2,2021.1.4,Win32,60.21194605,6135e006383e6ea6c3d06a28,61364cce22c5e699fb1f743d,,,,,,,,
j,2.8201,0,48,48,58,1,612d4424c05bbeb681896f12,RRROROO,RRROROR,22.1285618,21.37121559,series_0,612d4424c05bbeb681896f12,Mężczyzna,28,2021-09-06_19h16.20.748,rantool2,2021.1.4,Win32,60.21194605,6135e006383e6ea6c3d06a28,61364cce22c5e699fb1f743d,,,,,,,,
f,2.3205,0,49,49,33,1,612d4424c05bbeb681896f12,ROOOORO,ROOOORR,20.83779602,22.03072203,series_1,612d4424c05bbeb681896f12,Mężczyzna,28,2021-09-06_19h16.20.748,rantool2,2021.1.4,Win32,60.21194605,6135e006383e6ea6c3d06a28,61364cce22c5e699fb1f743d,,,,,,,,
j,1.9748,0,50,50,19,1,612d4424c05bbeb681896f12,OROORRO,OROORRR,21.73568164,22.11181017,series_1,612d4424c05bbeb681896f12,Mężczyzna,28,2021-09-06_19h16.20.748,rantool2,2021.1.4,Win32,60.21194605,6135e006383e6ea6c3d06a28,61364cce22c5e699fb1f743d,,,,,,,,
j,2.5523,0,51,51,21,1,612d4424c05bbeb681896f12,ORORORO,ORORORR,20.39515459,22.06781359,series_1,612d4424c05bbeb681896f12,Mężczyzna,28,2021-09-06_19h16.20.748,rantool2,2021.1.4,Win32,60.21194605,6135e006383e6ea6c3d06a28,61364cce22c5e699fb1f743d,,,,,,,,
j,3.758,0,52,52,25,1,612d4424c05bbeb681896f12,ORROORO,ORROORR,21.79500819,22.61624387,series_1,612d4424c05bbeb681896f12,Mężczyzna,28,2021-09-06_19h16.20.748,rantool2,2021.1.4,Win32,60.21194605,6135e006383e6ea6c3d06a28,61364cce22c5e699fb1f743d,,,,,,,,
,,0,53,53,56,1,612d4424c05bbeb681896f12,RRROOOO,RRROOOR,21.6194508,22.31681875,series_1,612d4424c05bbeb681896f12,Mężczyzna,28,2021-09-06_19h16.20.748,rantool2,2021.1.4,Win32,60.21194605,6135e006383e6ea6c3d06a28,61364cce22c5e699fb1f743d,,,,,,,,
j,1.2497,0,54,54,24,1,612d4424c05bbeb681896f12,ORROOOO,ORROOOR,21.12383932,22.07102821,series_1,612d4424c05bbeb681896f12,Mężczyzna,28,2021-09-06_19h16.20.748,rantool2,2021.1.4,Win32,60.21194605,6135e006383e6ea6c3d06a28,61364cce22c5e699fb1f743d,,,,,,,,
f,2.6525,0,55,55,2,1,612d4424c05bbeb681896f12,OOOOROO,OOOOROR,20.43051175,21.02936224,series_1,612d4424c05bbeb681896f12,Mężczyzna,28,2021-09-06_19h16.20.748,rantool2,2021.1.4,Win32,60.21194605,6135e006383e6ea6c3d06a28,61364cce22c5e699fb1f743d,,,,,,,,
j,2.1521,0,56,56,42,1,612d4424c05bbeb681896f12,ROROROO,ROROROR,20.39515459,19.8361834,series_0,612d4424c05bbeb681896f12,Mężczyzna,28,2021-09-06_19h16.20.748,rantool2,2021.1.4,Win32,60.21194605,6135e006383e6ea6c3d06a28,61364cce22c5e699fb1f743d,,,,,,,,
f,1.9353,0,57,57,34,1,612d4424c05bbeb681896f12,ROOOROO,ROOOROR,21.03750787,21.24781509,series_1,612d4424c05bbeb681896f12,Mężczyzna,28,2021-09-06_19h16.20.748,rantool2,2021.1.4,Win32,60.21194605,6135e006383e6ea6c3d06a28,61364cce22c5e699fb1f743d,,,,,,,,
j,1.0178,0,58,58,6,1,612d4424c05bbeb681896f12,OOORROO,OOORROR,21.12383932,21.38562617,series_1,612d4424c05bbeb681896f12,Mężczyzna,28,2021-09-06_19h16.20.748,rantool2,2021.1.4,Win32,60.21194605,6135e006383e6ea6c3d06a28,61364cce22c5e699fb1f743d,,,,,,,,
j,1.8016,0,59,59,9,1,612d4424c05bbeb681896f12,OOROORO,OOROORR,21.07991943,22.2428857,series_1,612d4424c05bbeb681896f12,Mężczyzna,28,2021-09-06_19h16.20.748,rantool2,2021.1.4,Win32,60.21194605,6135e006383e6ea6c3d06a28,61364cce22c5e699fb1f743d,,,,,,,,
f,1.7516,0,60,60,17,1,612d4424c05bbeb681896f12,OROOORO,OROOORR,21.03750787,22.12173012,series_1,612d4424c05bbeb681896f12,Mężczyzna,28,2021-09-06_19h16.20.748,rantool2,2021.1.4,Win32,60.21194605,6135e006383e6ea6c3d06a28,61364cce22c5e699fb1f743d,,,,,,,,
j,2.1187,0,61,61,8,1,612d4424c05bbeb681896f12,OOROOOO,OOROOOR,19.91402015,20.89823192,series_1,612d4424c05bbeb681896f12,Mężczyzna,28,2021-09-06_19h16.20.748,rantool2,2021.1.4,Win32,60.21194605,6135e006383e6ea6c3d06a28,61364cce22c5e699fb1f743d,,,,,,,,
f,2.1025,0,62,62,27,1,612d4424c05bbeb681896f12,ORRORRO,ORRORRR,21.55250791,22.2428857,series_1,612d4424c05bbeb681896f12,Mężczyzna,28,2021-09-06_19h16.20.748,rantool2,2021.1.4,Win32,60.21194605,6135e006383e6ea6c3d06a28,61364cce22c5e699fb1f743d,,,,,,,,
j,2.2512,0,63,63,14,1,612d4424c05bbeb681896f12,OORRROO,OORRROR,22.24142883,22.16977179,series_0,612d4424c05bbeb681896f12,Mężczyzna,28,2021-09-06_19h16.20.748,rantool2,2021.1.4,Win32,60.21194605,6135e006383e6ea6c3d06a28,61364cce22c5e699fb1f743d,,,,,,,,
,,,,,,,612d4424c05bbeb681896f12,,,,,,612d4424c05bbeb681896f12,Mężczyzna,28,2021-09-06_19h16.20.748,rantool2,2021.1.4,Win32,60.21194605,6135e006383e6ea6c3d06a28,61364cce22c5e699fb1f743d,"[""period""]",0,[0.7377000000477096],0,0,0,0,1
,,,,,,,612d4424c05bbeb681896f12,,,,,,612d4424c05bbeb681896f12,Mężczyzna,28,2021-09-06_19h16.20.748,rantool2,2021.1.4,Win32,60.21194605,6135e006383e6ea6c3d06a28,61364cce22c5e699fb1f743d,"[""comma""]",0,[0.6310999999046203],1,0,1,0,1
,,,,,,,612d4424c05bbeb681896f12,,,,,,612d4424c05bbeb681896f12,Mężczyzna,28,2021-09-06_19h16.20.748,rantool2,2021.1.4,Win32,60.21194605,6135e006383e6ea6c3d06a28,61364cce22c5e699fb1f743d,"[""comma""]",0,[0.43580000007153785],2,0,2,0,1
,,,,,,,612d4424c05bbeb681896f12,,,,,,612d4424c05bbeb681896f12,Mężczyzna,28,2021-09-06_19h16.20.748,rantool2,2021.1.4,Win32,60.21194605,6135e006383e6ea6c3d06a28,61364cce22c5e699fb1f743d,"[""period""]",0,[0.6904999999999859],3,0,3,0,1
,,,,,,,612d4424c05bbeb681896f12,,,,,,612d4424c05bbeb681896f12,Mężczyzna,28,2021-09-06_19h16.20.748,rantool2,2021.1.4,Win32,60.21194605,6135e006383e6ea6c3d06a28,61364cce22c5e699fb1f743d,"[""comma""]",0,[0.6108999999761693],4,0,4,0,1
,,,,,,,612d4424c05bbeb681896f12,,,,,,612d4424c05bbeb681896f12,Mężczyzna,28,2021-09-06_19h16.20.748,rantool2,2021.1.4,Win32,60.21194605,6135e006383e6ea6c3d06a28,61364cce22c5e699fb1f743d,"[""period""]",0,[0.2862000000476712],5,0,5,0,1
,,,,,,,612d4424c05bbeb681896f12,,,,,,612d4424c05bbeb681896f12,Mężczyzna,28,2021-09-06_19h16.20.748,rantool2,2021.1.4,Win32,60.21194605,6135e006383e6ea6c3d06a28,61364cce22c5e699fb1f743d,"[""comma""]",0,[0.2633999999761443],6,0,6,0,1
,,,,,,,612d4424c05bbeb681896f12,,,,,,612d4424c05bbeb681896f12,Mężczyzna,28,2021-09-06_19h16.20.748,rantool2,2021.1.4,Win32,60.21194605,6135e006383e6ea6c3d06a28,61364cce22c5e699fb1f743d,"[""period""]",0,[0.2597000000476726],7,0,7,0,1
,,,,,,,612d4424c05bbeb681896f12,,,,,,612d4424c05bbeb681896f12,Mężczyzna,28,2021-09-06_19h16.20.748,rantool2,2021.1.4,Win32,60.21194605,6135e006383e6ea6c3d06a28,61364cce22c5e699fb1f743d,"[""comma""]",0,[0.2901000000238412],8,0,8,0,1
,,,,,,,612d4424c05bbeb681896f12,,,,,,612d4424c05bbeb681896f12,Mężczyzna,28,2021-09-06_19h16.20.748,rantool2,2021.1.4,Win32,60.21194605,6135e006383e6ea6c3d06a28,61364cce22c5e699fb1f743d,"[""period""]",0,[0.2649000000953947],9,0,9,0,1
,,,,,,,612d4424c05bbeb681896f12,,,,,,612d4424c05bbeb681896f12,Mężczyzna,28,2021-09-06_19h16.20.748,rantool2,2021.1.4,Win32,60.21194605,6135e006383e6ea6c3d06a28,61364cce22c5e699fb1f743d,"[""comma""]",0,[0.2817000000476355],10,0,10,0,1
,,,,,,,612d4424c05bbeb681896f12,,,,,,612d4424c05bbeb681896f12,Mężczyzna,28,2021-09-06_19h16.20.748,rantool2,2021.1.4,Win32,60.21194605,6135e006383e6ea6c3d06a28,61364cce22c5e699fb1f743d,"[""period""]",0,[0.29450000000002774],11,0,11,0,1
,,,,,,,612d4424c05bbeb681896f12,,,,,,612d4424c05bbeb681896f12,Mężczyzna,28,2021-09-06_19h16.20.748,rantool2,2021.1.4,Win32,60.21194605,6135e006383e6ea6c3d06a28,61364cce22c5e699fb1f743d,"[""comma""]",0,[0.3479000000953647],12,0,12,0,1
,,,,,,,612d4424c05bbeb681896f12,,,,,,612d4424c05bbeb681896f12,Mężczyzna,28,2021-09-06_19h16.20.748,rantool2,2021.1.4,Win32,60.21194605,6135e006383e6ea6c3d06a28,61364cce22c5e699fb1f743d,"[""period""]",0,[0.5534999999999854],13,0,13,0,1
,,,,,,,612d4424c05bbeb681896f12,,,,,,612d4424c05bbeb681896f12,Mężczyzna,28,2021-09-06_19h16.20.748,rantool2,2021.1.4,Win32,60.21194605,6135e006383e6ea6c3d06a28,61364cce22c5e699fb1f743d,"[""period""]",0,[0.4485000000000241],14,0,14,0,1
,,,,,,,612d4424c05bbeb681896f12,,,,,,612d4424c05bbeb681896f12,Mężczyzna,28,2021-09-06_19h16.20.748,rantool2,2021.1.4,Win32,60.21194605,6135e006383e6ea6c3d06a28,61364cce22c5e699fb1f743d,"[""comma""]",0,[0.3592000000476787],15,0,15,0,1
,,,,,,,612d4424c05bbeb681896f12,,,,,,612d4424c05bbeb681896f12,Mężczyzna,28,2021-09-06_19h16.20.748,rantool2,2021.1.4,Win32,60.21194605,6135e006383e6ea6c3d06a28,61364cce22c5e699fb1f743d,"[""comma""]",0,[0.3981000000238737],16,0,16,0,1
,,,,,,,612d4424c05bbeb681896f12,,,,,,612d4424c05bbeb681896f12,Mężczyzna,28,2021-09-06_19h16.20.748,rantool2,2021.1.4,Win32,60.21194605,6135e006383e6ea6c3d06a28,61364cce22c5e699fb1f743d,"[""comma""]",0,[0.4131999999284517],17,0,17,0,1
,,,,,,,612d4424c05bbeb681896f12,,,,,,612d4424c05bbeb681896f12,Mężczyzna,28,2021-09-06_19h16.20.748,rantool2,2021.1.4,Win32,60.21194605,6135e006383e6ea6c3d06a28,61364cce22c5e699fb1f743d,"[""period""]",0,[0.3486000000238505],18,0,18,0,1
,,,,,,,612d4424c05bbeb681896f12,,,,,,612d4424c05bbeb681896f12,Mężczyzna,28,2021-09-06_19h16.20.748,rantool2,2021.1.4,Win32,60.21194605,6135e006383e6ea6c3d06a28,61364cce22c5e699fb1f743d,"[""comma""]",0,[0.24819999992848807],19,0,19,0,1
,,,,,,,612d4424c05bbeb681896f12,,,,,,612d4424c05bbeb681896f12,Mężczyzna,28,2021-09-06_19h16.20.748,rantool2,2021.1.4,Win32,60.21194605,6135e006383e6ea6c3d06a28,61364cce22c5e699fb1f743d,"[""period""]",0,[0.37539999997613904],20,0,20,0,1
,,,,,,,612d4424c05bbeb681896f12,,,,,,612d4424c05bbeb681896f12,Mężczyzna,28,2021-09-06_19h16.20.748,rantool2,2021.1.4,Win32,60.21194605,6135e006383e6ea6c3d06a28,61364cce22c5e699fb1f743d,"[""period""]",0,[0.5825999999046303],21,0,21,0,1
,,,,,,,612d4424c05bbeb681896f12,,,,,,612d4424c05bbeb681896f12,Mężczyzna,28,2021-09-06_19h16.20.748,rantool2,2021.1.4,Win32,60.21194605,6135e006383e6ea6c3d06a28,61364cce22c5e699fb1f743d,"[""period""]",0,[0.8521999999284731],22,0,22,0,1
,,,,,,,612d4424c05bbeb681896f12,,,,,,612d4424c05bbeb681896f12,Mężczyzna,28,2021-09-06_19h16.20.748,rantool2,2021.1.4,Win32,60.21194605,6135e006383e6ea6c3d06a28,61364cce22c5e699fb1f743d,"[""comma""]",0,[0.2515000000000214],23,0,23,0,1
,,,,,,,612d4424c05bbeb681896f12,,,,,,612d4424c05bbeb681896f12,Mężczyzna,28,2021-09-06_19h16.20.748,rantool2,2021.1.4,Win32,60.21194605,6135e006383e6ea6c3d06a28,61364cce22c5e699fb1f743d,"[""comma""]",0,[0.3771999999284503],24,0,24,0,1
,,,,,,,612d4424c05bbeb681896f12,,,,,,612d4424c05bbeb681896f12,Mężczyzna,28,2021-09-06_19h16.20.748,rantool2,2021.1.4,Win32,60.21194605,6135e006383e6ea6c3d06a28,61364cce22c5e699fb1f743d,"[""comma""]",0,[0.33530000007152694],25,0,25,0,1
,,,,,,,612d4424c05bbeb681896f12,,,,,,612d4424c05bbeb681896f12,Mężczyzna,28,2021-09-06_19h16.20.748,rantool2,2021.1.4,Win32,60.21194605,6135e006383e6ea6c3d06a28,61364cce22c5e699fb1f743d,"[""period""]",0,[0.36530000007149965],26,0,26,0,1
,,,,,,,612d4424c05bbeb681896f12,,,,,,612d4424c05bbeb681896f12,Mężczyzna,28,2021-09-06_19h16.20.748,rantool2,2021.1.4,Win32,60.21194605,6135e006383e6ea6c3d06a28,61364cce22c5e699fb1f743d,"[""period""]",0,[0.5171999999284935],27,0,27,0,1
,,,,,,,612d4424c05bbeb681896f12,,,,,,612d4424c05bbeb681896f12,Mężczyzna,28,2021-09-06_19h16.20.748,rantool2,2021.1.4,Win32,60.21194605,6135e006383e6ea6c3d06a28,61364cce22c5e699fb1f743d,"[""comma""]",0,[0.3387000000477087],28,0,28,0,1
,,,,,,,612d4424c05bbeb681896f12,,,,,,612d4424c05bbeb681896f12,Mężczyzna,28,2021-09-06_19h16.20.748,rantool2,2021.1.4,Win32,60.21194605,6135e006383e6ea6c3d06a28,61364cce22c5e699fb1f743d,"[""period""]",0,[0.4468999999761536],29,0,29,0,1
,,,,,,,612d4424c05bbeb681896f12,,,,,,612d4424c05bbeb681896f12,Mężczyzna,28,2021-09-06_19h16.20.748,rantool2,2021.1.4,Win32,60.21194605,6135e006383e6ea6c3d06a28,61364cce22c5e699fb1f743d,"[""period""]",0,[0.49689999997616496],30,0,30,0,1
,,,,,,,612d4424c05bbeb681896f12,,,,,,612d4424c05bbeb681896f12,Mężczyzna,28,2021-09-06_19h16.20.748,rantool2,2021.1.4,Win32,60.21194605,6135e006383e6ea6c3d06a28,61364cce22c5e699fb1f743d,"[""period""]",0,[0.42200000000002547],31,0,31,0,1
,,,,,,,612d4424c05bbeb681896f12,,,,,,612d4424c05bbeb681896f12,Mężczyzna,28,2021-09-06_19h16.20.748,rantool2,2021.1.4,Win32,60.21194605,6135e006383e6ea6c3d06a28,61364cce22c5e699fb1f743d,"[""comma""]",0,[0.25689999997615587],32,0,32,0,1
,,,,,,,612d4424c05bbeb681896f12,,,,,,612d4424c05bbeb681896f12,Mężczyzna,28,2021-09-06_19h16.20.748,rantool2,2021.1.4,Win32,60.21194605,6135e006383e6ea6c3d06a28,61364cce22c5e699fb1f743d,"[""comma""]",0,[0.3333999999761659],33,0,33,0,1
,,,,,,,612d4424c05bbeb681896f12,,,,,,612d4424c05bbeb681896f12,Mężczyzna,28,2021-09-06_19h16.20.748,rantool2,2021.1.4,Win32,60.21194605,6135e006383e6ea6c3d06a28,61364cce22c5e699fb1f743d,"[""period""]",0,[0.06489999997614859],34,0,34,0,1
,,,,,,,612d4424c05bbeb681896f12,,,,,,612d4424c05bbeb681896f12,Mężczyzna,28,2021-09-06_19h16.20.748,rantool2,2021.1.4,Win32,60.21194605,6135e006383e6ea6c3d06a28,61364cce22c5e699fb1f743d,"[""period""]",0,[0.559399999976165],35,0,35,0,1
,,,,,,,612d4424c05bbeb681896f12,,,,,,612d4424c05bbeb681896f12,Mężczyzna,28,2021-09-06_19h16.20.748,rantool2,2021.1.4,Win32,60.21194605,6135e006383e6ea6c3d06a28,61364cce22c5e699fb1f743d,"[""comma""]",0,[0.4383999999761272],36,0,36,0,1
,,,,,,,612d4424c05bbeb681896f12,,,,,,612d4424c05bbeb681896f12,Mężczyzna,28,2021-09-06_19h16.20.748,rantool2,2021.1.4,Win32,60.21194605,6135e006383e6ea6c3d06a28,61364cce22c5e699fb1f743d,"[""comma""]",0,[0.5165000000000077],37,0,37,0,1
,,,,,,,612d4424c05bbeb681896f12,,,,,,612d4424c05bbeb681896f12,Mężczyzna,28,2021-09-06_19h16.20.748,rantool2,2021.1.4,Win32,60.21194605,6135e006383e6ea6c3d06a28,61364cce22c5e699fb1f743d,"[""period""]",0,[0.46769999992847033],38,0,38,0,1
,,,,,,,612d4424c05bbeb681896f12,,,,,,612d4424c05bbeb681896f12,Mężczyzna,28,2021-09-06_19h16.20.748,rantool2,2021.1.4,Win32,60.21194605,6135e006383e6ea6c3d06a28,61364cce22c5e699fb1f743d,"[""comma""]",0,[0.6419999999999959],39,0,39,0,1
,,,,,,,612d4424c05bbeb681896f12,,,,,,612d4424c05bbeb681896f12,Mężczyzna,28,2021-09-06_19h16.20.748,rantool2,2021.1.4,Win32,60.21194605,6135e006383e6ea6c3d06a28,61364cce22c5e699fb1f743d,"[""comma""]",0,[0.6860000000000355],40,0,40,0,1
,,,,,,,612d4424c05bbeb681896f12,,,,,,612d4424c05bbeb681896f12,Mężczyzna,28,2021-09-06_19h16.20.748,rantool2,2021.1.4,Win32,60.21194605,6135e006383e6ea6c3d06a28,61364cce22c5e699fb1f743d,"[""period""]",0,[0.47100000000000364],41,0,41,0,1
,,,,,,,612d4424c05bbeb681896f12,,,,,,612d4424c05bbeb681896f12,Mężczyzna,28,2021-09-06_19h16.20.748,rantool2,2021.1.4,Win32,60.21194605,6135e006383e6ea6c3d06a28,61364cce22c5e699fb1f743d,"[""period""]",0,[0.39800000000002456],42,0,42,0,1
,,,,,,,612d4424c05bbeb681896f12,,,,,,612d4424c05bbeb681896f12,Mężczyzna,28,2021-09-06_19h16.20.748,rantool2,2021.1.4,Win32,60.21194605,6135e006383e6ea6c3d06a28,61364cce22c5e699fb1f743d,"[""period""]",0,[0.34899999999998954],43,0,43,0,1
,,,,,,,612d4424c05bbeb681896f12,,,,,,612d4424c05bbeb681896f12,Mężczyzna,28,2021-09-06_19h16.20.748,rantool2,2021.1.4,Win32,60.21194605,6135e006383e6ea6c3d06a28,61364cce22c5e699fb1f743d,"[""comma""]",0,[0.39639999997615405],44,0,44,0,1
,,,,,,,612d4424c05bbeb681896f12,,,,,,612d4424c05bbeb681896f12,Mężczyzna,28,2021-09-06_19h16.20.748,rantool2,2021.1.4,Win32,60.21194605,6135e006383e6ea6c3d06a28,61364cce22c5e699fb1f743d,"[""comma""]",0,[0.6221999999284549],45,0,45,0,1
,,,,,,,612d4424c05bbeb681896f12,,,,,,612d4424c05bbeb681896f12,Mężczyzna,28,2021-09-06_19h16.20.748,rantool2,2021.1.4,Win32,60.21194605,6135e006383e6ea6c3d06a28,61364cce22c5e699fb1f743d,"[""comma""]",0,[0.5506000000238487],46,0,46,0,1
,,,,,,,612d4424c05bbeb681896f12,,,,,,612d4424c05bbeb681896f12,Mężczyzna,28,2021-09-06_19h16.20.748,rantool2,2021.1.4,Win32,60.21194605,6135e006383e6ea6c3d06a28,61364cce22c5e699fb1f743d,"[""comma""]",0,[0.5891999999284394],47,0,47,0,1
,,,,,,,612d4424c05bbeb681896f12,,,,,,612d4424c05bbeb681896f12,Mężczyzna,28,2021-09-06_19h16.20.748,rantool2,2021.1.4,Win32,60.21194605,6135e006383e6ea6c3d06a28,61364cce22c5e699fb1f743d,"[""period""]",0,[0.4201000000238082],48,0,48,0,1
,,,,,,,612d4424c05bbeb681896f12,,,,,,612d4424c05bbeb681896f12,Mężczyzna,28,2021-09-06_19h16.20.748,rantool2,2021.1.4,Win32,60.21194605,6135e006383e6ea6c3d06a28,61364cce22c5e699fb1f743d,"[""period""]",0,[0.632000000000005],49,0,49,0,1
,,,,,,,612d4424c05bbeb681896f12,,,,,,612d4424c05bbeb681896f12,Mężczyzna,28,2021-09-06_19h16.20.748,rantool2,2021.1.4,Win32,60.21194605,6135e006383e6ea6c3d06a28,61364cce22c5e699fb1f743d,"[""period""]",0,[0.5292999999523431],50,0,50,0,1
,,,,,,,612d4424c05bbeb681896f12,,,,,,612d4424c05bbeb681896f12,Mężczyzna,28,2021-09-06_19h16.20.748,rantool2,2021.1.4,Win32,60.21194605,6135e006383e6ea6c3d06a28,61364cce22c5e699fb1f743d,"[""period""]",0,[0.5415999999046335],51,0,51,0,1
,,,,,,,612d4424c05bbeb681896f12,,,,,,612d4424c05bbeb681896f12,Mężczyzna,28,2021-09-06_19h16.20.748,rantool2,2021.1.4,Win32,60.21194605,6135e006383e6ea6c3d06a28,61364cce22c5e699fb1f743d,"[""comma""]",0,[0.4615000000000009],52,0,52,0,1
,,,,,,,612d4424c05bbeb681896f12,,,,,,612d4424c05bbeb681896f12,Mężczyzna,28,2021-09-06_19h16.20.748,rantool2,2021.1.4,Win32,60.21194605,6135e006383e6ea6c3d06a28,61364cce22c5e699fb1f743d,"[""period""]",0,[0.5486000000238391],53,0,53,0,1
,,,,,,,612d4424c05bbeb681896f12,,,,,,612d4424c05bbeb681896f12,Mężczyzna,28,2021-09-06_19h16.20.748,rantool2,2021.1.4,Win32,60.21194605,6135e006383e6ea6c3d06a28,61364cce22c5e699fb1f743d,"[""period""]",0,[0.41749999999996135],54,0,54,0,1
,,,,,,,612d4424c05bbeb681896f12,,,,,,612d4424c05bbeb681896f12,Mężczyzna,28,2021-09-06_19h16.20.748,rantool2,2021.1.4,Win32,60.21194605,6135e006383e6ea6c3d06a28,61364cce22c5e699fb1f743d,"[""comma""]",0,[0.698399999976175],55,0,55,0,1
,,,,,,,612d4424c05bbeb681896f12,,,,,,612d4424c05bbeb681896f12,Mężczyzna,28,2021-09-06_19h16.20.748,rantool2,2021.1.4,Win32,60.21194605,6135e006383e6ea6c3d06a28,61364cce22c5e699fb1f743d,"[""period""]",0,[0.4213000000714828],56,0,56,0,1
,,,,,,,612d4424c05bbeb681896f12,,,,,,612d4424c05bbeb681896f12,Mężczyzna,28,2021-09-06_19h16.20.748,rantool2,2021.1.4,Win32,60.21194605,6135e006383e6ea6c3d06a28,61364cce22c5e699fb1f743d,"[""comma""]",0,[0.542699999928459],57,0,57,0,1
,,,,,,,612d4424c05bbeb681896f12,,,,,,612d4424c05bbeb681896f12,Mężczyzna,28,2021-09-06_19h16.20.748,rantool2,2021.1.4,Win32,60.21194605,6135e006383e6ea6c3d06a28,61364cce22c5e699fb1f743d,"[""period""]",0,[0.47510000002381503],58,0,58,0,1
,,,,,,,612d4424c05bbeb681896f12,,,,,,612d4424c05bbeb681896f12,Mężczyzna,28,2021-09-06_19h16.20.748,rantool2,2021.1.4,Win32,60.21194605,6135e006383e6ea6c3d06a28,61364cce22c5e699fb1f743d,"[""period""]",0,[0.481700000047681],59,0,59,0,1
,,,,,,,612d4424c05bbeb681896f12,,,,,,612d4424c05bbeb681896f12,Mężczyzna,28,2021-09-06_19h16.20.748,rantool2,2021.1.4,Win32,60.21194605,6135e006383e6ea6c3d06a28,61364cce22c5e699fb1f743d,"[""period""]",0,[0.4881000000238487],60,0,60,0,1
,,,,,,,612d4424c05bbeb681896f12,,,,,,612d4424c05bbeb681896f12,Mężczyzna,28,2021-09-06_19h16.20.748,rantool2,2021.1.4,Win32,60.21194605,6135e006383e6ea6c3d06a28,61364cce22c5e699fb1f743d,"[""comma""]",0,[0.6007999999523008],61,0,61,0,1
,,,,,,,612d4424c05bbeb681896f12,,,,,,612d4424c05bbeb681896f12,Mężczyzna,28,2021-09-06_19h16.20.748,rantool2,2021.1.4,Win32,60.21194605,6135e006383e6ea6c3d06a28,61364cce22c5e699fb1f743d,"[""period""]",0,[0.5044999999999504],62,0,62,0,1
,,,,,,,612d4424c05bbeb681896f12,,,,,,612d4424c05bbeb681896f12,Mężczyzna,28,2021-09-06_19h16.20.748,rantool2,2021.1.4,Win32,60.21194605,6135e006383e6ea6c3d06a28,61364cce22c5e699fb1f743d,"[""period""]",0,[0.4195999999046194],63,0,63,0,1
,,,,,,,612d4424c05bbeb681896f12,,,,,,612d4424c05bbeb681896f12,Mężczyzna,28,2021-09-06_19h16.20.748,rantool2,2021.1.4,Win32,60.21194605,6135e006383e6ea6c3d06a28,61364cce22c5e699fb1f743d,"[""comma""]",0,[0.38589999997617497],64,0,64,0,1
,,,,,,,612d4424c05bbeb681896f12,,,,,,612d4424c05bbeb681896f12,Mężczyzna,28,2021-09-06_19h16.20.748,rantool2,2021.1.4,Win32,60.21194605,6135e006383e6ea6c3d06a28,61364cce22c5e699fb1f743d,"[""comma""]",0,[0.5923999999761804],65,0,65,0,1
,,,,,,,612d4424c05bbeb681896f12,,,,,,612d4424c05bbeb681896f12,Mężczyzna,28,2021-09-06_19h16.20.748,rantool2,2021.1.4,Win32,60.21194605,6135e006383e6ea6c3d06a28,61364cce22c5e699fb1f743d,"[""period""]",0,[0.29019999992846124],66,0,66,0,1
,,,,,,,612d4424c05bbeb681896f12,,,,,,612d4424c05bbeb681896f12,Mężczyzna,28,2021-09-06_19h16.20.748,rantool2,2021.1.4,Win32,60.21194605,6135e006383e6ea6c3d06a28,61364cce22c5e699fb1f743d,"[""period""]",0,[0.45430000007155513],67,0,67,0,1
,,,,,,,612d4424c05bbeb681896f12,,,,,,612d4424c05bbeb681896f12,Mężczyzna,28,2021-09-06_19h16.20.748,rantool2,2021.1.4,Win32,60.21194605,6135e006383e6ea6c3d06a28,61364cce22c5e699fb1f743d,"[""comma""]",0,[0.5405999999046571],68,0,68,0,1
,,,,,,,612d4424c05bbeb681896f12,,,,,,612d4424c05bbeb681896f12,Mężczyzna,28,2021-09-06_19h16.20.748,rantool2,2021.1.4,Win32,60.21194605,6135e006383e6ea6c3d06a28,61364cce22c5e699fb1f743d,"[""period""]",0,[0.5780000000000314],69,0,69,0,1
,,,,,,,612d4424c05bbeb681896f12,,,,,,612d4424c05bbeb681896f12,Mężczyzna,28,2021-09-06_19h16.20.748,rantool2,2021.1.4,Win32,60.21194605,6135e006383e6ea6c3d06a28,61364cce22c5e699fb1f743d,"[""comma""]",0,[0.410000000000025],70,0,70,0,1
,,,,,,,612d4424c05bbeb681896f12,,,,,,612d4424c05bbeb681896f12,Mężczyzna,28,2021-09-06_19h16.20.748,rantool2,2021.1.4,Win32,60.21194605,6135e006383e6ea6c3d06a28,61364cce22c5e699fb1f743d,"[""period""]",0,[0.6171999999285163],71,0,71,0,1
,,,,,,,612d4424c05bbeb681896f12,,,,,,612d4424c05bbeb681896f12,Mężczyzna,28,2021-09-06_19h16.20.748,rantool2,2021.1.4,Win32,60.21194605,6135e006383e6ea6c3d06a28,61364cce22c5e699fb1f743d,"[""comma""]",0,[0.6066000000238887],72,0,72,0,1
,,,,,,,612d4424c05bbeb681896f12,,,,,,612d4424c05bbeb681896f12,Mężczyzna,28,2021-09-06_19h16.20.748,rantool2,2021.1.4,Win32,60.21194605,6135e006383e6ea6c3d06a28,61364cce22c5e699fb1f743d,"[""period""]",0,[0.6692999999523295],73,0,73,0,1
,,,,,,,612d4424c05bbeb681896f12,,,,,,612d4424c05bbeb681896f12,Mężczyzna,28,2021-09-06_19h16.20.748,rantool2,2021.1.4,Win32,60.21194605,6135e006383e6ea6c3d06a28,61364cce22c5e699fb1f743d,"[""comma""]",0,[0.5531000000238464],74,0,74,0,1
,,,,,,,612d4424c05bbeb681896f12,,,,,,612d4424c05bbeb681896f12,Mężczyzna,28,2021-09-06_19h16.20.748,rantool2,2021.1.4,Win32,60.21194605,6135e006383e6ea6c3d06a28,61364cce22c5e699fb1f743d,"[""comma""]",0,[0.47249999999996817],75,0,75,0,1
,,,,,,,612d4424c05bbeb681896f12,,,,,,612d4424c05bbeb681896f12,Mężczyzna,28,2021-09-06_19h16.20.748,rantool2,2021.1.4,Win32,60.21194605,6135e006383e6ea6c3d06a28,61364cce22c5e699fb1f743d,"[""period""]",0,[0.773700000047711],76,0,76,0,1
,,,,,,,612d4424c05bbeb681896f12,,,,,,612d4424c05bbeb681896f12,Mężczyzna,28,2021-09-06_19h16.20.748,rantool2,2021.1.4,Win32,60.21194605,6135e006383e6ea6c3d06a28,61364cce22c5e699fb1f743d,"[""period""]",0,[0.5088999999761654],77,0,77,0,1
,,,,,,,612d4424c05bbeb681896f12,,,,,,612d4424c05bbeb681896f12,Mężczyzna,28,2021-09-06_19h16.20.748,rantool2,2021.1.4,Win32,60.21194605,6135e006383e6ea6c3d06a28,61364cce22c5e699fb1f743d,"[""comma""]",0,[0.5887000000476519],78,0,78,0,1
,,,,,,,612d4424c05bbeb681896f12,,,,,,612d4424c05bbeb681896f12,Mężczyzna,28,2021-09-06_19h16.20.748,rantool2,2021.1.4,Win32,60.21194605,6135e006383e6ea6c3d06a28,61364cce22c5e699fb1f743d,"[""comma""]",0,[0.6924999999999955],79,0,79,0,1
,,,,,,,612d4424c05bbeb681896f12,,,,,,612d4424c05bbeb681896f12,Mężczyzna,28,2021-09-06_19h16.20.748,rantool2,2021.1.4,Win32,60.21194605,6135e006383e6ea6c3d06a28,61364cce22c5e699fb1f743d,"[""period""]",0,[0.6399999999999864],80,0,80,0,1
,,,,,,,612d4424c05bbeb681896f12,,,,,,612d4424c05bbeb681896f12,Mężczyzna,28,2021-09-06_19h16.20.748,rantool2,2021.1.4,Win32,60.21194605,6135e006383e6ea6c3d06a28,61364cce22c5e699fb1f743d,"[""comma""]",0,[1.3901000000238355],81,0,81,0,1
,,,,,,,612d4424c05bbeb681896f12,,,,,,612d4424c05bbeb681896f12,Mężczyzna,28,2021-09-06_19h16.20.748,rantool2,2021.1.4,Win32,60.21194605,6135e006383e6ea6c3d06a28,61364cce22c5e699fb1f743d,"[""comma""]",0,[0.31979999995235175],82,0,82,0,1
,,,,,,,612d4424c05bbeb681896f12,,,,,,612d4424c05bbeb681896f12,Mężczyzna,28,2021-09-06_19h16.20.748,rantool2,2021.1.4,Win32,60.21194605,6135e006383e6ea6c3d06a28,61364cce22c5e699fb1f743d,"[""period""]",0,[0.40030000007152466],83,0,83,0,1
,,,,,,,612d4424c05bbeb681896f12,,,,,,612d4424c05bbeb681896f12,Mężczyzna,28,2021-09-06_19h16.20.748,rantool2,2021.1.4,Win32,60.21194605,6135e006383e6ea6c3d06a28,61364cce22c5e699fb1f743d,"[""period""]",0,[0.5086000000238187],84,0,84,0,1
,,,,,,,612d4424c05bbeb681896f12,,,,,,612d4424c05bbeb681896f12,Mężczyzna,28,2021-09-06_19h16.20.748,rantool2,2021.1.4,Win32,60.21194605,6135e006383e6ea6c3d06a28,61364cce22c5e699fb1f743d,"[""period""]",0,[0.4175000000000182],85,0,85,0,1
,,,,,,,612d4424c05bbeb681896f12,,,,,,612d4424c05bbeb681896f12,Mężczyzna,28,2021-09-06_19h16.20.748,rantool2,2021.1.4,Win32,60.21194605,6135e006383e6ea6c3d06a28,61364cce22c5e699fb1f743d,"[""period""]",0,[0.5608999999761295],86,0,86,0,1
,,,,,,,612d4424c05bbeb681896f12,,,,,,612d4424c05bbeb681896f12,Mężczyzna,28,2021-09-06_19h16.20.748,rantool2,2021.1.4,Win32,60.21194605,6135e006383e6ea6c3d06a28,61364cce22c5e699fb1f743d,"[""comma""]",0,[0.579899999976135],87,0,87,0,1
,,,,,,,612d4424c05bbeb681896f12,,,,,,612d4424c05bbeb681896f12,Mężczyzna,28,2021-09-06_19h16.20.748,rantool2,2021.1.4,Win32,60.21194605,6135e006383e6ea6c3d06a28,61364cce22c5e699fb1f743d,"[""period""]",0,[0.3236999999284649],88,0,88,0,1
,,,,,,,612d4424c05bbeb681896f12,,,,,,612d4424c05bbeb681896f12,Mężczyzna,28,2021-09-06_19h16.20.748,rantool2,2021.1.4,Win32,60.21194605,6135e006383e6ea6c3d06a28,61364cce22c5e699fb1f743d,"[""comma""]",0,[0.39610000002386414],89,0,89,0,1
,,,,,,,612d4424c05bbeb681896f12,,,,,,612d4424c05bbeb681896f12,Mężczyzna,28,2021-09-06_19h16.20.748,rantool2,2021.1.4,Win32,60.21194605,6135e006383e6ea6c3d06a28,61364cce22c5e699fb1f743d,"[""period""]",0,[0.4876000000238605],90,0,90,0,1
,,,,,,,612d4424c05bbeb681896f12,,,,,,612d4424c05bbeb681896f12,Mężczyzna,28,2021-09-06_19h16.20.748,rantool2,2021.1.4,Win32,60.21194605,6135e006383e6ea6c3d06a28,61364cce22c5e699fb1f743d,"[""comma""]",0,[0.6866999999284644],91,0,91,0,1
,,,,,,,612d4424c05bbeb681896f12,,,,,,612d4424c05bbeb681896f12,Mężczyzna,28,2021-09-06_19h16.20.748,rantool2,2021.1.4,Win32,60.21194605,6135e006383e6ea6c3d06a28,61364cce22c5e699fb1f743d,"[""period""]",0,[0.4131999999284517],92,0,92,0,1
,,,,,,,612d4424c05bbeb681896f12,,,,,,612d4424c05bbeb681896f12,Mężczyzna,28,2021-09-06_19h16.20.748,rantool2,2021.1.4,Win32,60.21194605,6135e006383e6ea6c3d06a28,61364cce22c5e699fb1f743d,"[""period""]",0,[0.38779999995227854],93,0,93,0,1
,,,,,,,612d4424c05bbeb681896f12,,,,,,612d4424c05bbeb681896f12,Mężczyzna,28,2021-09-06_19h16.20.748,rantool2,2021.1.4,Win32,60.21194605,6135e006383e6ea6c3d06a28,61364cce22c5e699fb1f743d,"[""period""]",0,[0.3968999999761422],94,0,94,0,1
,,,,,,,612d4424c05bbeb681896f12,,,,,,612d4424c05bbeb681896f12,Mężczyzna,28,2021-09-06_19h16.20.748,rantool2,2021.1.4,Win32,60.21194605,6135e006383e6ea6c3d06a28,61364cce22c5e699fb1f743d,"[""comma""]",0,[0.5784999999999627],95,0,95,0,1
,,,,,,,612d4424c05bbeb681896f12,,,,,,612d4424c05bbeb681896f12,Mężczyzna,28,2021-09-06_19h16.20.748,rantool2,2021.1.4,Win32,60.21194605,6135e006383e6ea6c3d06a28,61364cce22c5e699fb1f743d,"[""period""]",0,[0.5608000000715379],96,0,96,0,1
,,,,,,,612d4424c05bbeb681896f12,,,,,,612d4424c05bbeb681896f12,Mężczyzna,28,2021-09-06_19h16.20.748,rantool2,2021.1.4,Win32,60.21194605,6135e006383e6ea6c3d06a28,61364cce22c5e699fb1f743d,"[""period""]",0,[0.5396999999284731],97,0,97,0,1
,,,,,,,612d4424c05bbeb681896f12,,,,,,612d4424c05bbeb681896f12,Mężczyzna,28,2021-09-06_19h16.20.748,rantool2,2021.1.4,Win32,60.21194605,6135e006383e6ea6c3d06a28,61364cce22c5e699fb1f743d,"[""period""]",0,[0.4041000000238455],98,0,98,0,1
,,,,,,,612d4424c05bbeb681896f12,,,,,,612d4424c05bbeb681896f12,Mężczyzna,28,2021-09-06_19h16.20.748,rantool2,2021.1.4,Win32,60.21194605,6135e006383e6ea6c3d06a28,61364cce22c5e699fb1f743d,"[""period""]",0,[0.36700000000001864],99,0,99,0,1
,,,,,,,612d4424c05bbeb681896f12,,,,,,612d4424c05bbeb681896f12,Mężczyzna,28,2021-09-06_19h16.20.748,rantool2,2021.1.4,Win32,60.21194605,6135e006383e6ea6c3d06a28,61364cce22c5e699fb1f743d,"[""period""]",0,[0.4647000000476851],100,0,100,0,1
,,,,,,,612d4424c05bbeb681896f12,,,,,,612d4424c05bbeb681896f12,Mężczyzna,28,2021-09-06_19h16.20.748,rantool2,2021.1.4,Win32,60.21194605,6135e006383e6ea6c3d06a28,61364cce22c5e699fb1f743d,"[""comma""]",0,[0.4076000000238196],101,0,101,0,1
,,,,,,,612d4424c05bbeb681896f12,,,,,,612d4424c05bbeb681896f12,Mężczyzna,28,2021-09-06_19h16.20.748,rantool2,2021.1.4,Win32,60.21194605,6135e006383e6ea6c3d06a28,61364cce22c5e699fb1f743d,"[""period""]",0,[0.3738999999761745],102,0,102,0,1
,,,,,,,612d4424c05bbeb681896f12,,,,,,612d4424c05bbeb681896f12,Mężczyzna,28,2021-09-06_19h16.20.748,rantool2,2021.1.4,Win32,60.21194605,6135e006383e6ea6c3d06a28,61364cce22c5e699fb1f743d,"[""comma""]",0,[0.372299999952304],103,0,103,0,1
,,,,,,,612d4424c05bbeb681896f12,,,,,,612d4424c05bbeb681896f12,Mężczyzna,28,2021-09-06_19h16.20.748,rantool2,2021.1.4,Win32,60.21194605,6135e006383e6ea6c3d06a28,61364cce22c5e699fb1f743d,"[""period""]",0,[0.30860000002383003],104,0,104,0,1
,,,,,,,612d4424c05bbeb681896f12,,,,,,612d4424c05bbeb681896f12,Mężczyzna,28,2021-09-06_19h16.20.748,rantool2,2021.1.4,Win32,60.21194605,6135e006383e6ea6c3d06a28,61364cce22c5e699fb1f743d,"[""period""]",0,[0.4189999999999827],105,0,105,0,1
,,,,,,,612d4424c05bbeb681896f12,,,,,,612d4424c05bbeb681896f12,Mężczyzna,28,2021-09-06_19h16.20.748,rantool2,2021.1.4,Win32,60.21194605,6135e006383e6ea6c3d06a28,61364cce22c5e699fb1f743d,"[""comma""]",0,[0.3860000000000241],106,0,106,0,1
,,,,,,,612d4424c05bbeb681896f12,,,,,,612d4424c05bbeb681896f12,Mężczyzna,28,2021-09-06_19h16.20.748,rantool2,2021.1.4,Win32,60.21194605,6135e006383e6ea6c3d06a28,61364cce22c5e699fb1f743d,"[""period""]",0,[0.543800000071542],107,0,107,0,1
,,,,,,,612d4424c05bbeb681896f12,,,,,,612d4424c05bbeb681896f12,Mężczyzna,28,2021-09-06_19h16.20.748,rantool2,2021.1.4,Win32,60.21194605,6135e006383e6ea6c3d06a28,61364cce22c5e699fb1f743d,"[""period""]",0,[0.6759999999999877],108,0,108,0,1
,,,,,,,612d4424c05bbeb681896f12,,,,,,612d4424c05bbeb681896f12,Mężczyzna,28,2021-09-06_19h16.20.748,rantool2,2021.1.4,Win32,60.21194605,6135e006383e6ea6c3d06a28,61364cce22c5e699fb1f743d,"[""comma""]",0,[0.6286000000238801],109,0,109,0,1
,,,,,,,612d4424c05bbeb681896f12,,,,,,612d4424c05bbeb681896f12,Mężczyzna,28,2021-09-06_19h16.20.748,rantool2,2021.1.4,Win32,60.21194605,6135e006383e6ea6c3d06a28,61364cce22c5e699fb1f743d,"[""period""]",0,[0.6006999999285085],110,0,110,0,1
,,,,,,,612d4424c05bbeb681896f12,,,,,,612d4424c05bbeb681896f12,Mężczyzna,28,2021-09-06_19h16.20.748,rantool2,2021.1.4,Win32,60.21194605,6135e006383e6ea6c3d06a28,61364cce22c5e699fb1f743d,"[""comma""]",0,[0.6478999999761754],111,0,111,0,1
,,,,,,,612d4424c05bbeb681896f12,,,,,,612d4424c05bbeb681896f12,Mężczyzna,28,2021-09-06_19h16.20.748,rantool2,2021.1.4,Win32,60.21194605,6135e006383e6ea6c3d06a28,61364cce22c5e699fb1f743d,"[""period""]",0,[0.45539999997617997],112,0,112,0,1
,,,,,,,612d4424c05bbeb681896f12,,,,,,612d4424c05bbeb681896f12,Mężczyzna,28,2021-09-06_19h16.20.748,rantool2,2021.1.4,Win32,60.21194605,6135e006383e6ea6c3d06a28,61364cce22c5e699fb1f743d,"[""period""]",0,[0.5886000000238027],113,0,113,0,1
,,,,,,,612d4424c05bbeb681896f12,,,,,,612d4424c05bbeb681896f12,Mężczyzna,28,2021-09-06_19h16.20.748,rantool2,2021.1.4,Win32,60.21194605,6135e006383e6ea6c3d06a28,61364cce22c5e699fb1f743d,"[""comma""]",0,[0.5339999999999918],114,0,114,0,1
,,,,,,,612d4424c05bbeb681896f12,,,,,,612d4424c05bbeb681896f12,Mężczyzna,28,2021-09-06_19h16.20.748,rantool2,2021.1.4,Win32,60.21194605,6135e006383e6ea6c3d06a28,61364cce22c5e699fb1f743d,"[""period""]",0,[0.41900000000003956],115,0,115,0,1
,,,,,,,612d4424c05bbeb681896f12,,,,,,612d4424c05bbeb681896f12,Mężczyzna,28,2021-09-06_19h16.20.748,rantool2,2021.1.4,Win32,60.21194605,6135e006383e6ea6c3d06a28,61364cce22c5e699fb1f743d,"[""comma""]",0,[0.359800000071516],116,0,116,0,1
,,,,,,,612d4424c05bbeb681896f12,,,,,,612d4424c05bbeb681896f12,Mężczyzna,28,2021-09-06_19h16.20.748,rantool2,2021.1.4,Win32,60.21194605,6135e006383e6ea6c3d06a28,61364cce22c5e699fb1f743d,"[""period""]",0,[0.3258000000715242],117,0,117,0,1
,,,,,,,612d4424c05bbeb681896f12,,,,,,612d4424c05bbeb681896f12,Mężczyzna,28,2021-09-06_19h16.20.748,rantool2,2021.1.4,Win32,60.21194605,6135e006383e6ea6c3d06a28,61364cce22c5e699fb1f743d,"[""comma""]",0,[0.33199999999999363],118,0,118,0,1
,,,,,,,612d4424c05bbeb681896f12,,,,,,612d4424c05bbeb681896f12,Mężczyzna,28,2021-09-06_19h16.20.748,rantool2,2021.1.4,Win32,60.21194605,6135e006383e6ea6c3d06a28,61364cce22c5e699fb1f743d,"[""period""]",0,[0.28330000007156286],119,0,119,0,1
