key_resp_5.keys,key_resp_5.corr,key_resp_5.rt,trials.thisRepN,trials.thisTrialN,trials.thisN,trials.thisIndex,trials.ran,id*,Płeć*,Wiek*,date,expName,psychopyVersion,OS,frameRate,id,STUDY_ID,SESSION_ID,key_resp_7.keys,key_resp_7.rt,trials_2.thisRepN,trials_2.thisTrialN,trials_2.thisN,trials_2.thisIndex,trials_2.ran,series_0,series_1,acss_0,acss_1,comparison
"[""comma""]",0,[0.825400000002233],0,0,0,0,1,60e96b12a9bf38cf4eb19c56,Kobieta,19,2021-07-13_21h13.50.299,rantool2,2021.1.4,Win32,29.93563838,60e96b12a9bf38cf4eb19c56,60d9d14f4a8a35a482e0d9bf,60ede3a46518486a1a1f995f,,,,,,,,,,,,
0,0,,1,0,1,0,1,60e96b12a9bf38cf4eb19c56,Kobieta,19,2021-07-13_21h13.50.299,rantool2,2021.1.4,Win32,29.93563838,60e96b12a9bf38cf4eb19c56,60d9d14f4a8a35a482e0d9bf,60ede3a46518486a1a1f995f,,,,,,,,,,,,
"[""comma""]",0,[0.4194999999999993],2,0,2,0,1,60e96b12a9bf38cf4eb19c56,Kobieta,19,2021-07-13_21h13.50.299,rantool2,2021.1.4,Win32,29.93563838,60e96b12a9bf38cf4eb19c56,60d9d14f4a8a35a482e0d9bf,60ede3a46518486a1a1f995f,,,,,,,,,,,,
"[""comma""]",0,[0.42249999999999943],3,0,3,0,1,60e96b12a9bf38cf4eb19c56,Kobieta,19,2021-07-13_21h13.50.299,rantool2,2021.1.4,Win32,29.93563838,60e96b12a9bf38cf4eb19c56,60d9d14f4a8a35a482e0d9bf,60ede3a46518486a1a1f995f,,,,,,,,,,,,
"[""period""]",0,[0.3963999999985077],4,0,4,0,1,60e96b12a9bf38cf4eb19c56,Kobieta,19,2021-07-13_21h13.50.299,rantool2,2021.1.4,Win32,29.93563838,60e96b12a9bf38cf4eb19c56,60d9d14f4a8a35a482e0d9bf,60ede3a46518486a1a1f995f,,,,,,,,,,,,
"[""period""]",0,[0.4484000000022377],5,0,5,0,1,60e96b12a9bf38cf4eb19c56,Kobieta,19,2021-07-13_21h13.50.299,rantool2,2021.1.4,Win32,29.93563838,60e96b12a9bf38cf4eb19c56,60d9d14f4a8a35a482e0d9bf,60ede3a46518486a1a1f995f,,,,,,,,,,,,
"[""comma""]",0,[0.386700000002989],6,0,6,0,1,60e96b12a9bf38cf4eb19c56,Kobieta,19,2021-07-13_21h13.50.299,rantool2,2021.1.4,Win32,29.93563838,60e96b12a9bf38cf4eb19c56,60d9d14f4a8a35a482e0d9bf,60ede3a46518486a1a1f995f,,,,,,,,,,,,
"[""comma""]",0,[0.36590000000222744],7,0,7,0,1,60e96b12a9bf38cf4eb19c56,Kobieta,19,2021-07-13_21h13.50.299,rantool2,2021.1.4,Win32,29.93563838,60e96b12a9bf38cf4eb19c56,60d9d14f4a8a35a482e0d9bf,60ede3a46518486a1a1f995f,,,,,,,,,,,,
"[""comma""]",0,[0.6121000000014902],8,0,8,0,1,60e96b12a9bf38cf4eb19c56,Kobieta,19,2021-07-13_21h13.50.299,rantool2,2021.1.4,Win32,29.93563838,60e96b12a9bf38cf4eb19c56,60d9d14f4a8a35a482e0d9bf,60ede3a46518486a1a1f995f,,,,,,,,,,,,
"[""period""]",0,[0.7325000000000017],9,0,9,0,1,60e96b12a9bf38cf4eb19c56,Kobieta,19,2021-07-13_21h13.50.299,rantool2,2021.1.4,Win32,29.93563838,60e96b12a9bf38cf4eb19c56,60d9d14f4a8a35a482e0d9bf,60ede3a46518486a1a1f995f,,,,,,,,,,,,
"[""comma""]",0,[0.9823000000007482],10,0,10,0,1,60e96b12a9bf38cf4eb19c56,Kobieta,19,2021-07-13_21h13.50.299,rantool2,2021.1.4,Win32,29.93563838,60e96b12a9bf38cf4eb19c56,60d9d14f4a8a35a482e0d9bf,60ede3a46518486a1a1f995f,,,,,,,,,,,,
"[""comma""]",0,[0.9814999999999969],11,0,11,0,1,60e96b12a9bf38cf4eb19c56,Kobieta,19,2021-07-13_21h13.50.299,rantool2,2021.1.4,Win32,29.93563838,60e96b12a9bf38cf4eb19c56,60d9d14f4a8a35a482e0d9bf,60ede3a46518486a1a1f995f,,,,,,,,,,,,
"[""period""]",0,[0.37130000000074403],12,0,12,0,1,60e96b12a9bf38cf4eb19c56,Kobieta,19,2021-07-13_21h13.50.299,rantool2,2021.1.4,Win32,29.93563838,60e96b12a9bf38cf4eb19c56,60d9d14f4a8a35a482e0d9bf,60ede3a46518486a1a1f995f,,,,,,,,,,,,
"[""period""]",0,[0.38369999999926563],13,0,13,0,1,60e96b12a9bf38cf4eb19c56,Kobieta,19,2021-07-13_21h13.50.299,rantool2,2021.1.4,Win32,29.93563838,60e96b12a9bf38cf4eb19c56,60d9d14f4a8a35a482e0d9bf,60ede3a46518486a1a1f995f,,,,,,,,,,,,
"[""comma""]",0,[0.3644999999999925],14,0,14,0,1,60e96b12a9bf38cf4eb19c56,Kobieta,19,2021-07-13_21h13.50.299,rantool2,2021.1.4,Win32,29.93563838,60e96b12a9bf38cf4eb19c56,60d9d14f4a8a35a482e0d9bf,60ede3a46518486a1a1f995f,,,,,,,,,,,,
"[""comma""]",0,[0.3095999999977579],15,0,15,0,1,60e96b12a9bf38cf4eb19c56,Kobieta,19,2021-07-13_21h13.50.299,rantool2,2021.1.4,Win32,29.93563838,60e96b12a9bf38cf4eb19c56,60d9d14f4a8a35a482e0d9bf,60ede3a46518486a1a1f995f,,,,,,,,,,,,
"[""comma""]",0,[0.3626999999992506],16,0,16,0,1,60e96b12a9bf38cf4eb19c56,Kobieta,19,2021-07-13_21h13.50.299,rantool2,2021.1.4,Win32,29.93563838,60e96b12a9bf38cf4eb19c56,60d9d14f4a8a35a482e0d9bf,60ede3a46518486a1a1f995f,,,,,,,,,,,,
"[""period""]",0,[0.4754000000022387],17,0,17,0,1,60e96b12a9bf38cf4eb19c56,Kobieta,19,2021-07-13_21h13.50.299,rantool2,2021.1.4,Win32,29.93563838,60e96b12a9bf38cf4eb19c56,60d9d14f4a8a35a482e0d9bf,60ede3a46518486a1a1f995f,,,,,,,,,,,,
"[""comma""]",0,[0.35410000000149466],18,0,18,0,1,60e96b12a9bf38cf4eb19c56,Kobieta,19,2021-07-13_21h13.50.299,rantool2,2021.1.4,Win32,29.93563838,60e96b12a9bf38cf4eb19c56,60d9d14f4a8a35a482e0d9bf,60ede3a46518486a1a1f995f,,,,,,,,,,,,
"[""comma""]",0,[0.4154000000022364],19,0,19,0,1,60e96b12a9bf38cf4eb19c56,Kobieta,19,2021-07-13_21h13.50.299,rantool2,2021.1.4,Win32,29.93563838,60e96b12a9bf38cf4eb19c56,60d9d14f4a8a35a482e0d9bf,60ede3a46518486a1a1f995f,,,,,,,,,,,,
"[""comma""]",0,[0.4531999999992564],20,0,20,0,1,60e96b12a9bf38cf4eb19c56,Kobieta,19,2021-07-13_21h13.50.299,rantool2,2021.1.4,Win32,29.93563838,60e96b12a9bf38cf4eb19c56,60d9d14f4a8a35a482e0d9bf,60ede3a46518486a1a1f995f,,,,,,,,,,,,
"[""period""]",0,[0.39180000000074244],21,0,21,0,1,60e96b12a9bf38cf4eb19c56,Kobieta,19,2021-07-13_21h13.50.299,rantool2,2021.1.4,Win32,29.93563838,60e96b12a9bf38cf4eb19c56,60d9d14f4a8a35a482e0d9bf,60ede3a46518486a1a1f995f,,,,,,,,,,,,
"[""comma""]",0,[0.3863999999985026],22,0,22,0,1,60e96b12a9bf38cf4eb19c56,Kobieta,19,2021-07-13_21h13.50.299,rantool2,2021.1.4,Win32,29.93563838,60e96b12a9bf38cf4eb19c56,60d9d14f4a8a35a482e0d9bf,60ede3a46518486a1a1f995f,,,,,,,,,,,,
"[""comma""]",0,[0.38690000000221403],23,0,23,0,1,60e96b12a9bf38cf4eb19c56,Kobieta,19,2021-07-13_21h13.50.299,rantool2,2021.1.4,Win32,29.93563838,60e96b12a9bf38cf4eb19c56,60d9d14f4a8a35a482e0d9bf,60ede3a46518486a1a1f995f,,,,,,,,,,,,
"[""period""]",0,[0.3353999999985149],24,0,24,0,1,60e96b12a9bf38cf4eb19c56,Kobieta,19,2021-07-13_21h13.50.299,rantool2,2021.1.4,Win32,29.93563838,60e96b12a9bf38cf4eb19c56,60d9d14f4a8a35a482e0d9bf,60ede3a46518486a1a1f995f,,,,,,,,,,,,
"[""comma""]",0,[0.39750000000000796],25,0,25,0,1,60e96b12a9bf38cf4eb19c56,Kobieta,19,2021-07-13_21h13.50.299,rantool2,2021.1.4,Win32,29.93563838,60e96b12a9bf38cf4eb19c56,60d9d14f4a8a35a482e0d9bf,60ede3a46518486a1a1f995f,,,,,,,,,,,,
"[""comma""]",0,[0.42389999999852535],26,0,26,0,1,60e96b12a9bf38cf4eb19c56,Kobieta,19,2021-07-13_21h13.50.299,rantool2,2021.1.4,Win32,29.93563838,60e96b12a9bf38cf4eb19c56,60d9d14f4a8a35a482e0d9bf,60ede3a46518486a1a1f995f,,,,,,,,,,,,
"[""period""]",0,[0.40029999999700294],27,0,27,0,1,60e96b12a9bf38cf4eb19c56,Kobieta,19,2021-07-13_21h13.50.299,rantool2,2021.1.4,Win32,29.93563838,60e96b12a9bf38cf4eb19c56,60d9d14f4a8a35a482e0d9bf,60ede3a46518486a1a1f995f,,,,,,,,,,,,
"[""period""]",0,[0.6049999999999898],28,0,28,0,1,60e96b12a9bf38cf4eb19c56,Kobieta,19,2021-07-13_21h13.50.299,rantool2,2021.1.4,Win32,29.93563838,60e96b12a9bf38cf4eb19c56,60d9d14f4a8a35a482e0d9bf,60ede3a46518486a1a1f995f,,,,,,,,,,,,
"[""comma""]",0,[0.3941000000014867],29,0,29,0,1,60e96b12a9bf38cf4eb19c56,Kobieta,19,2021-07-13_21h13.50.299,rantool2,2021.1.4,Win32,29.93563838,60e96b12a9bf38cf4eb19c56,60d9d14f4a8a35a482e0d9bf,60ede3a46518486a1a1f995f,,,,,,,,,,,,
"[""comma""]",0,[0.41509999999777847],30,0,30,0,1,60e96b12a9bf38cf4eb19c56,Kobieta,19,2021-07-13_21h13.50.299,rantool2,2021.1.4,Win32,29.93563838,60e96b12a9bf38cf4eb19c56,60d9d14f4a8a35a482e0d9bf,60ede3a46518486a1a1f995f,,,,,,,,,,,,
"[""period""]",0,[0.35760000000149716],31,0,31,0,1,60e96b12a9bf38cf4eb19c56,Kobieta,19,2021-07-13_21h13.50.299,rantool2,2021.1.4,Win32,29.93563838,60e96b12a9bf38cf4eb19c56,60d9d14f4a8a35a482e0d9bf,60ede3a46518486a1a1f995f,,,,,,,,,,,,
"[""comma""]",0,[0.36330000000072005],32,0,32,0,1,60e96b12a9bf38cf4eb19c56,Kobieta,19,2021-07-13_21h13.50.299,rantool2,2021.1.4,Win32,29.93563838,60e96b12a9bf38cf4eb19c56,60d9d14f4a8a35a482e0d9bf,60ede3a46518486a1a1f995f,,,,,,,,,,,,
"[""period""]",0,[0.3791000000014719],33,0,33,0,1,60e96b12a9bf38cf4eb19c56,Kobieta,19,2021-07-13_21h13.50.299,rantool2,2021.1.4,Win32,29.93563838,60e96b12a9bf38cf4eb19c56,60d9d14f4a8a35a482e0d9bf,60ede3a46518486a1a1f995f,,,,,,,,,,,,
"[""period""]",0,[0.43609999999776505],34,0,34,0,1,60e96b12a9bf38cf4eb19c56,Kobieta,19,2021-07-13_21h13.50.299,rantool2,2021.1.4,Win32,29.93563838,60e96b12a9bf38cf4eb19c56,60d9d14f4a8a35a482e0d9bf,60ede3a46518486a1a1f995f,,,,,,,,,,,,
"[""period""]",0,[0.4393999999984999],35,0,35,0,1,60e96b12a9bf38cf4eb19c56,Kobieta,19,2021-07-13_21h13.50.299,rantool2,2021.1.4,Win32,29.93563838,60e96b12a9bf38cf4eb19c56,60d9d14f4a8a35a482e0d9bf,60ede3a46518486a1a1f995f,,,,,,,,,,,,
"[""period""]",0,[0.6030000000000086],36,0,36,0,1,60e96b12a9bf38cf4eb19c56,Kobieta,19,2021-07-13_21h13.50.299,rantool2,2021.1.4,Win32,29.93563838,60e96b12a9bf38cf4eb19c56,60d9d14f4a8a35a482e0d9bf,60ede3a46518486a1a1f995f,,,,,,,,,,,,
"[""comma""]",0,[0.48719999999926245],37,0,37,0,1,60e96b12a9bf38cf4eb19c56,Kobieta,19,2021-07-13_21h13.50.299,rantool2,2021.1.4,Win32,29.93563838,60e96b12a9bf38cf4eb19c56,60d9d14f4a8a35a482e0d9bf,60ede3a46518486a1a1f995f,,,,,,,,,,,,
"[""comma""]",0,[0.4555000000000007],38,0,38,0,1,60e96b12a9bf38cf4eb19c56,Kobieta,19,2021-07-13_21h13.50.299,rantool2,2021.1.4,Win32,29.93563838,60e96b12a9bf38cf4eb19c56,60d9d14f4a8a35a482e0d9bf,60ede3a46518486a1a1f995f,,,,,,,,,,,,
"[""comma""]",0,[0.3925999999977421],39,0,39,0,1,60e96b12a9bf38cf4eb19c56,Kobieta,19,2021-07-13_21h13.50.299,rantool2,2021.1.4,Win32,29.93563838,60e96b12a9bf38cf4eb19c56,60d9d14f4a8a35a482e0d9bf,60ede3a46518486a1a1f995f,,,,,,,,,,,,
"[""period""]",0,[0.4314999999999998],40,0,40,0,1,60e96b12a9bf38cf4eb19c56,Kobieta,19,2021-07-13_21h13.50.299,rantool2,2021.1.4,Win32,29.93563838,60e96b12a9bf38cf4eb19c56,60d9d14f4a8a35a482e0d9bf,60ede3a46518486a1a1f995f,,,,,,,,,,,,
"[""period""]",0,[0.4387000000029957],41,0,41,0,1,60e96b12a9bf38cf4eb19c56,Kobieta,19,2021-07-13_21h13.50.299,rantool2,2021.1.4,Win32,29.93563838,60e96b12a9bf38cf4eb19c56,60d9d14f4a8a35a482e0d9bf,60ede3a46518486a1a1f995f,,,,,,,,,,,,
"[""comma""]",0,[0.47519999999923357],42,0,42,0,1,60e96b12a9bf38cf4eb19c56,Kobieta,19,2021-07-13_21h13.50.299,rantool2,2021.1.4,Win32,29.93563838,60e96b12a9bf38cf4eb19c56,60d9d14f4a8a35a482e0d9bf,60ede3a46518486a1a1f995f,,,,,,,,,,,,
"[""period""]",0,[0.18730000000073233],43,0,43,0,1,60e96b12a9bf38cf4eb19c56,Kobieta,19,2021-07-13_21h13.50.299,rantool2,2021.1.4,Win32,29.93563838,60e96b12a9bf38cf4eb19c56,60d9d14f4a8a35a482e0d9bf,60ede3a46518486a1a1f995f,,,,,,,,,,,,
"[""comma""]",0,[0.36760000000148807],44,0,44,0,1,60e96b12a9bf38cf4eb19c56,Kobieta,19,2021-07-13_21h13.50.299,rantool2,2021.1.4,Win32,29.93563838,60e96b12a9bf38cf4eb19c56,60d9d14f4a8a35a482e0d9bf,60ede3a46518486a1a1f995f,,,,,,,,,,,,
"[""period""]",0,[0.4308000000007439],45,0,45,0,1,60e96b12a9bf38cf4eb19c56,Kobieta,19,2021-07-13_21h13.50.299,rantool2,2021.1.4,Win32,29.93563838,60e96b12a9bf38cf4eb19c56,60d9d14f4a8a35a482e0d9bf,60ede3a46518486a1a1f995f,,,,,,,,,,,,
"[""comma""]",0,[0.3868999999985192],46,0,46,0,1,60e96b12a9bf38cf4eb19c56,Kobieta,19,2021-07-13_21h13.50.299,rantool2,2021.1.4,Win32,29.93563838,60e96b12a9bf38cf4eb19c56,60d9d14f4a8a35a482e0d9bf,60ede3a46518486a1a1f995f,,,,,,,,,,,,
"[""comma""]",0,[0.35230000000072437],47,0,47,0,1,60e96b12a9bf38cf4eb19c56,Kobieta,19,2021-07-13_21h13.50.299,rantool2,2021.1.4,Win32,29.93563838,60e96b12a9bf38cf4eb19c56,60d9d14f4a8a35a482e0d9bf,60ede3a46518486a1a1f995f,,,,,,,,,,,,
"[""period""]",0,[0.3369999999999891],48,0,48,0,1,60e96b12a9bf38cf4eb19c56,Kobieta,19,2021-07-13_21h13.50.299,rantool2,2021.1.4,Win32,29.93563838,60e96b12a9bf38cf4eb19c56,60d9d14f4a8a35a482e0d9bf,60ede3a46518486a1a1f995f,,,,,,,,,,,,
"[""period""]",0,[0.34309999999777574],49,0,49,0,1,60e96b12a9bf38cf4eb19c56,Kobieta,19,2021-07-13_21h13.50.299,rantool2,2021.1.4,Win32,29.93563838,60e96b12a9bf38cf4eb19c56,60d9d14f4a8a35a482e0d9bf,60ede3a46518486a1a1f995f,,,,,,,,,,,,
"[""period""]",0,[0.6315999999977748],50,0,50,0,1,60e96b12a9bf38cf4eb19c56,Kobieta,19,2021-07-13_21h13.50.299,rantool2,2021.1.4,Win32,29.93563838,60e96b12a9bf38cf4eb19c56,60d9d14f4a8a35a482e0d9bf,60ede3a46518486a1a1f995f,,,,,,,,,,,,
"[""period""]",0,[0.4203000000007364],51,0,51,0,1,60e96b12a9bf38cf4eb19c56,Kobieta,19,2021-07-13_21h13.50.299,rantool2,2021.1.4,Win32,29.93563838,60e96b12a9bf38cf4eb19c56,60d9d14f4a8a35a482e0d9bf,60ede3a46518486a1a1f995f,,,,,,,,,,,,
"[""comma""]",0,[0.36540000000223927],52,0,52,0,1,60e96b12a9bf38cf4eb19c56,Kobieta,19,2021-07-13_21h13.50.299,rantool2,2021.1.4,Win32,29.93563838,60e96b12a9bf38cf4eb19c56,60d9d14f4a8a35a482e0d9bf,60ede3a46518486a1a1f995f,,,,,,,,,,,,
"[""period""]",0,[0.591600000001506],53,0,53,0,1,60e96b12a9bf38cf4eb19c56,Kobieta,19,2021-07-13_21h13.50.299,rantool2,2021.1.4,Win32,29.93563838,60e96b12a9bf38cf4eb19c56,60d9d14f4a8a35a482e0d9bf,60ede3a46518486a1a1f995f,,,,,,,,,,,,
"[""period""]",0,[0.4766000000014685],54,0,54,0,1,60e96b12a9bf38cf4eb19c56,Kobieta,19,2021-07-13_21h13.50.299,rantool2,2021.1.4,Win32,29.93563838,60e96b12a9bf38cf4eb19c56,60d9d14f4a8a35a482e0d9bf,60ede3a46518486a1a1f995f,,,,,,,,,,,,
"[""period""]",0,[0.8083999999985281],55,0,55,0,1,60e96b12a9bf38cf4eb19c56,Kobieta,19,2021-07-13_21h13.50.299,rantool2,2021.1.4,Win32,29.93563838,60e96b12a9bf38cf4eb19c56,60d9d14f4a8a35a482e0d9bf,60ede3a46518486a1a1f995f,,,,,,,,,,,,
"[""comma""]",0,[0.8185999999977582],56,0,56,0,1,60e96b12a9bf38cf4eb19c56,Kobieta,19,2021-07-13_21h13.50.299,rantool2,2021.1.4,Win32,29.93563838,60e96b12a9bf38cf4eb19c56,60d9d14f4a8a35a482e0d9bf,60ede3a46518486a1a1f995f,,,,,,,,,,,,
"[""period""]",0,[0.6836999999992486],57,0,57,0,1,60e96b12a9bf38cf4eb19c56,Kobieta,19,2021-07-13_21h13.50.299,rantool2,2021.1.4,Win32,29.93563838,60e96b12a9bf38cf4eb19c56,60d9d14f4a8a35a482e0d9bf,60ede3a46518486a1a1f995f,,,,,,,,,,,,
"[""period""]",0,[0.5592999999970232],58,0,58,0,1,60e96b12a9bf38cf4eb19c56,Kobieta,19,2021-07-13_21h13.50.299,rantool2,2021.1.4,Win32,29.93563838,60e96b12a9bf38cf4eb19c56,60d9d14f4a8a35a482e0d9bf,60ede3a46518486a1a1f995f,,,,,,,,,,,,
"[""period""]",0,[0.4636000000014917],59,0,59,0,1,60e96b12a9bf38cf4eb19c56,Kobieta,19,2021-07-13_21h13.50.299,rantool2,2021.1.4,Win32,29.93563838,60e96b12a9bf38cf4eb19c56,60d9d14f4a8a35a482e0d9bf,60ede3a46518486a1a1f995f,,,,,,,,,,,,
"[""period""]",0,[0.8638000000007366],60,0,60,0,1,60e96b12a9bf38cf4eb19c56,Kobieta,19,2021-07-13_21h13.50.299,rantool2,2021.1.4,Win32,29.93563838,60e96b12a9bf38cf4eb19c56,60d9d14f4a8a35a482e0d9bf,60ede3a46518486a1a1f995f,,,,,,,,,,,,
"[""period""]",0,[1.0508999999985065],61,0,61,0,1,60e96b12a9bf38cf4eb19c56,Kobieta,19,2021-07-13_21h13.50.299,rantool2,2021.1.4,Win32,29.93563838,60e96b12a9bf38cf4eb19c56,60d9d14f4a8a35a482e0d9bf,60ede3a46518486a1a1f995f,,,,,,,,,,,,
"[""comma""]",0,[0.38749999999998863],62,0,62,0,1,60e96b12a9bf38cf4eb19c56,Kobieta,19,2021-07-13_21h13.50.299,rantool2,2021.1.4,Win32,29.93563838,60e96b12a9bf38cf4eb19c56,60d9d14f4a8a35a482e0d9bf,60ede3a46518486a1a1f995f,,,,,,,,,,,,
"[""period""]",0,[0.5699000000022352],63,0,63,0,1,60e96b12a9bf38cf4eb19c56,Kobieta,19,2021-07-13_21h13.50.299,rantool2,2021.1.4,Win32,29.93563838,60e96b12a9bf38cf4eb19c56,60d9d14f4a8a35a482e0d9bf,60ede3a46518486a1a1f995f,,,,,,,,,,,,
"[""period""]",0,[0.39930000000074983],64,0,64,0,1,60e96b12a9bf38cf4eb19c56,Kobieta,19,2021-07-13_21h13.50.299,rantool2,2021.1.4,Win32,29.93563838,60e96b12a9bf38cf4eb19c56,60d9d14f4a8a35a482e0d9bf,60ede3a46518486a1a1f995f,,,,,,,,,,,,
"[""comma""]",0,[0.11149999999997817],65,0,65,0,1,60e96b12a9bf38cf4eb19c56,Kobieta,19,2021-07-13_21h13.50.299,rantool2,2021.1.4,Win32,29.93563838,60e96b12a9bf38cf4eb19c56,60d9d14f4a8a35a482e0d9bf,60ede3a46518486a1a1f995f,,,,,,,,,,,,
"[""comma""]",0,[0.9738000000007503],66,0,66,0,1,60e96b12a9bf38cf4eb19c56,Kobieta,19,2021-07-13_21h13.50.299,rantool2,2021.1.4,Win32,29.93563838,60e96b12a9bf38cf4eb19c56,60d9d14f4a8a35a482e0d9bf,60ede3a46518486a1a1f995f,,,,,,,,,,,,
"[""comma""]",0,[0.3580000000000041],67,0,67,0,1,60e96b12a9bf38cf4eb19c56,Kobieta,19,2021-07-13_21h13.50.299,rantool2,2021.1.4,Win32,29.93563838,60e96b12a9bf38cf4eb19c56,60d9d14f4a8a35a482e0d9bf,60ede3a46518486a1a1f995f,,,,,,,,,,,,
"[""comma""]",0,[0.33119999999925653],68,0,68,0,1,60e96b12a9bf38cf4eb19c56,Kobieta,19,2021-07-13_21h13.50.299,rantool2,2021.1.4,Win32,29.93563838,60e96b12a9bf38cf4eb19c56,60d9d14f4a8a35a482e0d9bf,60ede3a46518486a1a1f995f,,,,,,,,,,,,
"[""comma""]",0,[0.3122000000029743],69,0,69,0,1,60e96b12a9bf38cf4eb19c56,Kobieta,19,2021-07-13_21h13.50.299,rantool2,2021.1.4,Win32,29.93563838,60e96b12a9bf38cf4eb19c56,60d9d14f4a8a35a482e0d9bf,60ede3a46518486a1a1f995f,,,,,,,,,,,,
"[""comma""]",0,[0.3605000000000018],70,0,70,0,1,60e96b12a9bf38cf4eb19c56,Kobieta,19,2021-07-13_21h13.50.299,rantool2,2021.1.4,Win32,29.93563838,60e96b12a9bf38cf4eb19c56,60d9d14f4a8a35a482e0d9bf,60ede3a46518486a1a1f995f,,,,,,,,,,,,
"[""period""]",0,[0.403099999997778],71,0,71,0,1,60e96b12a9bf38cf4eb19c56,Kobieta,19,2021-07-13_21h13.50.299,rantool2,2021.1.4,Win32,29.93563838,60e96b12a9bf38cf4eb19c56,60d9d14f4a8a35a482e0d9bf,60ede3a46518486a1a1f995f,,,,,,,,,,,,
"[""comma""]",0,[0.398699999999252],72,0,72,0,1,60e96b12a9bf38cf4eb19c56,Kobieta,19,2021-07-13_21h13.50.299,rantool2,2021.1.4,Win32,29.93563838,60e96b12a9bf38cf4eb19c56,60d9d14f4a8a35a482e0d9bf,60ede3a46518486a1a1f995f,,,,,,,,,,,,
"[""period""]",0,[0.3378999999985126],73,0,73,0,1,60e96b12a9bf38cf4eb19c56,Kobieta,19,2021-07-13_21h13.50.299,rantool2,2021.1.4,Win32,29.93563838,60e96b12a9bf38cf4eb19c56,60d9d14f4a8a35a482e0d9bf,60ede3a46518486a1a1f995f,,,,,,,,,,,,
"[""period""]",0,[0.3897000000029891],74,0,74,0,1,60e96b12a9bf38cf4eb19c56,Kobieta,19,2021-07-13_21h13.50.299,rantool2,2021.1.4,Win32,29.93563838,60e96b12a9bf38cf4eb19c56,60d9d14f4a8a35a482e0d9bf,60ede3a46518486a1a1f995f,,,,,,,,,,,,
"[""period""]",0,[0.45309999999776096],75,0,75,0,1,60e96b12a9bf38cf4eb19c56,Kobieta,19,2021-07-13_21h13.50.299,rantool2,2021.1.4,Win32,29.93563838,60e96b12a9bf38cf4eb19c56,60d9d14f4a8a35a482e0d9bf,60ede3a46518486a1a1f995f,,,,,,,,,,,,
"[""period""]",0,[0.3736000000014883],76,0,76,0,1,60e96b12a9bf38cf4eb19c56,Kobieta,19,2021-07-13_21h13.50.299,rantool2,2021.1.4,Win32,29.93563838,60e96b12a9bf38cf4eb19c56,60d9d14f4a8a35a482e0d9bf,60ede3a46518486a1a1f995f,,,,,,,,,,,,
"[""period""]",0,[0.3661999999992531],77,0,77,0,1,60e96b12a9bf38cf4eb19c56,Kobieta,19,2021-07-13_21h13.50.299,rantool2,2021.1.4,Win32,29.93563838,60e96b12a9bf38cf4eb19c56,60d9d14f4a8a35a482e0d9bf,60ede3a46518486a1a1f995f,,,,,,,,,,,,
"[""period""]",0,[0.3640000000000043],78,0,78,0,1,60e96b12a9bf38cf4eb19c56,Kobieta,19,2021-07-13_21h13.50.299,rantool2,2021.1.4,Win32,29.93563838,60e96b12a9bf38cf4eb19c56,60d9d14f4a8a35a482e0d9bf,60ede3a46518486a1a1f995f,,,,,,,,,,,,
"[""comma""]",0,[0.4361999999992747],79,0,79,0,1,60e96b12a9bf38cf4eb19c56,Kobieta,19,2021-07-13_21h13.50.299,rantool2,2021.1.4,Win32,29.93563838,60e96b12a9bf38cf4eb19c56,60d9d14f4a8a35a482e0d9bf,60ede3a46518486a1a1f995f,,,,,,,,,,,,
"[""comma""]",0,[0.3678999999984853],80,0,80,0,1,60e96b12a9bf38cf4eb19c56,Kobieta,19,2021-07-13_21h13.50.299,rantool2,2021.1.4,Win32,29.93563838,60e96b12a9bf38cf4eb19c56,60d9d14f4a8a35a482e0d9bf,60ede3a46518486a1a1f995f,,,,,,,,,,,,
"[""comma""]",0,[0.4402999999970234],81,0,81,0,1,60e96b12a9bf38cf4eb19c56,Kobieta,19,2021-07-13_21h13.50.299,rantool2,2021.1.4,Win32,29.93563838,60e96b12a9bf38cf4eb19c56,60d9d14f4a8a35a482e0d9bf,60ede3a46518486a1a1f995f,,,,,,,,,,,,
"[""comma""]",0,[0.4784999999999968],82,0,82,0,1,60e96b12a9bf38cf4eb19c56,Kobieta,19,2021-07-13_21h13.50.299,rantool2,2021.1.4,Win32,29.93563838,60e96b12a9bf38cf4eb19c56,60d9d14f4a8a35a482e0d9bf,60ede3a46518486a1a1f995f,,,,,,,,,,,,
"[""period""]",0,[0.5261000000014917],83,0,83,0,1,60e96b12a9bf38cf4eb19c56,Kobieta,19,2021-07-13_21h13.50.299,rantool2,2021.1.4,Win32,29.93563838,60e96b12a9bf38cf4eb19c56,60d9d14f4a8a35a482e0d9bf,60ede3a46518486a1a1f995f,,,,,,,,,,,,
"[""period""]",0,[0.41280000000074324],84,0,84,0,1,60e96b12a9bf38cf4eb19c56,Kobieta,19,2021-07-13_21h13.50.299,rantool2,2021.1.4,Win32,29.93563838,60e96b12a9bf38cf4eb19c56,60d9d14f4a8a35a482e0d9bf,60ede3a46518486a1a1f995f,,,,,,,,,,,,
"[""comma""]",0,[0.3605000000000018],85,0,85,0,1,60e96b12a9bf38cf4eb19c56,Kobieta,19,2021-07-13_21h13.50.299,rantool2,2021.1.4,Win32,29.93563838,60e96b12a9bf38cf4eb19c56,60d9d14f4a8a35a482e0d9bf,60ede3a46518486a1a1f995f,,,,,,,,,,,,
"[""period""]",0,[0.4443000000007373],86,0,86,0,1,60e96b12a9bf38cf4eb19c56,Kobieta,19,2021-07-13_21h13.50.299,rantool2,2021.1.4,Win32,29.93563838,60e96b12a9bf38cf4eb19c56,60d9d14f4a8a35a482e0d9bf,60ede3a46518486a1a1f995f,,,,,,,,,,,,
"[""period""]",0,[0.3154999999999859],87,0,87,0,1,60e96b12a9bf38cf4eb19c56,Kobieta,19,2021-07-13_21h13.50.299,rantool2,2021.1.4,Win32,29.93563838,60e96b12a9bf38cf4eb19c56,60d9d14f4a8a35a482e0d9bf,60ede3a46518486a1a1f995f,,,,,,,,,,,,
"[""comma""]",0,[0.49180000000075097],88,0,88,0,1,60e96b12a9bf38cf4eb19c56,Kobieta,19,2021-07-13_21h13.50.299,rantool2,2021.1.4,Win32,29.93563838,60e96b12a9bf38cf4eb19c56,60d9d14f4a8a35a482e0d9bf,60ede3a46518486a1a1f995f,,,,,,,,,,,,
"[""period""]",0,[0.5864000000021861],89,0,89,0,1,60e96b12a9bf38cf4eb19c56,Kobieta,19,2021-07-13_21h13.50.299,rantool2,2021.1.4,Win32,29.93563838,60e96b12a9bf38cf4eb19c56,60d9d14f4a8a35a482e0d9bf,60ede3a46518486a1a1f995f,,,,,,,,,,,,
"[""period""]",0,[0.47459999999779257],90,0,90,0,1,60e96b12a9bf38cf4eb19c56,Kobieta,19,2021-07-13_21h13.50.299,rantool2,2021.1.4,Win32,29.93563838,60e96b12a9bf38cf4eb19c56,60d9d14f4a8a35a482e0d9bf,60ede3a46518486a1a1f995f,,,,,,,,,,,,
"[""comma""]",0,[0.4355000000000473],91,0,91,0,1,60e96b12a9bf38cf4eb19c56,Kobieta,19,2021-07-13_21h13.50.299,rantool2,2021.1.4,Win32,29.93563838,60e96b12a9bf38cf4eb19c56,60d9d14f4a8a35a482e0d9bf,60ede3a46518486a1a1f995f,,,,,,,,,,,,
"[""comma""]",0,[0.36330000000072005],92,0,92,0,1,60e96b12a9bf38cf4eb19c56,Kobieta,19,2021-07-13_21h13.50.299,rantool2,2021.1.4,Win32,29.93563838,60e96b12a9bf38cf4eb19c56,60d9d14f4a8a35a482e0d9bf,60ede3a46518486a1a1f995f,,,,,,,,,,,,
"[""period""]",0,[0.360399999998549],93,0,93,0,1,60e96b12a9bf38cf4eb19c56,Kobieta,19,2021-07-13_21h13.50.299,rantool2,2021.1.4,Win32,29.93563838,60e96b12a9bf38cf4eb19c56,60d9d14f4a8a35a482e0d9bf,60ede3a46518486a1a1f995f,,,,,,,,,,,,
"[""comma""]",0,[0.33340000000220016],94,0,94,0,1,60e96b12a9bf38cf4eb19c56,Kobieta,19,2021-07-13_21h13.50.299,rantool2,2021.1.4,Win32,29.93563838,60e96b12a9bf38cf4eb19c56,60d9d14f4a8a35a482e0d9bf,60ede3a46518486a1a1f995f,,,,,,,,,,,,
"[""comma""]",0,[0.7855000000000132],95,0,95,0,1,60e96b12a9bf38cf4eb19c56,Kobieta,19,2021-07-13_21h13.50.299,rantool2,2021.1.4,Win32,29.93563838,60e96b12a9bf38cf4eb19c56,60d9d14f4a8a35a482e0d9bf,60ede3a46518486a1a1f995f,,,,,,,,,,,,
"[""comma""]",0,[0.4991999999992913],96,0,96,0,1,60e96b12a9bf38cf4eb19c56,Kobieta,19,2021-07-13_21h13.50.299,rantool2,2021.1.4,Win32,29.93563838,60e96b12a9bf38cf4eb19c56,60d9d14f4a8a35a482e0d9bf,60ede3a46518486a1a1f995f,,,,,,,,,,,,
"[""comma""]",0,[0.5428000000007387],97,0,97,0,1,60e96b12a9bf38cf4eb19c56,Kobieta,19,2021-07-13_21h13.50.299,rantool2,2021.1.4,Win32,29.93563838,60e96b12a9bf38cf4eb19c56,60d9d14f4a8a35a482e0d9bf,60ede3a46518486a1a1f995f,,,,,,,,,,,,
"[""period""]",0,[0.42369999999925767],98,0,98,0,1,60e96b12a9bf38cf4eb19c56,Kobieta,19,2021-07-13_21h13.50.299,rantool2,2021.1.4,Win32,29.93563838,60e96b12a9bf38cf4eb19c56,60d9d14f4a8a35a482e0d9bf,60ede3a46518486a1a1f995f,,,,,,,,,,,,
"[""period""]",0,[0.7047999999970216],99,0,99,0,1,60e96b12a9bf38cf4eb19c56,Kobieta,19,2021-07-13_21h13.50.299,rantool2,2021.1.4,Win32,29.93563838,60e96b12a9bf38cf4eb19c56,60d9d14f4a8a35a482e0d9bf,60ede3a46518486a1a1f995f,,,,,,,,,,,,
"[""period""]",0,[0.6230000000000473],100,0,100,0,1,60e96b12a9bf38cf4eb19c56,Kobieta,19,2021-07-13_21h13.50.299,rantool2,2021.1.4,Win32,29.93563838,60e96b12a9bf38cf4eb19c56,60d9d14f4a8a35a482e0d9bf,60ede3a46518486a1a1f995f,,,,,,,,,,,,
"[""comma""]",0,[0.4784999999999968],101,0,101,0,1,60e96b12a9bf38cf4eb19c56,Kobieta,19,2021-07-13_21h13.50.299,rantool2,2021.1.4,Win32,29.93563838,60e96b12a9bf38cf4eb19c56,60d9d14f4a8a35a482e0d9bf,60ede3a46518486a1a1f995f,,,,,,,,,,,,
"[""period""]",0,[0.7503000000007205],102,0,102,0,1,60e96b12a9bf38cf4eb19c56,Kobieta,19,2021-07-13_21h13.50.299,rantool2,2021.1.4,Win32,29.93563838,60e96b12a9bf38cf4eb19c56,60d9d14f4a8a35a482e0d9bf,60ede3a46518486a1a1f995f,,,,,,,,,,,,
"[""period""]",0,[0.6084000000022343],103,0,103,0,1,60e96b12a9bf38cf4eb19c56,Kobieta,19,2021-07-13_21h13.50.299,rantool2,2021.1.4,Win32,29.93563838,60e96b12a9bf38cf4eb19c56,60d9d14f4a8a35a482e0d9bf,60ede3a46518486a1a1f995f,,,,,,,,,,,,
"[""period""]",0,[0.8223000000007801],104,0,104,0,1,60e96b12a9bf38cf4eb19c56,Kobieta,19,2021-07-13_21h13.50.299,rantool2,2021.1.4,Win32,29.93563838,60e96b12a9bf38cf4eb19c56,60d9d14f4a8a35a482e0d9bf,60ede3a46518486a1a1f995f,,,,,,,,,,,,
"[""period""]",0,[0.8536999999992645],105,0,105,0,1,60e96b12a9bf38cf4eb19c56,Kobieta,19,2021-07-13_21h13.50.299,rantool2,2021.1.4,Win32,29.93563838,60e96b12a9bf38cf4eb19c56,60d9d14f4a8a35a482e0d9bf,60ede3a46518486a1a1f995f,,,,,,,,,,,,
"[""comma""]",0,[0.533300000000736],106,0,106,0,1,60e96b12a9bf38cf4eb19c56,Kobieta,19,2021-07-13_21h13.50.299,rantool2,2021.1.4,Win32,29.93563838,60e96b12a9bf38cf4eb19c56,60d9d14f4a8a35a482e0d9bf,60ede3a46518486a1a1f995f,,,,,,,,,,,,
"[""comma""]",0,[0.3428000000006932],107,0,107,0,1,60e96b12a9bf38cf4eb19c56,Kobieta,19,2021-07-13_21h13.50.299,rantool2,2021.1.4,Win32,29.93563838,60e96b12a9bf38cf4eb19c56,60d9d14f4a8a35a482e0d9bf,60ede3a46518486a1a1f995f,,,,,,,,,,,,
"[""period""]",0,[0.5454000000022461],108,0,108,0,1,60e96b12a9bf38cf4eb19c56,Kobieta,19,2021-07-13_21h13.50.299,rantool2,2021.1.4,Win32,29.93563838,60e96b12a9bf38cf4eb19c56,60d9d14f4a8a35a482e0d9bf,60ede3a46518486a1a1f995f,,,,,,,,,,,,
"[""comma""]",0,[0.4119999999999777],109,0,109,0,1,60e96b12a9bf38cf4eb19c56,Kobieta,19,2021-07-13_21h13.50.299,rantool2,2021.1.4,Win32,29.93563838,60e96b12a9bf38cf4eb19c56,60d9d14f4a8a35a482e0d9bf,60ede3a46518486a1a1f995f,,,,,,,,,,,,
"[""period""]",0,[0.4124999999999659],110,0,110,0,1,60e96b12a9bf38cf4eb19c56,Kobieta,19,2021-07-13_21h13.50.299,rantool2,2021.1.4,Win32,29.93563838,60e96b12a9bf38cf4eb19c56,60d9d14f4a8a35a482e0d9bf,60ede3a46518486a1a1f995f,,,,,,,,,,,,
"[""comma""]",0,[0.4615999999977589],111,0,111,0,1,60e96b12a9bf38cf4eb19c56,Kobieta,19,2021-07-13_21h13.50.299,rantool2,2021.1.4,Win32,29.93563838,60e96b12a9bf38cf4eb19c56,60d9d14f4a8a35a482e0d9bf,60ede3a46518486a1a1f995f,,,,,,,,,,,,
"[""period""]",0,[0.401800000000776],112,0,112,0,1,60e96b12a9bf38cf4eb19c56,Kobieta,19,2021-07-13_21h13.50.299,rantool2,2021.1.4,Win32,29.93563838,60e96b12a9bf38cf4eb19c56,60d9d14f4a8a35a482e0d9bf,60ede3a46518486a1a1f995f,,,,,,,,,,,,
"[""comma""]",0,[0.7760000000000105],113,0,113,0,1,60e96b12a9bf38cf4eb19c56,Kobieta,19,2021-07-13_21h13.50.299,rantool2,2021.1.4,Win32,29.93563838,60e96b12a9bf38cf4eb19c56,60d9d14f4a8a35a482e0d9bf,60ede3a46518486a1a1f995f,,,,,,,,,,,,
"[""period""]",0,[0.33730000000076643],114,0,114,0,1,60e96b12a9bf38cf4eb19c56,Kobieta,19,2021-07-13_21h13.50.299,rantool2,2021.1.4,Win32,29.93563838,60e96b12a9bf38cf4eb19c56,60d9d14f4a8a35a482e0d9bf,60ede3a46518486a1a1f995f,,,,,,,,,,,,
"[""comma""]",0,[0.4563000000007378],115,0,115,0,1,60e96b12a9bf38cf4eb19c56,Kobieta,19,2021-07-13_21h13.50.299,rantool2,2021.1.4,Win32,29.93563838,60e96b12a9bf38cf4eb19c56,60d9d14f4a8a35a482e0d9bf,60ede3a46518486a1a1f995f,,,,,,,,,,,,
"[""period""]",0,[0.42080000000078144],116,0,116,0,1,60e96b12a9bf38cf4eb19c56,Kobieta,19,2021-07-13_21h13.50.299,rantool2,2021.1.4,Win32,29.93563838,60e96b12a9bf38cf4eb19c56,60d9d14f4a8a35a482e0d9bf,60ede3a46518486a1a1f995f,,,,,,,,,,,,
"[""comma""]",0,[0.40630000000078326],117,0,117,0,1,60e96b12a9bf38cf4eb19c56,Kobieta,19,2021-07-13_21h13.50.299,rantool2,2021.1.4,Win32,29.93563838,60e96b12a9bf38cf4eb19c56,60d9d14f4a8a35a482e0d9bf,60ede3a46518486a1a1f995f,,,,,,,,,,,,
"[""period""]",0,[0.5615999999977817],118,0,118,0,1,60e96b12a9bf38cf4eb19c56,Kobieta,19,2021-07-13_21h13.50.299,rantool2,2021.1.4,Win32,29.93563838,60e96b12a9bf38cf4eb19c56,60d9d14f4a8a35a482e0d9bf,60ede3a46518486a1a1f995f,,,,,,,,,,,,
"[""comma""]",0,[0.3936999999992281],119,0,119,0,1,60e96b12a9bf38cf4eb19c56,Kobieta,19,2021-07-13_21h13.50.299,rantool2,2021.1.4,Win32,29.93563838,60e96b12a9bf38cf4eb19c56,60d9d14f4a8a35a482e0d9bf,60ede3a46518486a1a1f995f,,,,,,,,,,,,
,,,,,,,,60e96b12a9bf38cf4eb19c56,Kobieta,19,2021-07-13_21h13.50.299,rantool2,2021.1.4,Win32,29.93563838,60e96b12a9bf38cf4eb19c56,60d9d14f4a8a35a482e0d9bf,60ede3a46518486a1a1f995f,f,2.8969,0,0,0,38,1,ROORROO,ROORROR,21.79500819,21.36812781,series_0
,,,,,,,,60e96b12a9bf38cf4eb19c56,Kobieta,19,2021-07-13_21h13.50.299,rantool2,2021.1.4,Win32,29.93563838,60e96b12a9bf38cf4eb19c56,60d9d14f4a8a35a482e0d9bf,60ede3a46518486a1a1f995f,f,2.7223,0,1,1,25,1,ORROORO,ORROORR,21.79500819,22.61624387,series_1
,,,,,,,,60e96b12a9bf38cf4eb19c56,Kobieta,19,2021-07-13_21h13.50.299,rantool2,2021.1.4,Win32,29.93563838,60e96b12a9bf38cf4eb19c56,60d9d14f4a8a35a482e0d9bf,60ede3a46518486a1a1f995f,j,2.7375,0,2,2,58,1,RRROROO,RRROROR,22.1285618,21.37121559,series_0
,,,,,,,,60e96b12a9bf38cf4eb19c56,Kobieta,19,2021-07-13_21h13.50.299,rantool2,2021.1.4,Win32,29.93563838,60e96b12a9bf38cf4eb19c56,60d9d14f4a8a35a482e0d9bf,60ede3a46518486a1a1f995f,f,1.966,0,3,3,16,1,OROOOOO,OROOOOR,20.43051175,21.17347734,series_1
,,,,,,,,60e96b12a9bf38cf4eb19c56,Kobieta,19,2021-07-13_21h13.50.299,rantool2,2021.1.4,Win32,29.93563838,60e96b12a9bf38cf4eb19c56,60d9d14f4a8a35a482e0d9bf,60ede3a46518486a1a1f995f,f,3.3226,0,4,4,46,1,RORRROO,RORRROR,22.00300695,21.24781509,series_0
,,,,,,,,60e96b12a9bf38cf4eb19c56,Kobieta,19,2021-07-13_21h13.50.299,rantool2,2021.1.4,Win32,29.93563838,60e96b12a9bf38cf4eb19c56,60d9d14f4a8a35a482e0d9bf,60ede3a46518486a1a1f995f,j,1.5939,0,5,5,45,1,RORRORO,RORRORR,20.78182524,21.22513037,series_1
,,,,,,,,60e96b12a9bf38cf4eb19c56,Kobieta,19,2021-07-13_21h13.50.299,rantool2,2021.1.4,Win32,29.93563838,60e96b12a9bf38cf4eb19c56,60d9d14f4a8a35a482e0d9bf,60ede3a46518486a1a1f995f,j,1.8453,0,6,6,15,1,OORRRRO,OORRRRR,22.10108823,21.74922619,series_0
,,,,,,,,60e96b12a9bf38cf4eb19c56,Kobieta,19,2021-07-13_21h13.50.299,rantool2,2021.1.4,Win32,29.93563838,60e96b12a9bf38cf4eb19c56,60d9d14f4a8a35a482e0d9bf,60ede3a46518486a1a1f995f,j,1.735,0,7,7,41,1,ROROORO,ROROORR,20.42602454,21.71443381,series_1
,,,,,,,,60e96b12a9bf38cf4eb19c56,Kobieta,19,2021-07-13_21h13.50.299,rantool2,2021.1.4,Win32,29.93563838,60e96b12a9bf38cf4eb19c56,60d9d14f4a8a35a482e0d9bf,60ede3a46518486a1a1f995f,f,1.5779,0,8,8,12,1,OORROOO,OORROOR,21.30250474,22.02786418,series_1
,,,,,,,,60e96b12a9bf38cf4eb19c56,Kobieta,19,2021-07-13_21h13.50.299,rantool2,2021.1.4,Win32,29.93563838,60e96b12a9bf38cf4eb19c56,60d9d14f4a8a35a482e0d9bf,60ede3a46518486a1a1f995f,j,1.569,0,9,9,14,1,OORRROO,OORRROR,22.24142883,22.16977179,series_0
,,,,,,,,60e96b12a9bf38cf4eb19c56,Kobieta,19,2021-07-13_21h13.50.299,rantool2,2021.1.4,Win32,29.93563838,60e96b12a9bf38cf4eb19c56,60d9d14f4a8a35a482e0d9bf,60ede3a46518486a1a1f995f,f,3.1039,0,10,10,47,1,RORRRRO,RORRRRR,21.81333602,21.02936224,series_0
,,,,,,,,60e96b12a9bf38cf4eb19c56,Kobieta,19,2021-07-13_21h13.50.299,rantool2,2021.1.4,Win32,29.93563838,60e96b12a9bf38cf4eb19c56,60d9d14f4a8a35a482e0d9bf,60ede3a46518486a1a1f995f,j,1.3332,0,11,11,33,1,ROOOORO,ROOOORR,20.83779602,22.03072203,series_1
,,,,,,,,60e96b12a9bf38cf4eb19c56,Kobieta,19,2021-07-13_21h13.50.299,rantool2,2021.1.4,Win32,29.93563838,60e96b12a9bf38cf4eb19c56,60d9d14f4a8a35a482e0d9bf,60ede3a46518486a1a1f995f,j,1.2386,0,12,12,22,1,ORORROO,ORORROR,22.02732763,21.57657071,series_0
,,,,,,,,60e96b12a9bf38cf4eb19c56,Kobieta,19,2021-07-13_21h13.50.299,rantool2,2021.1.4,Win32,29.93563838,60e96b12a9bf38cf4eb19c56,60d9d14f4a8a35a482e0d9bf,60ede3a46518486a1a1f995f,j,1.3571,0,13,13,20,1,OROROOO,OROROOR,21.31236711,21.90565814,series_1
,,,,,,,,60e96b12a9bf38cf4eb19c56,Kobieta,19,2021-07-13_21h13.50.299,rantool2,2021.1.4,Win32,29.93563838,60e96b12a9bf38cf4eb19c56,60d9d14f4a8a35a482e0d9bf,60ede3a46518486a1a1f995f,f,1.4867,0,14,14,50,1,RROOROO,RROOROR,21.73568164,22.02566557,series_1
,,,,,,,,60e96b12a9bf38cf4eb19c56,Kobieta,19,2021-07-13_21h13.50.299,rantool2,2021.1.4,Win32,29.93563838,60e96b12a9bf38cf4eb19c56,60d9d14f4a8a35a482e0d9bf,60ede3a46518486a1a1f995f,f,1.9222,0,15,15,27,1,ORRORRO,ORRORRR,21.55250791,22.2428857,series_1
,,,,,,,,60e96b12a9bf38cf4eb19c56,Kobieta,19,2021-07-13_21h13.50.299,rantool2,2021.1.4,Win32,29.93563838,60e96b12a9bf38cf4eb19c56,60d9d14f4a8a35a482e0d9bf,60ede3a46518486a1a1f995f,j,1.7355,0,16,16,48,1,RROOOOO,RROOOOR,20.90986523,22.15934078,series_1
,,,,,,,,60e96b12a9bf38cf4eb19c56,Kobieta,19,2021-07-13_21h13.50.299,rantool2,2021.1.4,Win32,29.93563838,60e96b12a9bf38cf4eb19c56,60d9d14f4a8a35a482e0d9bf,60ede3a46518486a1a1f995f,f,1.7211,0,17,17,23,1,ORORRRO,ORORRRR,22.1285618,21.9921709,series_0
,,,,,,,,60e96b12a9bf38cf4eb19c56,Kobieta,19,2021-07-13_21h13.50.299,rantool2,2021.1.4,Win32,29.93563838,60e96b12a9bf38cf4eb19c56,60d9d14f4a8a35a482e0d9bf,60ede3a46518486a1a1f995f,j,1.6493,0,18,18,17,1,OROOORO,OROOORR,21.03750787,22.12173012,series_1
,,,,,,,,60e96b12a9bf38cf4eb19c56,Kobieta,19,2021-07-13_21h13.50.299,rantool2,2021.1.4,Win32,29.93563838,60e96b12a9bf38cf4eb19c56,60d9d14f4a8a35a482e0d9bf,60ede3a46518486a1a1f995f,f,1.6267,0,19,19,21,1,ORORORO,ORORORR,20.39515459,22.06781359,series_1
,,,,,,,,60e96b12a9bf38cf4eb19c56,Kobieta,19,2021-07-13_21h13.50.299,rantool2,2021.1.4,Win32,29.93563838,60e96b12a9bf38cf4eb19c56,60d9d14f4a8a35a482e0d9bf,60ede3a46518486a1a1f995f,j,1.3147,0,20,20,61,1,RRRRORO,RRRRORR,21.81333602,21.17347734,series_0
,,,,,,,,60e96b12a9bf38cf4eb19c56,Kobieta,19,2021-07-13_21h13.50.299,rantool2,2021.1.4,Win32,29.93563838,60e96b12a9bf38cf4eb19c56,60d9d14f4a8a35a482e0d9bf,60ede3a46518486a1a1f995f,j,1.4214,0,21,21,19,1,OROORRO,OROORRR,21.73568164,22.11181017,series_1
,,,,,,,,60e96b12a9bf38cf4eb19c56,Kobieta,19,2021-07-13_21h13.50.299,rantool2,2021.1.4,Win32,29.93563838,60e96b12a9bf38cf4eb19c56,60d9d14f4a8a35a482e0d9bf,60ede3a46518486a1a1f995f,j,1.4775,0,22,22,32,1,ROOOOOO,ROOOOOR,19.92253567,21.27974287,series_1
,,,,,,,,60e96b12a9bf38cf4eb19c56,Kobieta,19,2021-07-13_21h13.50.299,rantool2,2021.1.4,Win32,29.93563838,60e96b12a9bf38cf4eb19c56,60d9d14f4a8a35a482e0d9bf,60ede3a46518486a1a1f995f,f,2.119,0,23,23,62,1,RRRRROO,RRRRROR,22.16413392,21.27974287,series_0
,,,,,,,,60e96b12a9bf38cf4eb19c56,Kobieta,19,2021-07-13_21h13.50.299,rantool2,2021.1.4,Win32,29.93563838,60e96b12a9bf38cf4eb19c56,60d9d14f4a8a35a482e0d9bf,60ede3a46518486a1a1f995f,j,1.5256,0,24,24,57,1,RRROORO,RRROORR,21.82425538,22.07102821,series_1
,,,,,,,,60e96b12a9bf38cf4eb19c56,Kobieta,19,2021-07-13_21h13.50.299,rantool2,2021.1.4,Win32,29.93563838,60e96b12a9bf38cf4eb19c56,60d9d14f4a8a35a482e0d9bf,60ede3a46518486a1a1f995f,j,1.7527,0,25,25,52,1,RROROOO,RROROOR,22.18365867,22.11097995,series_0
,,,,,,,,60e96b12a9bf38cf4eb19c56,Kobieta,19,2021-07-13_21h13.50.299,rantool2,2021.1.4,Win32,29.93563838,60e96b12a9bf38cf4eb19c56,60d9d14f4a8a35a482e0d9bf,60ede3a46518486a1a1f995f,j,3.1817,0,26,26,31,1,ORRRRRO,ORRRRRR,22.16413392,20.74050628,series_0
,,,,,,,,60e96b12a9bf38cf4eb19c56,Kobieta,19,2021-07-13_21h13.50.299,rantool2,2021.1.4,Win32,29.93563838,60e96b12a9bf38cf4eb19c56,60d9d14f4a8a35a482e0d9bf,60ede3a46518486a1a1f995f,f,1.2417,0,27,27,49,1,RROOORO,RROOORR,21.76276513,22.53364006,series_1
,,,,,,,,60e96b12a9bf38cf4eb19c56,Kobieta,19,2021-07-13_21h13.50.299,rantool2,2021.1.4,Win32,29.93563838,60e96b12a9bf38cf4eb19c56,60d9d14f4a8a35a482e0d9bf,60ede3a46518486a1a1f995f,j,1.4261,0,28,28,39,1,ROORRRO,ROORRRR,21.82425538,21.38562617,series_0
,,,,,,,,60e96b12a9bf38cf4eb19c56,Kobieta,19,2021-07-13_21h13.50.299,rantool2,2021.1.4,Win32,29.93563838,60e96b12a9bf38cf4eb19c56,60d9d14f4a8a35a482e0d9bf,60ede3a46518486a1a1f995f,f,1.2975,0,29,29,37,1,ROORORO,ROORORR,20.42602454,21.57657071,series_1
,,,,,,,,60e96b12a9bf38cf4eb19c56,Kobieta,19,2021-07-13_21h13.50.299,rantool2,2021.1.4,Win32,29.93563838,60e96b12a9bf38cf4eb19c56,60d9d14f4a8a35a482e0d9bf,60ede3a46518486a1a1f995f,j,1.356,0,30,30,26,1,ORROROO,ORROROR,22.02732763,21.71443381,series_0
,,,,,,,,60e96b12a9bf38cf4eb19c56,Kobieta,19,2021-07-13_21h13.50.299,rantool2,2021.1.4,Win32,29.93563838,60e96b12a9bf38cf4eb19c56,60d9d14f4a8a35a482e0d9bf,60ede3a46518486a1a1f995f,j,1.3711,0,31,31,60,1,RRRROOO,RRRROOR,22.10108823,22.15934078,series_1
,,,,,,,,60e96b12a9bf38cf4eb19c56,Kobieta,19,2021-07-13_21h13.50.299,rantool2,2021.1.4,Win32,29.93563838,60e96b12a9bf38cf4eb19c56,60d9d14f4a8a35a482e0d9bf,60ede3a46518486a1a1f995f,f,1.3551,0,32,32,18,1,OROOROO,OROOROR,20.84860893,21.22513037,series_1
,,,,,,,,60e96b12a9bf38cf4eb19c56,Kobieta,19,2021-07-13_21h13.50.299,rantool2,2021.1.4,Win32,29.93563838,60e96b12a9bf38cf4eb19c56,60d9d14f4a8a35a482e0d9bf,60ede3a46518486a1a1f995f,f,1.3004,0,33,33,5,1,OOORORO,OOORORR,20.87963819,21.9921709,series_1
,,,,,,,,60e96b12a9bf38cf4eb19c56,Kobieta,19,2021-07-13_21h13.50.299,rantool2,2021.1.4,Win32,29.93563838,60e96b12a9bf38cf4eb19c56,60d9d14f4a8a35a482e0d9bf,60ede3a46518486a1a1f995f,f,1.3236,0,34,34,54,1,RRORROO,RRORROR,21.55250791,20.9984461,series_0
,,,,,,,,60e96b12a9bf38cf4eb19c56,Kobieta,19,2021-07-13_21h13.50.299,rantool2,2021.1.4,Win32,29.93563838,60e96b12a9bf38cf4eb19c56,60d9d14f4a8a35a482e0d9bf,60ede3a46518486a1a1f995f,f,1.7043,0,35,35,9,1,OOROORO,OOROORR,21.07991943,22.2428857,series_1
,,,,,,,,60e96b12a9bf38cf4eb19c56,Kobieta,19,2021-07-13_21h13.50.299,rantool2,2021.1.4,Win32,29.93563838,60e96b12a9bf38cf4eb19c56,60d9d14f4a8a35a482e0d9bf,60ede3a46518486a1a1f995f,j,1.173,0,36,36,51,1,RROORRO,RROORRR,21.89852628,22.02786418,series_1
,,,,,,,,60e96b12a9bf38cf4eb19c56,Kobieta,19,2021-07-13_21h13.50.299,rantool2,2021.1.4,Win32,29.93563838,60e96b12a9bf38cf4eb19c56,60d9d14f4a8a35a482e0d9bf,60ede3a46518486a1a1f995f,f,1.583,0,37,37,63,1,RRRRRRO,RRRRRRR,21.35278725,19.62521613,series_0
,,,,,,,,60e96b12a9bf38cf4eb19c56,Kobieta,19,2021-07-13_21h13.50.299,rantool2,2021.1.4,Win32,29.93563838,60e96b12a9bf38cf4eb19c56,60d9d14f4a8a35a482e0d9bf,60ede3a46518486a1a1f995f,j,1.532,0,38,38,4,1,OOOROOO,OOOROOR,19.91402015,21.21223021,series_1
,,,,,,,,60e96b12a9bf38cf4eb19c56,Kobieta,19,2021-07-13_21h13.50.299,rantool2,2021.1.4,Win32,29.93563838,60e96b12a9bf38cf4eb19c56,60d9d14f4a8a35a482e0d9bf,60ede3a46518486a1a1f995f,j,1.0952,0,39,39,35,1,ROOORRO,ROOORRR,21.76276513,22.16977179,series_1
,,,,,,,,60e96b12a9bf38cf4eb19c56,Kobieta,19,2021-07-13_21h13.50.299,rantool2,2021.1.4,Win32,29.93563838,60e96b12a9bf38cf4eb19c56,60d9d14f4a8a35a482e0d9bf,60ede3a46518486a1a1f995f,j,1.0328,0,40,40,10,1,OOROROO,OOROROR,21.31236711,21.07490964,series_0
,,,,,,,,60e96b12a9bf38cf4eb19c56,Kobieta,19,2021-07-13_21h13.50.299,rantool2,2021.1.4,Win32,29.93563838,60e96b12a9bf38cf4eb19c56,60d9d14f4a8a35a482e0d9bf,60ede3a46518486a1a1f995f,j,1.1822,0,41,41,3,1,OOOORRO,OOOORRR,20.90986523,21.74922619,series_1
,,,,,,,,60e96b12a9bf38cf4eb19c56,Kobieta,19,2021-07-13_21h13.50.299,rantool2,2021.1.4,Win32,29.93563838,60e96b12a9bf38cf4eb19c56,60d9d14f4a8a35a482e0d9bf,60ede3a46518486a1a1f995f,j,1.1715,0,42,42,2,1,OOOOROO,OOOOROR,20.43051175,21.02936224,series_1
,,,,,,,,60e96b12a9bf38cf4eb19c56,Kobieta,19,2021-07-13_21h13.50.299,rantool2,2021.1.4,Win32,29.93563838,60e96b12a9bf38cf4eb19c56,60d9d14f4a8a35a482e0d9bf,60ede3a46518486a1a1f995f,f,2.0038,0,43,43,43,1,RORORRO,RORORRR,20.71309134,21.07490964,series_1
,,,,,,,,60e96b12a9bf38cf4eb19c56,Kobieta,19,2021-07-13_21h13.50.299,rantool2,2021.1.4,Win32,29.93563838,60e96b12a9bf38cf4eb19c56,60d9d14f4a8a35a482e0d9bf,60ede3a46518486a1a1f995f,f,1.5785,0,44,44,55,1,RRORRRO,RRORRRR,21.56657303,21.21223021,series_0
,,,,,,,,60e96b12a9bf38cf4eb19c56,Kobieta,19,2021-07-13_21h13.50.299,rantool2,2021.1.4,Win32,29.93563838,60e96b12a9bf38cf4eb19c56,60d9d14f4a8a35a482e0d9bf,60ede3a46518486a1a1f995f,f,0.331,0,45,45,1,1,OOOOORO,OOOOORR,19.92253567,20.74050628,series_1
,,,,,,,,60e96b12a9bf38cf4eb19c56,Kobieta,19,2021-07-13_21h13.50.299,rantool2,2021.1.4,Win32,29.93563838,60e96b12a9bf38cf4eb19c56,60d9d14f4a8a35a482e0d9bf,60ede3a46518486a1a1f995f,j,0.9589,0,46,46,24,1,ORROOOO,ORROOOR,21.12383932,22.07102821,series_1
,,,,,,,,60e96b12a9bf38cf4eb19c56,Kobieta,19,2021-07-13_21h13.50.299,rantool2,2021.1.4,Win32,29.93563838,60e96b12a9bf38cf4eb19c56,60d9d14f4a8a35a482e0d9bf,60ede3a46518486a1a1f995f,j,0.0362,0,47,47,44,1,RORROOO,RORROOR,21.66733484,22.02566557,series_1
,,,,,,,,60e96b12a9bf38cf4eb19c56,Kobieta,19,2021-07-13_21h13.50.299,rantool2,2021.1.4,Win32,29.93563838,60e96b12a9bf38cf4eb19c56,60d9d14f4a8a35a482e0d9bf,60ede3a46518486a1a1f995f,f,1.1703,0,48,48,59,1,RRRORRO,RRRORRR,21.56657303,20.89823192,series_0
,,,,,,,,60e96b12a9bf38cf4eb19c56,Kobieta,19,2021-07-13_21h13.50.299,rantool2,2021.1.4,Win32,29.93563838,60e96b12a9bf38cf4eb19c56,60d9d14f4a8a35a482e0d9bf,60ede3a46518486a1a1f995f,f,1.3138,0,49,49,7,1,OOORRRO,OOORRRR,21.6194508,21.899017,series_1
,,,,,,,,60e96b12a9bf38cf4eb19c56,Kobieta,19,2021-07-13_21h13.50.299,rantool2,2021.1.4,Win32,29.93563838,60e96b12a9bf38cf4eb19c56,60d9d14f4a8a35a482e0d9bf,60ede3a46518486a1a1f995f,j,1.0371,0,50,50,29,1,ORRRORO,ORRRORR,22.00300695,22.12173012,series_1
,,,,,,,,60e96b12a9bf38cf4eb19c56,Kobieta,19,2021-07-13_21h13.50.299,rantool2,2021.1.4,Win32,29.93563838,60e96b12a9bf38cf4eb19c56,60d9d14f4a8a35a482e0d9bf,60ede3a46518486a1a1f995f,f,1.3745,0,51,51,53,1,RRORORO,RRORORR,20.71309134,21.90565814,series_1
,,,,,,,,60e96b12a9bf38cf4eb19c56,Kobieta,19,2021-07-13_21h13.50.299,rantool2,2021.1.4,Win32,29.93563838,60e96b12a9bf38cf4eb19c56,60d9d14f4a8a35a482e0d9bf,60ede3a46518486a1a1f995f,j,1.1713,0,52,52,11,1,OORORRO,OORORRR,22.18365867,22.6797523,series_1
,,,,,,,,60e96b12a9bf38cf4eb19c56,Kobieta,19,2021-07-13_21h13.50.299,rantool2,2021.1.4,Win32,29.93563838,60e96b12a9bf38cf4eb19c56,60d9d14f4a8a35a482e0d9bf,60ede3a46518486a1a1f995f,j,1.6348,0,53,53,42,1,ROROROO,ROROROR,20.39515459,19.8361834,series_0
,,,,,,,,60e96b12a9bf38cf4eb19c56,Kobieta,19,2021-07-13_21h13.50.299,rantool2,2021.1.4,Win32,29.93563838,60e96b12a9bf38cf4eb19c56,60d9d14f4a8a35a482e0d9bf,60ede3a46518486a1a1f995f,f,1.0882,0,54,54,30,1,ORRRROO,ORRRROR,22.46748491,22.03072203,series_0
,,,,,,,,60e96b12a9bf38cf4eb19c56,Kobieta,19,2021-07-13_21h13.50.299,rantool2,2021.1.4,Win32,29.93563838,60e96b12a9bf38cf4eb19c56,60d9d14f4a8a35a482e0d9bf,60ede3a46518486a1a1f995f,j,1.6197,0,55,55,0,1,OOOOOOO,OOOOOOR,18.52739004,19.62521613,series_1
,,,,,,,,60e96b12a9bf38cf4eb19c56,Kobieta,19,2021-07-13_21h13.50.299,rantool2,2021.1.4,Win32,29.93563838,60e96b12a9bf38cf4eb19c56,60d9d14f4a8a35a482e0d9bf,60ede3a46518486a1a1f995f,j,1.2785,0,56,56,28,1,ORRROOO,ORRROOR,22.24142883,22.53364006,series_1
,,,,,,,,60e96b12a9bf38cf4eb19c56,Kobieta,19,2021-07-13_21h13.50.299,rantool2,2021.1.4,Win32,29.93563838,60e96b12a9bf38cf4eb19c56,60d9d14f4a8a35a482e0d9bf,60ede3a46518486a1a1f995f,f,1.6314,0,57,57,36,1,ROOROOO,ROOROOR,21.07991943,20.9984461,series_0
,,,,,,,,60e96b12a9bf38cf4eb19c56,Kobieta,19,2021-07-13_21h13.50.299,rantool2,2021.1.4,Win32,29.93563838,60e96b12a9bf38cf4eb19c56,60d9d14f4a8a35a482e0d9bf,60ede3a46518486a1a1f995f,j,1.7684,0,58,58,34,1,ROOOROO,ROOOROR,21.03750787,21.24781509,series_1
,,,,,,,,60e96b12a9bf38cf4eb19c56,Kobieta,19,2021-07-13_21h13.50.299,rantool2,2021.1.4,Win32,29.93563838,60e96b12a9bf38cf4eb19c56,60d9d14f4a8a35a482e0d9bf,60ede3a46518486a1a1f995f,j,1.7252,0,59,59,13,1,OORRORO,OORRORR,21.66733484,22.11181017,series_1
,,,,,,,,60e96b12a9bf38cf4eb19c56,Kobieta,19,2021-07-13_21h13.50.299,rantool2,2021.1.4,Win32,29.93563838,60e96b12a9bf38cf4eb19c56,60d9d14f4a8a35a482e0d9bf,60ede3a46518486a1a1f995f,j,1.7361,0,60,60,40,1,ROROOOO,ROROOOR,20.87963819,21.37121559,series_1
,,,,,,,,60e96b12a9bf38cf4eb19c56,Kobieta,19,2021-07-13_21h13.50.299,rantool2,2021.1.4,Win32,29.93563838,60e96b12a9bf38cf4eb19c56,60d9d14f4a8a35a482e0d9bf,60ede3a46518486a1a1f995f,f,1.2813,0,61,61,56,1,RRROOOO,RRROOOR,21.6194508,22.31681875,series_1
,,,,,,,,60e96b12a9bf38cf4eb19c56,Kobieta,19,2021-07-13_21h13.50.299,rantool2,2021.1.4,Win32,29.93563838,60e96b12a9bf38cf4eb19c56,60d9d14f4a8a35a482e0d9bf,60ede3a46518486a1a1f995f,j,2.4636,0,62,62,6,1,OOORROO,OOORROR,21.12383932,21.38562617,series_1
,,,,,,,,60e96b12a9bf38cf4eb19c56,Kobieta,19,2021-07-13_21h13.50.299,rantool2,2021.1.4,Win32,29.93563838,60e96b12a9bf38cf4eb19c56,60d9d14f4a8a35a482e0d9bf,60ede3a46518486a1a1f995f,f,1.551,0,63,63,8,1,OOROOOO,OOROOOR,19.91402015,20.89823192,series_1
