key_resp_5.keys,key_resp_5.corr,key_resp_5.rt,trials.thisRepN,trials.thisTrialN,trials.thisN,trials.thisIndex,trials.ran,id*,Płeć*,Wiek*,date,expName,psychopyVersion,OS,frameRate,id,STUDY_ID,SESSION_ID,key_resp_7.keys,key_resp_7.rt,trials_2.thisRepN,trials_2.thisTrialN,trials_2.thisN,trials_2.thisIndex,trials_2.ran,series_0,series_1,acss_0,acss_1,comparison
"[""comma""]",0,[1.5368000000007385],0,0,0,0,1,5f979d85f973911610677cd2,Mężczyzna,22,2021-07-13_21h48.41.347,rantool2,2021.1.4,Win32,59.99160118,5f979d85f973911610677cd2,60d9d14f4a8a35a482e0d9bf,60ededd7a85ae57505b41553,,,,,,,,,,,,
"[""period""]",0,[0.5388000000007338],1,0,1,0,1,5f979d85f973911610677cd2,Mężczyzna,22,2021-07-13_21h48.41.347,rantool2,2021.1.4,Win32,59.99160118,5f979d85f973911610677cd2,60d9d14f4a8a35a482e0d9bf,60ededd7a85ae57505b41553,,,,,,,,,,,,
"[""period""]",0,[0.38700000000000045],2,0,2,0,1,5f979d85f973911610677cd2,Mężczyzna,22,2021-07-13_21h48.41.347,rantool2,2021.1.4,Win32,59.99160118,5f979d85f973911610677cd2,60d9d14f4a8a35a482e0d9bf,60ededd7a85ae57505b41553,,,,,,,,,,,,
"[""period""]",0,[0.2842999999988933],3,0,3,0,1,5f979d85f973911610677cd2,Mężczyzna,22,2021-07-13_21h48.41.347,rantool2,2021.1.4,Win32,59.99160118,5f979d85f973911610677cd2,60d9d14f4a8a35a482e0d9bf,60ededd7a85ae57505b41553,,,,,,,,,,,,
"[""comma""]",0,[0.3001999999992506],4,0,4,0,1,5f979d85f973911610677cd2,Mężczyzna,22,2021-07-13_21h48.41.347,rantool2,2021.1.4,Win32,59.99160118,5f979d85f973911610677cd2,60d9d14f4a8a35a482e0d9bf,60ededd7a85ae57505b41553,,,,,,,,,,,,
"[""period""]",0,[0.33930000000074756],5,0,5,0,1,5f979d85f973911610677cd2,Mężczyzna,22,2021-07-13_21h48.41.347,rantool2,2021.1.4,Win32,59.99160118,5f979d85f973911610677cd2,60d9d14f4a8a35a482e0d9bf,60ededd7a85ae57505b41553,,,,,,,,,,,,
"[""period""]",0,[0.2591000000014958],6,0,6,0,1,5f979d85f973911610677cd2,Mężczyzna,22,2021-07-13_21h48.41.347,rantool2,2021.1.4,Win32,59.99160118,5f979d85f973911610677cd2,60d9d14f4a8a35a482e0d9bf,60ededd7a85ae57505b41553,,,,,,,,,,,,
"[""comma""]",0,[0.2731000000015058],7,0,7,0,1,5f979d85f973911610677cd2,Mężczyzna,22,2021-07-13_21h48.41.347,rantool2,2021.1.4,Win32,59.99160118,5f979d85f973911610677cd2,60d9d14f4a8a35a482e0d9bf,60ededd7a85ae57505b41553,,,,,,,,,,,,
"[""comma""]",0,[0.2022000000011417],8,0,8,0,1,5f979d85f973911610677cd2,Mężczyzna,22,2021-07-13_21h48.41.347,rantool2,2021.1.4,Win32,59.99160118,5f979d85f973911610677cd2,60d9d14f4a8a35a482e0d9bf,60ededd7a85ae57505b41553,,,,,,,,,,,,
"[""period""]",0,[0.5231000000015058],9,0,9,0,1,5f979d85f973911610677cd2,Mężczyzna,22,2021-07-13_21h48.41.347,rantool2,2021.1.4,Win32,59.99160118,5f979d85f973911610677cd2,60d9d14f4a8a35a482e0d9bf,60ededd7a85ae57505b41553,,,,,,,,,,,,
"[""comma""]",0,[0.3816000000014981],10,0,10,0,1,5f979d85f973911610677cd2,Mężczyzna,22,2021-07-13_21h48.41.347,rantool2,2021.1.4,Win32,59.99160118,5f979d85f973911610677cd2,60d9d14f4a8a35a482e0d9bf,60ededd7a85ae57505b41553,,,,,,,,,,,,
"[""comma""]",0,[0.29990000000037753],11,0,11,0,1,5f979d85f973911610677cd2,Mężczyzna,22,2021-07-13_21h48.41.347,rantool2,2021.1.4,Win32,59.99160118,5f979d85f973911610677cd2,60d9d14f4a8a35a482e0d9bf,60ededd7a85ae57505b41553,,,,,,,,,,,,
"[""comma""]",0,[0.25900000000001455],12,0,12,0,1,5f979d85f973911610677cd2,Mężczyzna,22,2021-07-13_21h48.41.347,rantool2,2021.1.4,Win32,59.99160118,5f979d85f973911610677cd2,60d9d14f4a8a35a482e0d9bf,60ededd7a85ae57505b41553,,,,,,,,,,,,
"[""period""]",0,[1.8835999999996318],13,0,13,0,1,5f979d85f973911610677cd2,Mężczyzna,22,2021-07-13_21h48.41.347,rantool2,2021.1.4,Win32,59.99160118,5f979d85f973911610677cd2,60d9d14f4a8a35a482e0d9bf,60ededd7a85ae57505b41553,,,,,,,,,,,,
0,0,,14,0,14,0,1,5f979d85f973911610677cd2,Mężczyzna,22,2021-07-13_21h48.41.347,rantool2,2021.1.4,Win32,59.99160118,5f979d85f973911610677cd2,60d9d14f4a8a35a482e0d9bf,60ededd7a85ae57505b41553,,,,,,,,,,,,
"[""comma""]",0,[0.3349000000003741],15,0,15,0,1,5f979d85f973911610677cd2,Mężczyzna,22,2021-07-13_21h48.41.347,rantool2,2021.1.4,Win32,59.99160118,5f979d85f973911610677cd2,60d9d14f4a8a35a482e0d9bf,60ededd7a85ae57505b41553,,,,,,,,,,,,
"[""period""]",0,[0.28480000000075734],16,0,16,0,1,5f979d85f973911610677cd2,Mężczyzna,22,2021-07-13_21h48.41.347,rantool2,2021.1.4,Win32,59.99160118,5f979d85f973911610677cd2,60d9d14f4a8a35a482e0d9bf,60ededd7a85ae57505b41553,,,,,,,,,,,,
"[""period""]",0,[0.5076000000015028],17,0,17,0,1,5f979d85f973911610677cd2,Mężczyzna,22,2021-07-13_21h48.41.347,rantool2,2021.1.4,Win32,59.99160118,5f979d85f973911610677cd2,60d9d14f4a8a35a482e0d9bf,60ededd7a85ae57505b41553,,,,,,,,,,,,
"[""comma""]",0,[0.3349000000003741],18,0,18,0,1,5f979d85f973911610677cd2,Mężczyzna,22,2021-07-13_21h48.41.347,rantool2,2021.1.4,Win32,59.99160118,5f979d85f973911610677cd2,60d9d14f4a8a35a482e0d9bf,60ededd7a85ae57505b41553,,,,,,,,,,,,
"[""comma""]",0,[0.8433999999984962],19,0,19,0,1,5f979d85f973911610677cd2,Mężczyzna,22,2021-07-13_21h48.41.347,rantool2,2021.1.4,Win32,59.99160118,5f979d85f973911610677cd2,60d9d14f4a8a35a482e0d9bf,60ededd7a85ae57505b41553,,,,,,,,,,,,
"[""period""]",0,[0.2845000000000084],20,0,20,0,1,5f979d85f973911610677cd2,Mężczyzna,22,2021-07-13_21h48.41.347,rantool2,2021.1.4,Win32,59.99160118,5f979d85f973911610677cd2,60d9d14f4a8a35a482e0d9bf,60ededd7a85ae57505b41553,,,,,,,,,,,,
"[""period""]",0,[0.29159999999964725],21,0,21,0,1,5f979d85f973911610677cd2,Mężczyzna,22,2021-07-13_21h48.41.347,rantool2,2021.1.4,Win32,59.99160118,5f979d85f973911610677cd2,60d9d14f4a8a35a482e0d9bf,60ededd7a85ae57505b41553,,,,,,,,,,,,
"[""period""]",0,[0.1875],22,0,22,0,1,5f979d85f973911610677cd2,Mężczyzna,22,2021-07-13_21h48.41.347,rantool2,2021.1.4,Win32,59.99160118,5f979d85f973911610677cd2,60d9d14f4a8a35a482e0d9bf,60ededd7a85ae57505b41553,,,,,,,,,,,,
"[""period""]",0,[0.0005999999996504357],23,0,23,0,1,5f979d85f973911610677cd2,Mężczyzna,22,2021-07-13_21h48.41.347,rantool2,2021.1.4,Win32,59.99160118,5f979d85f973911610677cd2,60d9d14f4a8a35a482e0d9bf,60ededd7a85ae57505b41553,,,,,,,,,,,,
"[""comma""]",0,[0.30049999999999955],24,0,24,0,1,5f979d85f973911610677cd2,Mężczyzna,22,2021-07-13_21h48.41.347,rantool2,2021.1.4,Win32,59.99160118,5f979d85f973911610677cd2,60d9d14f4a8a35a482e0d9bf,60ededd7a85ae57505b41553,,,,,,,,,,,,
"[""period""]",0,[0.23699999999999477],25,0,25,0,1,5f979d85f973911610677cd2,Mężczyzna,22,2021-07-13_21h48.41.347,rantool2,2021.1.4,Win32,59.99160118,5f979d85f973911610677cd2,60d9d14f4a8a35a482e0d9bf,60ededd7a85ae57505b41553,,,,,,,,,,,,
"[""comma""]",0,[0.20119999999923266],26,0,26,0,1,5f979d85f973911610677cd2,Mężczyzna,22,2021-07-13_21h48.41.347,rantool2,2021.1.4,Win32,59.99160118,5f979d85f973911610677cd2,60d9d14f4a8a35a482e0d9bf,60ededd7a85ae57505b41553,,,,,,,,,,,,
"[""period""]",0,[0.26760000000149375],27,0,27,0,1,5f979d85f973911610677cd2,Mężczyzna,22,2021-07-13_21h48.41.347,rantool2,2021.1.4,Win32,59.99160118,5f979d85f973911610677cd2,60d9d14f4a8a35a482e0d9bf,60ededd7a85ae57505b41553,,,,,,,,,,,,
"[""period""]",0,[0.21940000000037685],28,0,28,0,1,5f979d85f973911610677cd2,Mężczyzna,22,2021-07-13_21h48.41.347,rantool2,2021.1.4,Win32,59.99160118,5f979d85f973911610677cd2,60d9d14f4a8a35a482e0d9bf,60ededd7a85ae57505b41553,,,,,,,,,,,,
"[""comma""]",0,[0.4194999999999993],29,0,29,0,1,5f979d85f973911610677cd2,Mężczyzna,22,2021-07-13_21h48.41.347,rantool2,2021.1.4,Win32,59.99160118,5f979d85f973911610677cd2,60d9d14f4a8a35a482e0d9bf,60ededd7a85ae57505b41553,,,,,,,,,,,,
"[""comma""]",0,[0.5016999999992322],30,0,30,0,1,5f979d85f973911610677cd2,Mężczyzna,22,2021-07-13_21h48.41.347,rantool2,2021.1.4,Win32,59.99160118,5f979d85f973911610677cd2,60d9d14f4a8a35a482e0d9bf,60ededd7a85ae57505b41553,,,,,,,,,,,,
"[""period"",""period""]",0,"[0.2847999999988815,1.8170999999996127]",31,0,31,0,1,5f979d85f973911610677cd2,Mężczyzna,22,2021-07-13_21h48.41.347,rantool2,2021.1.4,Win32,59.99160118,5f979d85f973911610677cd2,60d9d14f4a8a35a482e0d9bf,60ededd7a85ae57505b41553,,,,,,,,,,,,
"[""period""]",0,[0.8434000000003721],32,0,32,0,1,5f979d85f973911610677cd2,Mężczyzna,22,2021-07-13_21h48.41.347,rantool2,2021.1.4,Win32,59.99160118,5f979d85f973911610677cd2,60d9d14f4a8a35a482e0d9bf,60ededd7a85ae57505b41553,,,,,,,,,,,,
"[""period""]",0,[0.44359999999960564],33,0,33,0,1,5f979d85f973911610677cd2,Mężczyzna,22,2021-07-13_21h48.41.347,rantool2,2021.1.4,Win32,59.99160118,5f979d85f973911610677cd2,60d9d14f4a8a35a482e0d9bf,60ededd7a85ae57505b41553,,,,,,,,,,,,
"[""period""]",0,[0.291499999999985],34,0,34,0,1,5f979d85f973911610677cd2,Mężczyzna,22,2021-07-13_21h48.41.347,rantool2,2021.1.4,Win32,59.99160118,5f979d85f973911610677cd2,60d9d14f4a8a35a482e0d9bf,60ededd7a85ae57505b41553,,,,,,,,,,,,
"[""comma""]",0,[0.30750000000000455],35,0,35,0,1,5f979d85f973911610677cd2,Mężczyzna,22,2021-07-13_21h48.41.347,rantool2,2021.1.4,Win32,59.99160118,5f979d85f973911610677cd2,60d9d14f4a8a35a482e0d9bf,60ededd7a85ae57505b41553,,,,,,,,,,,,
"[""period""]",0,[0.3349000000003741],36,0,36,0,1,5f979d85f973911610677cd2,Mężczyzna,22,2021-07-13_21h48.41.347,rantool2,2021.1.4,Win32,59.99160118,5f979d85f973911610677cd2,60d9d14f4a8a35a482e0d9bf,60ededd7a85ae57505b41553,,,,,,,,,,,,
"[""comma""]",0,[0.2755000000000223],37,0,37,0,1,5f979d85f973911610677cd2,Mężczyzna,22,2021-07-13_21h48.41.347,rantool2,2021.1.4,Win32,59.99160118,5f979d85f973911610677cd2,60d9d14f4a8a35a482e0d9bf,60ededd7a85ae57505b41553,,,,,,,,,,,,
"[""comma""]",0,[0.27579999999886695],38,0,38,0,1,5f979d85f973911610677cd2,Mężczyzna,22,2021-07-13_21h48.41.347,rantool2,2021.1.4,Win32,59.99160118,5f979d85f973911610677cd2,60d9d14f4a8a35a482e0d9bf,60ededd7a85ae57505b41553,,,,,,,,,,,,
"[""period""]",0,[0.30189999999851125],39,0,39,0,1,5f979d85f973911610677cd2,Mężczyzna,22,2021-07-13_21h48.41.347,rantool2,2021.1.4,Win32,59.99160118,5f979d85f973911610677cd2,60d9d14f4a8a35a482e0d9bf,60ededd7a85ae57505b41553,,,,,,,,,,,,
"[""comma""]",0,[0.3173999999984858],40,0,40,0,1,5f979d85f973911610677cd2,Mężczyzna,22,2021-07-13_21h48.41.347,rantool2,2021.1.4,Win32,59.99160118,5f979d85f973911610677cd2,60d9d14f4a8a35a482e0d9bf,60ededd7a85ae57505b41553,,,,,,,,,,,,
"[""period""]",0,[0.49150000000000205],41,0,41,0,1,5f979d85f973911610677cd2,Mężczyzna,22,2021-07-13_21h48.41.347,rantool2,2021.1.4,Win32,59.99160118,5f979d85f973911610677cd2,60d9d14f4a8a35a482e0d9bf,60ededd7a85ae57505b41553,,,,,,,,,,,,
"[""period""]",0,[0.6514999999999986],42,0,42,0,1,5f979d85f973911610677cd2,Mężczyzna,22,2021-07-13_21h48.41.347,rantool2,2021.1.4,Win32,59.99160118,5f979d85f973911610677cd2,60d9d14f4a8a35a482e0d9bf,60ededd7a85ae57505b41553,,,,,,,,,,,,
"[""comma""]",0,[0.31859999999960564],43,0,43,0,1,5f979d85f973911610677cd2,Mężczyzna,22,2021-07-13_21h48.41.347,rantool2,2021.1.4,Win32,59.99160118,5f979d85f973911610677cd2,60d9d14f4a8a35a482e0d9bf,60ededd7a85ae57505b41553,,,,,,,,,,,,
"[""period""]",0,[0.3019999999999925],44,0,44,0,1,5f979d85f973911610677cd2,Mężczyzna,22,2021-07-13_21h48.41.347,rantool2,2021.1.4,Win32,59.99160118,5f979d85f973911610677cd2,60d9d14f4a8a35a482e0d9bf,60ededd7a85ae57505b41553,,,,,,,,,,,,
"[""comma""]",0,[0.3349000000003741],45,0,45,0,1,5f979d85f973911610677cd2,Mężczyzna,22,2021-07-13_21h48.41.347,rantool2,2021.1.4,Win32,59.99160118,5f979d85f973911610677cd2,60d9d14f4a8a35a482e0d9bf,60ededd7a85ae57505b41553,,,,,,,,,,,,
"[""period""]",0,[0.28480000000075734],46,0,46,0,1,5f979d85f973911610677cd2,Mężczyzna,22,2021-07-13_21h48.41.347,rantool2,2021.1.4,Win32,59.99160118,5f979d85f973911610677cd2,60d9d14f4a8a35a482e0d9bf,60ededd7a85ae57505b41553,,,,,,,,,,,,
"[""period""]",0,[0.28459999999964225],47,0,47,0,1,5f979d85f973911610677cd2,Mężczyzna,22,2021-07-13_21h48.41.347,rantool2,2021.1.4,Win32,59.99160118,5f979d85f973911610677cd2,60d9d14f4a8a35a482e0d9bf,60ededd7a85ae57505b41553,,,,,,,,,,,,
"[""period""]",0,[0.30750000000000455],48,0,48,0,1,5f979d85f973911610677cd2,Mężczyzna,22,2021-07-13_21h48.41.347,rantool2,2021.1.4,Win32,59.99160118,5f979d85f973911610677cd2,60d9d14f4a8a35a482e0d9bf,60ededd7a85ae57505b41553,,,,,,,,,,,,
"[""comma""]",0,[0.4115999999996518],49,0,49,0,1,5f979d85f973911610677cd2,Mężczyzna,22,2021-07-13_21h48.41.347,rantool2,2021.1.4,Win32,59.99160118,5f979d85f973911610677cd2,60d9d14f4a8a35a482e0d9bf,60ededd7a85ae57505b41553,,,,,,,,,,,,
"[""period""]",0,[0.4914000000003682],50,0,50,0,1,5f979d85f973911610677cd2,Mężczyzna,22,2021-07-13_21h48.41.347,rantool2,2021.1.4,Win32,59.99160118,5f979d85f973911610677cd2,60d9d14f4a8a35a482e0d9bf,60ededd7a85ae57505b41553,,,,,,,,,,,,
"[""comma""]",0,[0.33959999999962065],51,0,51,0,1,5f979d85f973911610677cd2,Mężczyzna,22,2021-07-13_21h48.41.347,rantool2,2021.1.4,Win32,59.99160118,5f979d85f973911610677cd2,60d9d14f4a8a35a482e0d9bf,60ededd7a85ae57505b41553,,,,,,,,,,,,
"[""period""]",0,[0.17170000000112395],52,0,52,0,1,5f979d85f973911610677cd2,Mężczyzna,22,2021-07-13_21h48.41.347,rantool2,2021.1.4,Win32,59.99160118,5f979d85f973911610677cd2,60d9d14f4a8a35a482e0d9bf,60ededd7a85ae57505b41553,,,,,,,,,,,,
"[""period""]",0,[0.33479999999889287],53,0,53,0,1,5f979d85f973911610677cd2,Mężczyzna,22,2021-07-13_21h48.41.347,rantool2,2021.1.4,Win32,59.99160118,5f979d85f973911610677cd2,60d9d14f4a8a35a482e0d9bf,60ededd7a85ae57505b41553,,,,,,,,,,,,
"[""comma""]",0,[0.12370000000112213],54,0,54,0,1,5f979d85f973911610677cd2,Mężczyzna,22,2021-07-13_21h48.41.347,rantool2,2021.1.4,Win32,59.99160118,5f979d85f973911610677cd2,60d9d14f4a8a35a482e0d9bf,60ededd7a85ae57505b41553,,,,,,,,,,,,
"[""period""]",0,[0.3014000000003705],55,0,55,0,1,5f979d85f973911610677cd2,Mężczyzna,22,2021-07-13_21h48.41.347,rantool2,2021.1.4,Win32,59.99160118,5f979d85f973911610677cd2,60d9d14f4a8a35a482e0d9bf,60ededd7a85ae57505b41553,,,,,,,,,,,,
"[""comma""]",0,[0.3233000000007564],56,0,56,0,1,5f979d85f973911610677cd2,Mężczyzna,22,2021-07-13_21h48.41.347,rantool2,2021.1.4,Win32,59.99160118,5f979d85f973911610677cd2,60d9d14f4a8a35a482e0d9bf,60ededd7a85ae57505b41553,,,,,,,,,,,,
"[""comma""]",0,[0.3015000000000043],57,0,57,0,1,5f979d85f973911610677cd2,Mężczyzna,22,2021-07-13_21h48.41.347,rantool2,2021.1.4,Win32,59.99160118,5f979d85f973911610677cd2,60d9d14f4a8a35a482e0d9bf,60ededd7a85ae57505b41553,,,,,,,,,,,,
"[""period""]",0,[0.259699999999242],58,0,58,0,1,5f979d85f973911610677cd2,Mężczyzna,22,2021-07-13_21h48.41.347,rantool2,2021.1.4,Win32,59.99160118,5f979d85f973911610677cd2,60d9d14f4a8a35a482e0d9bf,60ededd7a85ae57505b41553,,,,,,,,,,,,
"[""period""]",0,[0.25199999999998113],59,0,59,0,1,5f979d85f973911610677cd2,Mężczyzna,22,2021-07-13_21h48.41.347,rantool2,2021.1.4,Win32,59.99160118,5f979d85f973911610677cd2,60d9d14f4a8a35a482e0d9bf,60ededd7a85ae57505b41553,,,,,,,,,,,,
"[""period""]",0,[0.27570000000113737],60,0,60,0,1,5f979d85f973911610677cd2,Mężczyzna,22,2021-07-13_21h48.41.347,rantool2,2021.1.4,Win32,59.99160118,5f979d85f973911610677cd2,60d9d14f4a8a35a482e0d9bf,60ededd7a85ae57505b41553,,,,,,,,,,,,
"[""period""]",0,[0.31839999999849056],61,0,61,0,1,5f979d85f973911610677cd2,Mężczyzna,22,2021-07-13_21h48.41.347,rantool2,2021.1.4,Win32,59.99160118,5f979d85f973911610677cd2,60d9d14f4a8a35a482e0d9bf,60ededd7a85ae57505b41553,,,,,,,,,,,,
"[""comma""]",0,[0.39919999999924016],62,0,62,0,1,5f979d85f973911610677cd2,Mężczyzna,22,2021-07-13_21h48.41.347,rantool2,2021.1.4,Win32,59.99160118,5f979d85f973911610677cd2,60d9d14f4a8a35a482e0d9bf,60ededd7a85ae57505b41553,,,,,,,,,,,,
"[""period""]",0,[0.36840000000037776],63,0,63,0,1,5f979d85f973911610677cd2,Mężczyzna,22,2021-07-13_21h48.41.347,rantool2,2021.1.4,Win32,59.99160118,5f979d85f973911610677cd2,60d9d14f4a8a35a482e0d9bf,60ededd7a85ae57505b41553,,,,,,,,,,,,
"[""period""]",0,[0.3016999999992436],64,0,64,0,1,5f979d85f973911610677cd2,Mężczyzna,22,2021-07-13_21h48.41.347,rantool2,2021.1.4,Win32,59.99160118,5f979d85f973911610677cd2,60d9d14f4a8a35a482e0d9bf,60ededd7a85ae57505b41553,,,,,,,,,,,,
"[""comma""]",0,[0.17150000000000887],65,0,65,0,1,5f979d85f973911610677cd2,Mężczyzna,22,2021-07-13_21h48.41.347,rantool2,2021.1.4,Win32,59.99160118,5f979d85f973911610677cd2,60d9d14f4a8a35a482e0d9bf,60ededd7a85ae57505b41553,,,,,,,,,,,,
"[""period""]",0,[0.12370000000112213],66,0,66,0,1,5f979d85f973911610677cd2,Mężczyzna,22,2021-07-13_21h48.41.347,rantool2,2021.1.4,Win32,59.99160118,5f979d85f973911610677cd2,60d9d14f4a8a35a482e0d9bf,60ededd7a85ae57505b41553,,,,,,,,,,,,
"[""comma""]",0,[0.2518999999984999],67,0,67,0,1,5f979d85f973911610677cd2,Mężczyzna,22,2021-07-13_21h48.41.347,rantool2,2021.1.4,Win32,59.99160118,5f979d85f973911610677cd2,60d9d14f4a8a35a482e0d9bf,60ededd7a85ae57505b41553,,,,,,,,,,,,
"[""period""]",0,[0.13949999999999818],68,0,68,0,1,5f979d85f973911610677cd2,Mężczyzna,22,2021-07-13_21h48.41.347,rantool2,2021.1.4,Win32,59.99160118,5f979d85f973911610677cd2,60d9d14f4a8a35a482e0d9bf,60ededd7a85ae57505b41553,,,,,,,,,,,,
"[""comma""]",0,[0.06799999999998363],69,0,69,0,1,5f979d85f973911610677cd2,Mężczyzna,22,2021-07-13_21h48.41.347,rantool2,2021.1.4,Win32,59.99160118,5f979d85f973911610677cd2,60d9d14f4a8a35a482e0d9bf,60ededd7a85ae57505b41553,,,,,,,,,,,,
"[""comma""]",0,[0.40079999999886695],70,0,70,0,1,5f979d85f973911610677cd2,Mężczyzna,22,2021-07-13_21h48.41.347,rantool2,2021.1.4,Win32,59.99160118,5f979d85f973911610677cd2,60d9d14f4a8a35a482e0d9bf,60ededd7a85ae57505b41553,,,,,,,,,,,,
"[""comma""]",0,[0.2756999999992331],71,0,71,0,1,5f979d85f973911610677cd2,Mężczyzna,22,2021-07-13_21h48.41.347,rantool2,2021.1.4,Win32,59.99160118,5f979d85f973911610677cd2,60d9d14f4a8a35a482e0d9bf,60ededd7a85ae57505b41553,,,,,,,,,,,,
"[""period""]",0,[0.3014999999999759],72,0,72,0,1,5f979d85f973911610677cd2,Mężczyzna,22,2021-07-13_21h48.41.347,rantool2,2021.1.4,Win32,59.99160118,5f979d85f973911610677cd2,60d9d14f4a8a35a482e0d9bf,60ededd7a85ae57505b41553,,,,,,,,,,,,
"[""comma""]",0,[0.2594000000003689],73,0,73,0,1,5f979d85f973911610677cd2,Mężczyzna,22,2021-07-13_21h48.41.347,rantool2,2021.1.4,Win32,59.99160118,5f979d85f973911610677cd2,60d9d14f4a8a35a482e0d9bf,60ededd7a85ae57505b41553,,,,,,,,,,,,
"[""comma""]",0,[0.3074000000003707],74,0,74,0,1,5f979d85f973911610677cd2,Mężczyzna,22,2021-07-13_21h48.41.347,rantool2,2021.1.4,Win32,59.99160118,5f979d85f973911610677cd2,60d9d14f4a8a35a482e0d9bf,60ededd7a85ae57505b41553,,,,,,,,,,,,
"[""period""]",0,[0.3515999999996211],75,0,75,0,1,5f979d85f973911610677cd2,Mężczyzna,22,2021-07-13_21h48.41.347,rantool2,2021.1.4,Win32,59.99160118,5f979d85f973911610677cd2,60d9d14f4a8a35a482e0d9bf,60ededd7a85ae57505b41553,,,,,,,,,,,,
"[""comma""]",0,[1.5073000000007823],76,0,76,0,1,5f979d85f973911610677cd2,Mężczyzna,22,2021-07-13_21h48.41.347,rantool2,2021.1.4,Win32,59.99160118,5f979d85f973911610677cd2,60d9d14f4a8a35a482e0d9bf,60ededd7a85ae57505b41553,,,,,,,,,,,,
"[""comma""]",0,[1.0355999999995902],77,0,77,0,1,5f979d85f973911610677cd2,Mężczyzna,22,2021-07-13_21h48.41.347,rantool2,2021.1.4,Win32,59.99160118,5f979d85f973911610677cd2,60d9d14f4a8a35a482e0d9bf,60ededd7a85ae57505b41553,,,,,,,,,,,,
0,0,,78,0,78,0,1,5f979d85f973911610677cd2,Mężczyzna,22,2021-07-13_21h48.41.347,rantool2,2021.1.4,Win32,59.99160118,5f979d85f973911610677cd2,60d9d14f4a8a35a482e0d9bf,60ededd7a85ae57505b41553,,,,,,,,,,,,
"[""period""]",0,[1.8597000000011121],79,0,79,0,1,5f979d85f973911610677cd2,Mężczyzna,22,2021-07-13_21h48.41.347,rantool2,2021.1.4,Win32,59.99160118,5f979d85f973911610677cd2,60d9d14f4a8a35a482e0d9bf,60ededd7a85ae57505b41553,,,,,,,,,,,,
0,0,,80,0,80,0,1,5f979d85f973911610677cd2,Mężczyzna,22,2021-07-13_21h48.41.347,rantool2,2021.1.4,Win32,59.99160118,5f979d85f973911610677cd2,60d9d14f4a8a35a482e0d9bf,60ededd7a85ae57505b41553,,,,,,,,,,,,
0,0,,81,0,81,0,1,5f979d85f973911610677cd2,Mężczyzna,22,2021-07-13_21h48.41.347,rantool2,2021.1.4,Win32,59.99160118,5f979d85f973911610677cd2,60d9d14f4a8a35a482e0d9bf,60ededd7a85ae57505b41553,,,,,,,,,,,,
0,0,,82,0,82,0,1,5f979d85f973911610677cd2,Mężczyzna,22,2021-07-13_21h48.41.347,rantool2,2021.1.4,Win32,59.99160118,5f979d85f973911610677cd2,60d9d14f4a8a35a482e0d9bf,60ededd7a85ae57505b41553,,,,,,,,,,,,
"[""period""]",0,[0.13990000000040936],83,0,83,0,1,5f979d85f973911610677cd2,Mężczyzna,22,2021-07-13_21h48.41.347,rantool2,2021.1.4,Win32,59.99160118,5f979d85f973911610677cd2,60d9d14f4a8a35a482e0d9bf,60ededd7a85ae57505b41553,,,,,,,,,,,,
0,0,,84,0,84,0,1,5f979d85f973911610677cd2,Mężczyzna,22,2021-07-13_21h48.41.347,rantool2,2021.1.4,Win32,59.99160118,5f979d85f973911610677cd2,60d9d14f4a8a35a482e0d9bf,60ededd7a85ae57505b41553,,,,,,,,,,,,
"[""comma""]",0,[1.1234999999999786],85,0,85,0,1,5f979d85f973911610677cd2,Mężczyzna,22,2021-07-13_21h48.41.347,rantool2,2021.1.4,Win32,59.99160118,5f979d85f973911610677cd2,60d9d14f4a8a35a482e0d9bf,60ededd7a85ae57505b41553,,,,,,,,,,,,
0,0,,86,0,86,0,1,5f979d85f973911610677cd2,Mężczyzna,22,2021-07-13_21h48.41.347,rantool2,2021.1.4,Win32,59.99160118,5f979d85f973911610677cd2,60d9d14f4a8a35a482e0d9bf,60ededd7a85ae57505b41553,,,,,,,,,,,,
"[""period""]",0,[0.21749999999997272],87,0,87,0,1,5f979d85f973911610677cd2,Mężczyzna,22,2021-07-13_21h48.41.347,rantool2,2021.1.4,Win32,59.99160118,5f979d85f973911610677cd2,60d9d14f4a8a35a482e0d9bf,60ededd7a85ae57505b41553,,,,,,,,,,,,
0,0,,88,0,88,0,1,5f979d85f973911610677cd2,Mężczyzna,22,2021-07-13_21h48.41.347,rantool2,2021.1.4,Win32,59.99160118,5f979d85f973911610677cd2,60d9d14f4a8a35a482e0d9bf,60ededd7a85ae57505b41553,,,,,,,,,,,,
"[""comma""]",0,[0.4852999999988583],89,0,89,0,1,5f979d85f973911610677cd2,Mężczyzna,22,2021-07-13_21h48.41.347,rantool2,2021.1.4,Win32,59.99160118,5f979d85f973911610677cd2,60d9d14f4a8a35a482e0d9bf,60ededd7a85ae57505b41553,,,,,,,,,,,,
"[""period""]",0,[0.3350999999996134],90,0,90,0,1,5f979d85f973911610677cd2,Mężczyzna,22,2021-07-13_21h48.41.347,rantool2,2021.1.4,Win32,59.99160118,5f979d85f973911610677cd2,60d9d14f4a8a35a482e0d9bf,60ededd7a85ae57505b41553,,,,,,,,,,,,
"[""period""]",0,[0.5184000000003834],91,0,91,0,1,5f979d85f973911610677cd2,Mężczyzna,22,2021-07-13_21h48.41.347,rantool2,2021.1.4,Win32,59.99160118,5f979d85f973911610677cd2,60d9d14f4a8a35a482e0d9bf,60ededd7a85ae57505b41553,,,,,,,,,,,,
"[""comma""]",0,[0.3849999999999909],92,0,92,0,1,5f979d85f973911610677cd2,Mężczyzna,22,2021-07-13_21h48.41.347,rantool2,2021.1.4,Win32,59.99160118,5f979d85f973911610677cd2,60d9d14f4a8a35a482e0d9bf,60ededd7a85ae57505b41553,,,,,,,,,,,,
"[""period""]",0,[0.11849999999998317],93,0,93,0,1,5f979d85f973911610677cd2,Mężczyzna,22,2021-07-13_21h48.41.347,rantool2,2021.1.4,Win32,59.99160118,5f979d85f973911610677cd2,60d9d14f4a8a35a482e0d9bf,60ededd7a85ae57505b41553,,,,,,,,,,,,
0,0,,94,0,94,0,1,5f979d85f973911610677cd2,Mężczyzna,22,2021-07-13_21h48.41.347,rantool2,2021.1.4,Win32,59.99160118,5f979d85f973911610677cd2,60d9d14f4a8a35a482e0d9bf,60ededd7a85ae57505b41553,,,,,,,,,,,,
"[""period""]",0,[1.9349000000003684],95,0,95,0,1,5f979d85f973911610677cd2,Mężczyzna,22,2021-07-13_21h48.41.347,rantool2,2021.1.4,Win32,59.99160118,5f979d85f973911610677cd2,60d9d14f4a8a35a482e0d9bf,60ededd7a85ae57505b41553,,,,,,,,,,,,
"[""comma""]",0,[1.6515999999996325],96,0,96,0,1,5f979d85f973911610677cd2,Mężczyzna,22,2021-07-13_21h48.41.347,rantool2,2021.1.4,Win32,59.99160118,5f979d85f973911610677cd2,60d9d14f4a8a35a482e0d9bf,60ededd7a85ae57505b41553,,,,,,,,,,,,
"[""comma""]",0,[1.6516999999992663],97,0,97,0,1,5f979d85f973911610677cd2,Mężczyzna,22,2021-07-13_21h48.41.347,rantool2,2021.1.4,Win32,59.99160118,5f979d85f973911610677cd2,60d9d14f4a8a35a482e0d9bf,60ededd7a85ae57505b41553,,,,,,,,,,,,
"[""period""]",0,[1.6275999999996316],98,0,98,0,1,5f979d85f973911610677cd2,Mężczyzna,22,2021-07-13_21h48.41.347,rantool2,2021.1.4,Win32,59.99160118,5f979d85f973911610677cd2,60d9d14f4a8a35a482e0d9bf,60ededd7a85ae57505b41553,,,,,,,,,,,,
"[""period""]",0,[1.4675999999996066],99,0,99,0,1,5f979d85f973911610677cd2,Mężczyzna,22,2021-07-13_21h48.41.347,rantool2,2021.1.4,Win32,59.99160118,5f979d85f973911610677cd2,60d9d14f4a8a35a482e0d9bf,60ededd7a85ae57505b41553,,,,,,,,,,,,
"[""period""]",0,[0.3683000000007155],100,0,100,0,1,5f979d85f973911610677cd2,Mężczyzna,22,2021-07-13_21h48.41.347,rantool2,2021.1.4,Win32,59.99160118,5f979d85f973911610677cd2,60d9d14f4a8a35a482e0d9bf,60ededd7a85ae57505b41553,,,,,,,,,,,,
0,0,,101,0,101,0,1,5f979d85f973911610677cd2,Mężczyzna,22,2021-07-13_21h48.41.347,rantool2,2021.1.4,Win32,59.99160118,5f979d85f973911610677cd2,60d9d14f4a8a35a482e0d9bf,60ededd7a85ae57505b41553,,,,,,,,,,,,
0,0,,102,0,102,0,1,5f979d85f973911610677cd2,Mężczyzna,22,2021-07-13_21h48.41.347,rantool2,2021.1.4,Win32,59.99160118,5f979d85f973911610677cd2,60d9d14f4a8a35a482e0d9bf,60ededd7a85ae57505b41553,,,,,,,,,,,,
0,0,,103,0,103,0,1,5f979d85f973911610677cd2,Mężczyzna,22,2021-07-13_21h48.41.347,rantool2,2021.1.4,Win32,59.99160118,5f979d85f973911610677cd2,60d9d14f4a8a35a482e0d9bf,60ededd7a85ae57505b41553,,,,,,,,,,,,
"[""period""]",0,[0.8197999999988497],104,0,104,0,1,5f979d85f973911610677cd2,Mężczyzna,22,2021-07-13_21h48.41.347,rantool2,2021.1.4,Win32,59.99160118,5f979d85f973911610677cd2,60d9d14f4a8a35a482e0d9bf,60ededd7a85ae57505b41553,,,,,,,,,,,,
"[""comma""]",0,[0.27549999999996544],105,0,105,0,1,5f979d85f973911610677cd2,Mężczyzna,22,2021-07-13_21h48.41.347,rantool2,2021.1.4,Win32,59.99160118,5f979d85f973911610677cd2,60d9d14f4a8a35a482e0d9bf,60ededd7a85ae57505b41553,,,,,,,,,,,,
0,0,,106,0,106,0,1,5f979d85f973911610677cd2,Mężczyzna,22,2021-07-13_21h48.41.347,rantool2,2021.1.4,Win32,59.99160118,5f979d85f973911610677cd2,60d9d14f4a8a35a482e0d9bf,60ededd7a85ae57505b41553,,,,,,,,,,,,
0,0,,107,0,107,0,1,5f979d85f973911610677cd2,Mężczyzna,22,2021-07-13_21h48.41.347,rantool2,2021.1.4,Win32,59.99160118,5f979d85f973911610677cd2,60d9d14f4a8a35a482e0d9bf,60ededd7a85ae57505b41553,,,,,,,,,,,,
0,0,,108,0,108,0,1,5f979d85f973911610677cd2,Mężczyzna,22,2021-07-13_21h48.41.347,rantool2,2021.1.4,Win32,59.99160118,5f979d85f973911610677cd2,60d9d14f4a8a35a482e0d9bf,60ededd7a85ae57505b41553,,,,,,,,,,,,
"[""period""]",0,[0.8036999999992531],109,0,109,0,1,5f979d85f973911610677cd2,Mężczyzna,22,2021-07-13_21h48.41.347,rantool2,2021.1.4,Win32,59.99160118,5f979d85f973911610677cd2,60d9d14f4a8a35a482e0d9bf,60ededd7a85ae57505b41553,,,,,,,,,,,,
"[""comma""]",0,[0.5080999999996152],110,0,110,0,1,5f979d85f973911610677cd2,Mężczyzna,22,2021-07-13_21h48.41.347,rantool2,2021.1.4,Win32,59.99160118,5f979d85f973911610677cd2,60d9d14f4a8a35a482e0d9bf,60ededd7a85ae57505b41553,,,,,,,,,,,,
"[""comma""]",0,[0.35530000000079554],111,0,111,0,1,5f979d85f973911610677cd2,Mężczyzna,22,2021-07-13_21h48.41.347,rantool2,2021.1.4,Win32,59.99160118,5f979d85f973911610677cd2,60d9d14f4a8a35a482e0d9bf,60ededd7a85ae57505b41553,,,,,,,,,,,,
"[""period""]",0,[0.26819999999923994],112,0,112,0,1,5f979d85f973911610677cd2,Mężczyzna,22,2021-07-13_21h48.41.347,rantool2,2021.1.4,Win32,59.99160118,5f979d85f973911610677cd2,60d9d14f4a8a35a482e0d9bf,60ededd7a85ae57505b41553,,,,,,,,,,,,
"[""comma""]",0,[0.09169999999926404],113,0,113,0,1,5f979d85f973911610677cd2,Mężczyzna,22,2021-07-13_21h48.41.347,rantool2,2021.1.4,Win32,59.99160118,5f979d85f973911610677cd2,60d9d14f4a8a35a482e0d9bf,60ededd7a85ae57505b41553,,,,,,,,,,,,
"[""period""]",0,[1.0435999999996284],114,0,114,0,1,5f979d85f973911610677cd2,Mężczyzna,22,2021-07-13_21h48.41.347,rantool2,2021.1.4,Win32,59.99160118,5f979d85f973911610677cd2,60d9d14f4a8a35a482e0d9bf,60ededd7a85ae57505b41553,,,,,,,,,,,,
"[""comma""]",0,[0.3016999999992436],115,0,115,0,1,5f979d85f973911610677cd2,Mężczyzna,22,2021-07-13_21h48.41.347,rantool2,2021.1.4,Win32,59.99160118,5f979d85f973911610677cd2,60d9d14f4a8a35a482e0d9bf,60ededd7a85ae57505b41553,,,,,,,,,,,,
"[""period""]",0,[0.7395999999995979],116,0,116,0,1,5f979d85f973911610677cd2,Mężczyzna,22,2021-07-13_21h48.41.347,rantool2,2021.1.4,Win32,59.99160118,5f979d85f973911610677cd2,60d9d14f4a8a35a482e0d9bf,60ededd7a85ae57505b41553,,,,,,,,,,,,
0,0,,117,0,117,0,1,5f979d85f973911610677cd2,Mężczyzna,22,2021-07-13_21h48.41.347,rantool2,2021.1.4,Win32,59.99160118,5f979d85f973911610677cd2,60d9d14f4a8a35a482e0d9bf,60ededd7a85ae57505b41553,,,,,,,,,,,,
0,0,,118,0,118,0,1,5f979d85f973911610677cd2,Mężczyzna,22,2021-07-13_21h48.41.347,rantool2,2021.1.4,Win32,59.99160118,5f979d85f973911610677cd2,60d9d14f4a8a35a482e0d9bf,60ededd7a85ae57505b41553,,,,,,,,,,,,
"[""period""]",0,[0.2516999999992322],119,0,119,0,1,5f979d85f973911610677cd2,Mężczyzna,22,2021-07-13_21h48.41.347,rantool2,2021.1.4,Win32,59.99160118,5f979d85f973911610677cd2,60d9d14f4a8a35a482e0d9bf,60ededd7a85ae57505b41553,,,,,,,,,,,,
,,,,,,,,5f979d85f973911610677cd2,Mężczyzna,22,2021-07-13_21h48.41.347,rantool2,2021.1.4,Win32,59.99160118,5f979d85f973911610677cd2,60d9d14f4a8a35a482e0d9bf,60ededd7a85ae57505b41553,j,4.4018,0,0,0,46,1,RORRROO,RORRROR,22.00300695,21.24781509,series_0
,,,,,,,,5f979d85f973911610677cd2,Mężczyzna,22,2021-07-13_21h48.41.347,rantool2,2021.1.4,Win32,59.99160118,5f979d85f973911610677cd2,60d9d14f4a8a35a482e0d9bf,60ededd7a85ae57505b41553,f,3.6584,0,1,1,7,1,OOORRRO,OOORRRR,21.6194508,21.899017,series_1
,,,,,,,,5f979d85f973911610677cd2,Mężczyzna,22,2021-07-13_21h48.41.347,rantool2,2021.1.4,Win32,59.99160118,5f979d85f973911610677cd2,60d9d14f4a8a35a482e0d9bf,60ededd7a85ae57505b41553,j,3.4392,0,2,2,37,1,ROORORO,ROORORR,20.42602454,21.57657071,series_1
,,,,,,,,5f979d85f973911610677cd2,Mężczyzna,22,2021-07-13_21h48.41.347,rantool2,2021.1.4,Win32,59.99160118,5f979d85f973911610677cd2,60d9d14f4a8a35a482e0d9bf,60ededd7a85ae57505b41553,f,2.6765,0,3,3,60,1,RRRROOO,RRRROOR,22.10108823,22.15934078,series_1
,,,,,,,,5f979d85f973911610677cd2,Mężczyzna,22,2021-07-13_21h48.41.347,rantool2,2021.1.4,Win32,59.99160118,5f979d85f973911610677cd2,60d9d14f4a8a35a482e0d9bf,60ededd7a85ae57505b41553,f,4.5507,0,4,4,27,1,ORRORRO,ORRORRR,21.55250791,22.2428857,series_1
,,,,,,,,5f979d85f973911610677cd2,Mężczyzna,22,2021-07-13_21h48.41.347,rantool2,2021.1.4,Win32,59.99160118,5f979d85f973911610677cd2,60d9d14f4a8a35a482e0d9bf,60ededd7a85ae57505b41553,,,0,5,5,21,1,ORORORO,ORORORR,20.39515459,22.06781359,series_1
,,,,,,,,5f979d85f973911610677cd2,Mężczyzna,22,2021-07-13_21h48.41.347,rantool2,2021.1.4,Win32,59.99160118,5f979d85f973911610677cd2,60d9d14f4a8a35a482e0d9bf,60ededd7a85ae57505b41553,f,0.2683,0,6,6,43,1,RORORRO,RORORRR,20.71309134,21.07490964,series_1
,,,,,,,,5f979d85f973911610677cd2,Mężczyzna,22,2021-07-13_21h48.41.347,rantool2,2021.1.4,Win32,59.99160118,5f979d85f973911610677cd2,60d9d14f4a8a35a482e0d9bf,60ededd7a85ae57505b41553,f,3.9897,0,7,7,12,1,OORROOO,OORROOR,21.30250474,22.02786418,series_1
,,,,,,,,5f979d85f973911610677cd2,Mężczyzna,22,2021-07-13_21h48.41.347,rantool2,2021.1.4,Win32,59.99160118,5f979d85f973911610677cd2,60d9d14f4a8a35a482e0d9bf,60ededd7a85ae57505b41553,j,3.2449,0,8,8,50,1,RROOROO,RROOROR,21.73568164,22.02566557,series_1
,,,,,,,,5f979d85f973911610677cd2,Mężczyzna,22,2021-07-13_21h48.41.347,rantool2,2021.1.4,Win32,59.99160118,5f979d85f973911610677cd2,60d9d14f4a8a35a482e0d9bf,60ededd7a85ae57505b41553,f,1.9061,0,9,9,47,1,RORRRRO,RORRRRR,21.81333602,21.02936224,series_0
,,,,,,,,5f979d85f973911610677cd2,Mężczyzna,22,2021-07-13_21h48.41.347,rantool2,2021.1.4,Win32,59.99160118,5f979d85f973911610677cd2,60d9d14f4a8a35a482e0d9bf,60ededd7a85ae57505b41553,f,2.8773,0,10,10,25,1,ORROORO,ORROORR,21.79500819,22.61624387,series_1
,,,,,,,,5f979d85f973911610677cd2,Mężczyzna,22,2021-07-13_21h48.41.347,rantool2,2021.1.4,Win32,59.99160118,5f979d85f973911610677cd2,60d9d14f4a8a35a482e0d9bf,60ededd7a85ae57505b41553,f,2.8012,0,11,11,18,1,OROOROO,OROOROR,20.84860893,21.22513037,series_1
,,,,,,,,5f979d85f973911610677cd2,Mężczyzna,22,2021-07-13_21h48.41.347,rantool2,2021.1.4,Win32,59.99160118,5f979d85f973911610677cd2,60d9d14f4a8a35a482e0d9bf,60ededd7a85ae57505b41553,j,1.8078,0,12,12,0,1,OOOOOOO,OOOOOOR,18.52739004,19.62521613,series_1
,,,,,,,,5f979d85f973911610677cd2,Mężczyzna,22,2021-07-13_21h48.41.347,rantool2,2021.1.4,Win32,59.99160118,5f979d85f973911610677cd2,60d9d14f4a8a35a482e0d9bf,60ededd7a85ae57505b41553,f,3.5025,0,13,13,8,1,OOROOOO,OOROOOR,19.91402015,20.89823192,series_1
,,,,,,,,5f979d85f973911610677cd2,Mężczyzna,22,2021-07-13_21h48.41.347,rantool2,2021.1.4,Win32,59.99160118,5f979d85f973911610677cd2,60d9d14f4a8a35a482e0d9bf,60ededd7a85ae57505b41553,j,2.5343,0,14,14,57,1,RRROORO,RRROORR,21.82425538,22.07102821,series_1
,,,,,,,,5f979d85f973911610677cd2,Mężczyzna,22,2021-07-13_21h48.41.347,rantool2,2021.1.4,Win32,59.99160118,5f979d85f973911610677cd2,60d9d14f4a8a35a482e0d9bf,60ededd7a85ae57505b41553,f,1.5345,0,15,15,39,1,ROORRRO,ROORRRR,21.82425538,21.38562617,series_0
,,,,,,,,5f979d85f973911610677cd2,Mężczyzna,22,2021-07-13_21h48.41.347,rantool2,2021.1.4,Win32,59.99160118,5f979d85f973911610677cd2,60d9d14f4a8a35a482e0d9bf,60ededd7a85ae57505b41553,f,4.1509,0,16,16,40,1,ROROOOO,ROROOOR,20.87963819,21.37121559,series_1
,,,,,,,,5f979d85f973911610677cd2,Mężczyzna,22,2021-07-13_21h48.41.347,rantool2,2021.1.4,Win32,59.99160118,5f979d85f973911610677cd2,60d9d14f4a8a35a482e0d9bf,60ededd7a85ae57505b41553,f,3.9185,0,17,17,23,1,ORORRRO,ORORRRR,22.1285618,21.9921709,series_0
,,,,,,,,5f979d85f973911610677cd2,Mężczyzna,22,2021-07-13_21h48.41.347,rantool2,2021.1.4,Win32,59.99160118,5f979d85f973911610677cd2,60d9d14f4a8a35a482e0d9bf,60ededd7a85ae57505b41553,j,3.3446,0,18,18,35,1,ROOORRO,ROOORRR,21.76276513,22.16977179,series_1
,,,,,,,,5f979d85f973911610677cd2,Mężczyzna,22,2021-07-13_21h48.41.347,rantool2,2021.1.4,Win32,59.99160118,5f979d85f973911610677cd2,60d9d14f4a8a35a482e0d9bf,60ededd7a85ae57505b41553,j,3.8345,0,19,19,38,1,ROORROO,ROORROR,21.79500819,21.36812781,series_0
,,,,,,,,5f979d85f973911610677cd2,Mężczyzna,22,2021-07-13_21h48.41.347,rantool2,2021.1.4,Win32,59.99160118,5f979d85f973911610677cd2,60d9d14f4a8a35a482e0d9bf,60ededd7a85ae57505b41553,j,2.0348,0,20,20,53,1,RRORORO,RRORORR,20.71309134,21.90565814,series_1
,,,,,,,,5f979d85f973911610677cd2,Mężczyzna,22,2021-07-13_21h48.41.347,rantool2,2021.1.4,Win32,59.99160118,5f979d85f973911610677cd2,60d9d14f4a8a35a482e0d9bf,60ededd7a85ae57505b41553,f,3.7725,0,21,21,41,1,ROROORO,ROROORR,20.42602454,21.71443381,series_1
,,,,,,,,5f979d85f973911610677cd2,Mężczyzna,22,2021-07-13_21h48.41.347,rantool2,2021.1.4,Win32,59.99160118,5f979d85f973911610677cd2,60d9d14f4a8a35a482e0d9bf,60ededd7a85ae57505b41553,j,2.4687,0,22,22,3,1,OOOORRO,OOOORRR,20.90986523,21.74922619,series_1
,,,,,,,,5f979d85f973911610677cd2,Mężczyzna,22,2021-07-13_21h48.41.347,rantool2,2021.1.4,Win32,59.99160118,5f979d85f973911610677cd2,60d9d14f4a8a35a482e0d9bf,60ededd7a85ae57505b41553,j,1.8245,0,23,23,62,1,RRRRROO,RRRRROR,22.16413392,21.27974287,series_0
,,,,,,,,5f979d85f973911610677cd2,Mężczyzna,22,2021-07-13_21h48.41.347,rantool2,2021.1.4,Win32,59.99160118,5f979d85f973911610677cd2,60d9d14f4a8a35a482e0d9bf,60ededd7a85ae57505b41553,j,2.1512,0,24,24,2,1,OOOOROO,OOOOROR,20.43051175,21.02936224,series_1
,,,,,,,,5f979d85f973911610677cd2,Mężczyzna,22,2021-07-13_21h48.41.347,rantool2,2021.1.4,Win32,59.99160118,5f979d85f973911610677cd2,60d9d14f4a8a35a482e0d9bf,60ededd7a85ae57505b41553,j,2.8683,0,25,25,9,1,OOROORO,OOROORR,21.07991943,22.2428857,series_1
,,,,,,,,5f979d85f973911610677cd2,Mężczyzna,22,2021-07-13_21h48.41.347,rantool2,2021.1.4,Win32,59.99160118,5f979d85f973911610677cd2,60d9d14f4a8a35a482e0d9bf,60ededd7a85ae57505b41553,f,3.0513,0,26,26,30,1,ORRRROO,ORRRROR,22.46748491,22.03072203,series_0
,,,,,,,,5f979d85f973911610677cd2,Mężczyzna,22,2021-07-13_21h48.41.347,rantool2,2021.1.4,Win32,59.99160118,5f979d85f973911610677cd2,60d9d14f4a8a35a482e0d9bf,60ededd7a85ae57505b41553,f,2.0516,0,27,27,36,1,ROOROOO,ROOROOR,21.07991943,20.9984461,series_0
,,,,,,,,5f979d85f973911610677cd2,Mężczyzna,22,2021-07-13_21h48.41.347,rantool2,2021.1.4,Win32,59.99160118,5f979d85f973911610677cd2,60d9d14f4a8a35a482e0d9bf,60ededd7a85ae57505b41553,j,3.5674,0,28,28,29,1,ORRRORO,ORRRORR,22.00300695,22.12173012,series_1
,,,,,,,,5f979d85f973911610677cd2,Mężczyzna,22,2021-07-13_21h48.41.347,rantool2,2021.1.4,Win32,59.99160118,5f979d85f973911610677cd2,60d9d14f4a8a35a482e0d9bf,60ededd7a85ae57505b41553,j,4.2051,0,29,29,34,1,ROOOROO,ROOOROR,21.03750787,21.24781509,series_1
,,,,,,,,5f979d85f973911610677cd2,Mężczyzna,22,2021-07-13_21h48.41.347,rantool2,2021.1.4,Win32,59.99160118,5f979d85f973911610677cd2,60d9d14f4a8a35a482e0d9bf,60ededd7a85ae57505b41553,j,1.908,0,30,30,24,1,ORROOOO,ORROOOR,21.12383932,22.07102821,series_1
,,,,,,,,5f979d85f973911610677cd2,Mężczyzna,22,2021-07-13_21h48.41.347,rantool2,2021.1.4,Win32,59.99160118,5f979d85f973911610677cd2,60d9d14f4a8a35a482e0d9bf,60ededd7a85ae57505b41553,f,2.8007,0,31,31,48,1,RROOOOO,RROOOOR,20.90986523,22.15934078,series_1
,,,,,,,,5f979d85f973911610677cd2,Mężczyzna,22,2021-07-13_21h48.41.347,rantool2,2021.1.4,Win32,59.99160118,5f979d85f973911610677cd2,60d9d14f4a8a35a482e0d9bf,60ededd7a85ae57505b41553,j,4.018,0,32,32,28,1,ORRROOO,ORRROOR,22.24142883,22.53364006,series_1
,,,,,,,,5f979d85f973911610677cd2,Mężczyzna,22,2021-07-13_21h48.41.347,rantool2,2021.1.4,Win32,59.99160118,5f979d85f973911610677cd2,60d9d14f4a8a35a482e0d9bf,60ededd7a85ae57505b41553,f,3.4204,0,33,33,6,1,OOORROO,OOORROR,21.12383932,21.38562617,series_1
,,,,,,,,5f979d85f973911610677cd2,Mężczyzna,22,2021-07-13_21h48.41.347,rantool2,2021.1.4,Win32,59.99160118,5f979d85f973911610677cd2,60d9d14f4a8a35a482e0d9bf,60ededd7a85ae57505b41553,j,2.1864,0,34,34,52,1,RROROOO,RROROOR,22.18365867,22.11097995,series_0
,,,,,,,,5f979d85f973911610677cd2,Mężczyzna,22,2021-07-13_21h48.41.347,rantool2,2021.1.4,Win32,59.99160118,5f979d85f973911610677cd2,60d9d14f4a8a35a482e0d9bf,60ededd7a85ae57505b41553,f,2.8898,0,35,35,10,1,OOROROO,OOROROR,21.31236711,21.07490964,series_0
,,,,,,,,5f979d85f973911610677cd2,Mężczyzna,22,2021-07-13_21h48.41.347,rantool2,2021.1.4,Win32,59.99160118,5f979d85f973911610677cd2,60d9d14f4a8a35a482e0d9bf,60ededd7a85ae57505b41553,j,3.0692,0,36,36,59,1,RRRORRO,RRRORRR,21.56657303,20.89823192,series_0
,,,,,,,,5f979d85f973911610677cd2,Mężczyzna,22,2021-07-13_21h48.41.347,rantool2,2021.1.4,Win32,59.99160118,5f979d85f973911610677cd2,60d9d14f4a8a35a482e0d9bf,60ededd7a85ae57505b41553,f,4.7691,0,37,37,54,1,RRORROO,RRORROR,21.55250791,20.9984461,series_0
,,,,,,,,5f979d85f973911610677cd2,Mężczyzna,22,2021-07-13_21h48.41.347,rantool2,2021.1.4,Win32,59.99160118,5f979d85f973911610677cd2,60d9d14f4a8a35a482e0d9bf,60ededd7a85ae57505b41553,j,4.3325,0,38,38,19,1,OROORRO,OROORRR,21.73568164,22.11181017,series_1
,,,,,,,,5f979d85f973911610677cd2,Mężczyzna,22,2021-07-13_21h48.41.347,rantool2,2021.1.4,Win32,59.99160118,5f979d85f973911610677cd2,60d9d14f4a8a35a482e0d9bf,60ededd7a85ae57505b41553,j,3.5509,0,39,39,17,1,OROOORO,OROOORR,21.03750787,22.12173012,series_1
,,,,,,,,5f979d85f973911610677cd2,Mężczyzna,22,2021-07-13_21h48.41.347,rantool2,2021.1.4,Win32,59.99160118,5f979d85f973911610677cd2,60d9d14f4a8a35a482e0d9bf,60ededd7a85ae57505b41553,j,2.5349,0,40,40,13,1,OORRORO,OORRORR,21.66733484,22.11181017,series_1
,,,,,,,,5f979d85f973911610677cd2,Mężczyzna,22,2021-07-13_21h48.41.347,rantool2,2021.1.4,Win32,59.99160118,5f979d85f973911610677cd2,60d9d14f4a8a35a482e0d9bf,60ededd7a85ae57505b41553,f,1.3346,0,41,41,20,1,OROROOO,OROROOR,21.31236711,21.90565814,series_1
,,,,,,,,5f979d85f973911610677cd2,Mężczyzna,22,2021-07-13_21h48.41.347,rantool2,2021.1.4,Win32,59.99160118,5f979d85f973911610677cd2,60d9d14f4a8a35a482e0d9bf,60ededd7a85ae57505b41553,j,2.0879,0,42,42,45,1,RORRORO,RORRORR,20.78182524,21.22513037,series_1
,,,,,,,,5f979d85f973911610677cd2,Mężczyzna,22,2021-07-13_21h48.41.347,rantool2,2021.1.4,Win32,59.99160118,5f979d85f973911610677cd2,60d9d14f4a8a35a482e0d9bf,60ededd7a85ae57505b41553,f,1.875,0,43,43,63,1,RRRRRRO,RRRRRRR,21.35278725,19.62521613,series_0
,,,,,,,,5f979d85f973911610677cd2,Mężczyzna,22,2021-07-13_21h48.41.347,rantool2,2021.1.4,Win32,59.99160118,5f979d85f973911610677cd2,60d9d14f4a8a35a482e0d9bf,60ededd7a85ae57505b41553,j,2.7189,0,44,44,26,1,ORROROO,ORROROR,22.02732763,21.71443381,series_0
,,,,,,,,5f979d85f973911610677cd2,Mężczyzna,22,2021-07-13_21h48.41.347,rantool2,2021.1.4,Win32,59.99160118,5f979d85f973911610677cd2,60d9d14f4a8a35a482e0d9bf,60ededd7a85ae57505b41553,f,2.1344,0,45,45,15,1,OORRRRO,OORRRRR,22.10108823,21.74922619,series_0
,,,,,,,,5f979d85f973911610677cd2,Mężczyzna,22,2021-07-13_21h48.41.347,rantool2,2021.1.4,Win32,59.99160118,5f979d85f973911610677cd2,60d9d14f4a8a35a482e0d9bf,60ededd7a85ae57505b41553,j,2.5064,0,46,46,58,1,RRROROO,RRROROR,22.1285618,21.37121559,series_0
,,,,,,,,5f979d85f973911610677cd2,Mężczyzna,22,2021-07-13_21h48.41.347,rantool2,2021.1.4,Win32,59.99160118,5f979d85f973911610677cd2,60d9d14f4a8a35a482e0d9bf,60ededd7a85ae57505b41553,f,2.1088,0,47,47,44,1,RORROOO,RORROOR,21.66733484,22.02566557,series_1
,,,,,,,,5f979d85f973911610677cd2,Mężczyzna,22,2021-07-13_21h48.41.347,rantool2,2021.1.4,Win32,59.99160118,5f979d85f973911610677cd2,60d9d14f4a8a35a482e0d9bf,60ededd7a85ae57505b41553,j,2.1119,0,48,48,31,1,ORRRRRO,ORRRRRR,22.16413392,20.74050628,series_0
,,,,,,,,5f979d85f973911610677cd2,Mężczyzna,22,2021-07-13_21h48.41.347,rantool2,2021.1.4,Win32,59.99160118,5f979d85f973911610677cd2,60d9d14f4a8a35a482e0d9bf,60ededd7a85ae57505b41553,f,1.4745,0,49,49,14,1,OORRROO,OORRROR,22.24142883,22.16977179,series_0
,,,,,,,,5f979d85f973911610677cd2,Mężczyzna,22,2021-07-13_21h48.41.347,rantool2,2021.1.4,Win32,59.99160118,5f979d85f973911610677cd2,60d9d14f4a8a35a482e0d9bf,60ededd7a85ae57505b41553,j,2.5162,0,50,50,61,1,RRRRORO,RRRRORR,21.81333602,21.17347734,series_0
,,,,,,,,5f979d85f973911610677cd2,Mężczyzna,22,2021-07-13_21h48.41.347,rantool2,2021.1.4,Win32,59.99160118,5f979d85f973911610677cd2,60d9d14f4a8a35a482e0d9bf,60ededd7a85ae57505b41553,f,1.9048,0,51,51,22,1,ORORROO,ORORROR,22.02732763,21.57657071,series_0
,,,,,,,,5f979d85f973911610677cd2,Mężczyzna,22,2021-07-13_21h48.41.347,rantool2,2021.1.4,Win32,59.99160118,5f979d85f973911610677cd2,60d9d14f4a8a35a482e0d9bf,60ededd7a85ae57505b41553,j,1.8846,0,52,52,32,1,ROOOOOO,ROOOOOR,19.92253567,21.27974287,series_1
,,,,,,,,5f979d85f973911610677cd2,Mężczyzna,22,2021-07-13_21h48.41.347,rantool2,2021.1.4,Win32,59.99160118,5f979d85f973911610677cd2,60d9d14f4a8a35a482e0d9bf,60ededd7a85ae57505b41553,j,2.591,0,53,53,11,1,OORORRO,OORORRR,22.18365867,22.6797523,series_1
,,,,,,,,5f979d85f973911610677cd2,Mężczyzna,22,2021-07-13_21h48.41.347,rantool2,2021.1.4,Win32,59.99160118,5f979d85f973911610677cd2,60d9d14f4a8a35a482e0d9bf,60ededd7a85ae57505b41553,f,3.7348,0,54,54,49,1,RROOORO,RROOORR,21.76276513,22.53364006,series_1
,,,,,,,,5f979d85f973911610677cd2,Mężczyzna,22,2021-07-13_21h48.41.347,rantool2,2021.1.4,Win32,59.99160118,5f979d85f973911610677cd2,60d9d14f4a8a35a482e0d9bf,60ededd7a85ae57505b41553,f,1.7173,0,55,55,4,1,OOOROOO,OOOROOR,19.91402015,21.21223021,series_1
,,,,,,,,5f979d85f973911610677cd2,Mężczyzna,22,2021-07-13_21h48.41.347,rantool2,2021.1.4,Win32,59.99160118,5f979d85f973911610677cd2,60d9d14f4a8a35a482e0d9bf,60ededd7a85ae57505b41553,j,2.1544,0,56,56,55,1,RRORRRO,RRORRRR,21.56657303,21.21223021,series_0
,,,,,,,,5f979d85f973911610677cd2,Mężczyzna,22,2021-07-13_21h48.41.347,rantool2,2021.1.4,Win32,59.99160118,5f979d85f973911610677cd2,60d9d14f4a8a35a482e0d9bf,60ededd7a85ae57505b41553,f,2.9498,0,57,57,56,1,RRROOOO,RRROOOR,21.6194508,22.31681875,series_1
,,,,,,,,5f979d85f973911610677cd2,Mężczyzna,22,2021-07-13_21h48.41.347,rantool2,2021.1.4,Win32,59.99160118,5f979d85f973911610677cd2,60d9d14f4a8a35a482e0d9bf,60ededd7a85ae57505b41553,j,2.8204,0,58,58,51,1,RROORRO,RROORRR,21.89852628,22.02786418,series_1
,,,,,,,,5f979d85f973911610677cd2,Mężczyzna,22,2021-07-13_21h48.41.347,rantool2,2021.1.4,Win32,59.99160118,5f979d85f973911610677cd2,60d9d14f4a8a35a482e0d9bf,60ededd7a85ae57505b41553,f,3.4349,0,59,59,16,1,OROOOOO,OROOOOR,20.43051175,21.17347734,series_1
,,,,,,,,5f979d85f973911610677cd2,Mężczyzna,22,2021-07-13_21h48.41.347,rantool2,2021.1.4,Win32,59.99160118,5f979d85f973911610677cd2,60d9d14f4a8a35a482e0d9bf,60ededd7a85ae57505b41553,j,4.9438,0,60,60,5,1,OOORORO,OOORORR,20.87963819,21.9921709,series_1
,,,,,,,,5f979d85f973911610677cd2,Mężczyzna,22,2021-07-13_21h48.41.347,rantool2,2021.1.4,Win32,59.99160118,5f979d85f973911610677cd2,60d9d14f4a8a35a482e0d9bf,60ededd7a85ae57505b41553,f,1.6888,0,61,61,42,1,ROROROO,ROROROR,20.39515459,19.8361834,series_0
,,,,,,,,5f979d85f973911610677cd2,Mężczyzna,22,2021-07-13_21h48.41.347,rantool2,2021.1.4,Win32,59.99160118,5f979d85f973911610677cd2,60d9d14f4a8a35a482e0d9bf,60ededd7a85ae57505b41553,j,2.2043,0,62,62,33,1,ROOOORO,ROOOORR,20.83779602,22.03072203,series_1
,,,,,,,,5f979d85f973911610677cd2,Mężczyzna,22,2021-07-13_21h48.41.347,rantool2,2021.1.4,Win32,59.99160118,5f979d85f973911610677cd2,60d9d14f4a8a35a482e0d9bf,60ededd7a85ae57505b41553,j,3.3234,0,63,63,1,1,OOOOORO,OOOOORR,19.92253567,20.74050628,series_1
