key_resp_7.keys,key_resp_7.rt,trials_2.thisRepN,trials_2.thisTrialN,trials_2.thisN,trials_2.thisIndex,trials_2.ran,id,series_0,series_1,acss_0,acss_1,comparison,id*,Płeć*,Wiek*,date,expName,psychopyVersion,OS,frameRate,STUDY_ID,SESSION_ID,key_resp_5.keys,key_resp_5.corr,key_resp_5.rt,trials.thisRepN,trials.thisTrialN,trials.thisN,trials.thisIndex,trials.ran
j,2.4687,0,0,0,53,1,5cacc9cd0f757800019d0bac,RRORORO,RRORORR,20.71309134,21.90565814,series_1,5cacc9cd0f757800019d0bac,Mężczyzna,19,2021-09-06_19h27.47.931,rantool2,2021.1.4,Win32,59.81934558,6135e006383e6ea6c3d06a28,61364f601edc5e1211a32de4,,,,,,,,
j,3.5916,0,1,1,23,1,5cacc9cd0f757800019d0bac,ORORRRO,ORORRRR,22.1285618,21.9921709,series_0,5cacc9cd0f757800019d0bac,Mężczyzna,19,2021-09-06_19h27.47.931,rantool2,2021.1.4,Win32,59.81934558,6135e006383e6ea6c3d06a28,61364f601edc5e1211a32de4,,,,,,,,
j,3.3346,0,2,2,34,1,5cacc9cd0f757800019d0bac,ROOOROO,ROOOROR,21.03750787,21.24781509,series_1,5cacc9cd0f757800019d0bac,Mężczyzna,19,2021-09-06_19h27.47.931,rantool2,2021.1.4,Win32,59.81934558,6135e006383e6ea6c3d06a28,61364f601edc5e1211a32de4,,,,,,,,
f,4.0673,0,3,3,57,1,5cacc9cd0f757800019d0bac,RRROORO,RRROORR,21.82425538,22.07102821,series_1,5cacc9cd0f757800019d0bac,Mężczyzna,19,2021-09-06_19h27.47.931,rantool2,2021.1.4,Win32,59.81934558,6135e006383e6ea6c3d06a28,61364f601edc5e1211a32de4,,,,,,,,
j,3.5367,0,4,4,29,1,5cacc9cd0f757800019d0bac,ORRRORO,ORRRORR,22.00300695,22.12173012,series_1,5cacc9cd0f757800019d0bac,Mężczyzna,19,2021-09-06_19h27.47.931,rantool2,2021.1.4,Win32,59.81934558,6135e006383e6ea6c3d06a28,61364f601edc5e1211a32de4,,,,,,,,
f,2.5424,0,5,5,31,1,5cacc9cd0f757800019d0bac,ORRRRRO,ORRRRRR,22.16413392,20.74050628,series_0,5cacc9cd0f757800019d0bac,Mężczyzna,19,2021-09-06_19h27.47.931,rantool2,2021.1.4,Win32,59.81934558,6135e006383e6ea6c3d06a28,61364f601edc5e1211a32de4,,,,,,,,
j,2.5335,0,6,6,0,1,5cacc9cd0f757800019d0bac,OOOOOOO,OOOOOOR,18.52739004,19.62521613,series_1,5cacc9cd0f757800019d0bac,Mężczyzna,19,2021-09-06_19h27.47.931,rantool2,2021.1.4,Win32,59.81934558,6135e006383e6ea6c3d06a28,61364f601edc5e1211a32de4,,,,,,,,
f,3.5076,0,7,7,37,1,5cacc9cd0f757800019d0bac,ROORORO,ROORORR,20.42602454,21.57657071,series_1,5cacc9cd0f757800019d0bac,Mężczyzna,19,2021-09-06_19h27.47.931,rantool2,2021.1.4,Win32,59.81934558,6135e006383e6ea6c3d06a28,61364f601edc5e1211a32de4,,,,,,,,
j,3.3187,0,8,8,9,1,5cacc9cd0f757800019d0bac,OOROORO,OOROORR,21.07991943,22.2428857,series_1,5cacc9cd0f757800019d0bac,Mężczyzna,19,2021-09-06_19h27.47.931,rantool2,2021.1.4,Win32,59.81934558,6135e006383e6ea6c3d06a28,61364f601edc5e1211a32de4,,,,,,,,
f,3.3016,0,9,9,13,1,5cacc9cd0f757800019d0bac,OORRORO,OORRORR,21.66733484,22.11181017,series_1,5cacc9cd0f757800019d0bac,Mężczyzna,19,2021-09-06_19h27.47.931,rantool2,2021.1.4,Win32,59.81934558,6135e006383e6ea6c3d06a28,61364f601edc5e1211a32de4,,,,,,,,
j,2.8276,0,10,10,24,1,5cacc9cd0f757800019d0bac,ORROOOO,ORROOOR,21.12383932,22.07102821,series_1,5cacc9cd0f757800019d0bac,Mężczyzna,19,2021-09-06_19h27.47.931,rantool2,2021.1.4,Win32,59.81934558,6135e006383e6ea6c3d06a28,61364f601edc5e1211a32de4,,,,,,,,
f,2.1504,0,11,11,59,1,5cacc9cd0f757800019d0bac,RRRORRO,RRRORRR,21.56657303,20.89823192,series_0,5cacc9cd0f757800019d0bac,Mężczyzna,19,2021-09-06_19h27.47.931,rantool2,2021.1.4,Win32,59.81934558,6135e006383e6ea6c3d06a28,61364f601edc5e1211a32de4,,,,,,,,
f,3.0089,0,12,12,21,1,5cacc9cd0f757800019d0bac,ORORORO,ORORORR,20.39515459,22.06781359,series_1,5cacc9cd0f757800019d0bac,Mężczyzna,19,2021-09-06_19h27.47.931,rantool2,2021.1.4,Win32,59.81934558,6135e006383e6ea6c3d06a28,61364f601edc5e1211a32de4,,,,,,,,
f,2.5505,0,13,13,42,1,5cacc9cd0f757800019d0bac,ROROROO,ROROROR,20.39515459,19.8361834,series_0,5cacc9cd0f757800019d0bac,Mężczyzna,19,2021-09-06_19h27.47.931,rantool2,2021.1.4,Win32,59.81934558,6135e006383e6ea6c3d06a28,61364f601edc5e1211a32de4,,,,,,,,
j,3.1505,0,14,14,44,1,5cacc9cd0f757800019d0bac,RORROOO,RORROOR,21.66733484,22.02566557,series_1,5cacc9cd0f757800019d0bac,Mężczyzna,19,2021-09-06_19h27.47.931,rantool2,2021.1.4,Win32,59.81934558,6135e006383e6ea6c3d06a28,61364f601edc5e1211a32de4,,,,,,,,
j,3.0665,0,15,15,17,1,5cacc9cd0f757800019d0bac,OROOORO,OROOORR,21.03750787,22.12173012,series_1,5cacc9cd0f757800019d0bac,Mężczyzna,19,2021-09-06_19h27.47.931,rantool2,2021.1.4,Win32,59.81934558,6135e006383e6ea6c3d06a28,61364f601edc5e1211a32de4,,,,,,,,
f,2.4415,0,16,16,52,1,5cacc9cd0f757800019d0bac,RROROOO,RROROOR,22.18365867,22.11097995,series_0,5cacc9cd0f757800019d0bac,Mężczyzna,19,2021-09-06_19h27.47.931,rantool2,2021.1.4,Win32,59.81934558,6135e006383e6ea6c3d06a28,61364f601edc5e1211a32de4,,,,,,,,
j,2.022,0,17,17,33,1,5cacc9cd0f757800019d0bac,ROOOORO,ROOOORR,20.83779602,22.03072203,series_1,5cacc9cd0f757800019d0bac,Mężczyzna,19,2021-09-06_19h27.47.931,rantool2,2021.1.4,Win32,59.81934558,6135e006383e6ea6c3d06a28,61364f601edc5e1211a32de4,,,,,,,,
j,2.5677,0,18,18,15,1,5cacc9cd0f757800019d0bac,OORRRRO,OORRRRR,22.10108823,21.74922619,series_0,5cacc9cd0f757800019d0bac,Mężczyzna,19,2021-09-06_19h27.47.931,rantool2,2021.1.4,Win32,59.81934558,6135e006383e6ea6c3d06a28,61364f601edc5e1211a32de4,,,,,,,,
f,1.8345,0,19,19,40,1,5cacc9cd0f757800019d0bac,ROROOOO,ROROOOR,20.87963819,21.37121559,series_1,5cacc9cd0f757800019d0bac,Mężczyzna,19,2021-09-06_19h27.47.931,rantool2,2021.1.4,Win32,59.81934558,6135e006383e6ea6c3d06a28,61364f601edc5e1211a32de4,,,,,,,,
j,2.885,0,20,20,49,1,5cacc9cd0f757800019d0bac,RROOORO,RROOORR,21.76276513,22.53364006,series_1,5cacc9cd0f757800019d0bac,Mężczyzna,19,2021-09-06_19h27.47.931,rantool2,2021.1.4,Win32,59.81934558,6135e006383e6ea6c3d06a28,61364f601edc5e1211a32de4,,,,,,,,
j,2.5606,0,21,21,39,1,5cacc9cd0f757800019d0bac,ROORRRO,ROORRRR,21.82425538,21.38562617,series_0,5cacc9cd0f757800019d0bac,Mężczyzna,19,2021-09-06_19h27.47.931,rantool2,2021.1.4,Win32,59.81934558,6135e006383e6ea6c3d06a28,61364f601edc5e1211a32de4,,,,,,,,
f,2.6841,0,22,22,25,1,5cacc9cd0f757800019d0bac,ORROORO,ORROORR,21.79500819,22.61624387,series_1,5cacc9cd0f757800019d0bac,Mężczyzna,19,2021-09-06_19h27.47.931,rantool2,2021.1.4,Win32,59.81934558,6135e006383e6ea6c3d06a28,61364f601edc5e1211a32de4,,,,,,,,
f,3.0023,0,23,23,12,1,5cacc9cd0f757800019d0bac,OORROOO,OORROOR,21.30250474,22.02786418,series_1,5cacc9cd0f757800019d0bac,Mężczyzna,19,2021-09-06_19h27.47.931,rantool2,2021.1.4,Win32,59.81934558,6135e006383e6ea6c3d06a28,61364f601edc5e1211a32de4,,,,,,,,
j,1.8715,0,24,24,63,1,5cacc9cd0f757800019d0bac,RRRRRRO,RRRRRRR,21.35278725,19.62521613,series_0,5cacc9cd0f757800019d0bac,Mężczyzna,19,2021-09-06_19h27.47.931,rantool2,2021.1.4,Win32,59.81934558,6135e006383e6ea6c3d06a28,61364f601edc5e1211a32de4,,,,,,,,
f,2.8749,0,25,25,30,1,5cacc9cd0f757800019d0bac,ORRRROO,ORRRROR,22.46748491,22.03072203,series_0,5cacc9cd0f757800019d0bac,Mężczyzna,19,2021-09-06_19h27.47.931,rantool2,2021.1.4,Win32,59.81934558,6135e006383e6ea6c3d06a28,61364f601edc5e1211a32de4,,,,,,,,
j,2.4838,0,26,26,62,1,5cacc9cd0f757800019d0bac,RRRRROO,RRRRROR,22.16413392,21.27974287,series_0,5cacc9cd0f757800019d0bac,Mężczyzna,19,2021-09-06_19h27.47.931,rantool2,2021.1.4,Win32,59.81934558,6135e006383e6ea6c3d06a28,61364f601edc5e1211a32de4,,,,,,,,
f,2.0511,0,27,27,28,1,5cacc9cd0f757800019d0bac,ORRROOO,ORRROOR,22.24142883,22.53364006,series_1,5cacc9cd0f757800019d0bac,Mężczyzna,19,2021-09-06_19h27.47.931,rantool2,2021.1.4,Win32,59.81934558,6135e006383e6ea6c3d06a28,61364f601edc5e1211a32de4,,,,,,,,
j,2.8758,0,28,28,51,1,5cacc9cd0f757800019d0bac,RROORRO,RROORRR,21.89852628,22.02786418,series_1,5cacc9cd0f757800019d0bac,Mężczyzna,19,2021-09-06_19h27.47.931,rantool2,2021.1.4,Win32,59.81934558,6135e006383e6ea6c3d06a28,61364f601edc5e1211a32de4,,,,,,,,
j,2.6175,0,29,29,46,1,5cacc9cd0f757800019d0bac,RORRROO,RORRROR,22.00300695,21.24781509,series_0,5cacc9cd0f757800019d0bac,Mężczyzna,19,2021-09-06_19h27.47.931,rantool2,2021.1.4,Win32,59.81934558,6135e006383e6ea6c3d06a28,61364f601edc5e1211a32de4,,,,,,,,
j,2.6725,0,30,30,61,1,5cacc9cd0f757800019d0bac,RRRRORO,RRRRORR,21.81333602,21.17347734,series_0,5cacc9cd0f757800019d0bac,Mężczyzna,19,2021-09-06_19h27.47.931,rantool2,2021.1.4,Win32,59.81934558,6135e006383e6ea6c3d06a28,61364f601edc5e1211a32de4,,,,,,,,
f,1.5679,0,31,31,41,1,5cacc9cd0f757800019d0bac,ROROORO,ROROORR,20.42602454,21.71443381,series_1,5cacc9cd0f757800019d0bac,Mężczyzna,19,2021-09-06_19h27.47.931,rantool2,2021.1.4,Win32,59.81934558,6135e006383e6ea6c3d06a28,61364f601edc5e1211a32de4,,,,,,,,
j,1.6064,0,32,32,22,1,5cacc9cd0f757800019d0bac,ORORROO,ORORROR,22.02732763,21.57657071,series_0,5cacc9cd0f757800019d0bac,Mężczyzna,19,2021-09-06_19h27.47.931,rantool2,2021.1.4,Win32,59.81934558,6135e006383e6ea6c3d06a28,61364f601edc5e1211a32de4,,,,,,,,
f,1.678,0,33,33,2,1,5cacc9cd0f757800019d0bac,OOOOROO,OOOOROR,20.43051175,21.02936224,series_1,5cacc9cd0f757800019d0bac,Mężczyzna,19,2021-09-06_19h27.47.931,rantool2,2021.1.4,Win32,59.81934558,6135e006383e6ea6c3d06a28,61364f601edc5e1211a32de4,,,,,,,,
j,1.4015,0,34,34,6,1,5cacc9cd0f757800019d0bac,OOORROO,OOORROR,21.12383932,21.38562617,series_1,5cacc9cd0f757800019d0bac,Mężczyzna,19,2021-09-06_19h27.47.931,rantool2,2021.1.4,Win32,59.81934558,6135e006383e6ea6c3d06a28,61364f601edc5e1211a32de4,,,,,,,,
f,1.9774,0,35,35,1,1,5cacc9cd0f757800019d0bac,OOOOORO,OOOOORR,19.92253567,20.74050628,series_1,5cacc9cd0f757800019d0bac,Mężczyzna,19,2021-09-06_19h27.47.931,rantool2,2021.1.4,Win32,59.81934558,6135e006383e6ea6c3d06a28,61364f601edc5e1211a32de4,,,,,,,,
j,2.4357,0,36,36,18,1,5cacc9cd0f757800019d0bac,OROOROO,OROOROR,20.84860893,21.22513037,series_1,5cacc9cd0f757800019d0bac,Mężczyzna,19,2021-09-06_19h27.47.931,rantool2,2021.1.4,Win32,59.81934558,6135e006383e6ea6c3d06a28,61364f601edc5e1211a32de4,,,,,,,,
f,1.9172,0,37,37,54,1,5cacc9cd0f757800019d0bac,RRORROO,RRORROR,21.55250791,20.9984461,series_0,5cacc9cd0f757800019d0bac,Mężczyzna,19,2021-09-06_19h27.47.931,rantool2,2021.1.4,Win32,59.81934558,6135e006383e6ea6c3d06a28,61364f601edc5e1211a32de4,,,,,,,,
j,1.9045,0,38,38,32,1,5cacc9cd0f757800019d0bac,ROOOOOO,ROOOOOR,19.92253567,21.27974287,series_1,5cacc9cd0f757800019d0bac,Mężczyzna,19,2021-09-06_19h27.47.931,rantool2,2021.1.4,Win32,59.81934558,6135e006383e6ea6c3d06a28,61364f601edc5e1211a32de4,,,,,,,,
j,2.9178,0,39,39,26,1,5cacc9cd0f757800019d0bac,ORROROO,ORROROR,22.02732763,21.71443381,series_0,5cacc9cd0f757800019d0bac,Mężczyzna,19,2021-09-06_19h27.47.931,rantool2,2021.1.4,Win32,59.81934558,6135e006383e6ea6c3d06a28,61364f601edc5e1211a32de4,,,,,,,,
f,1.8194,0,40,40,27,1,5cacc9cd0f757800019d0bac,ORRORRO,ORRORRR,21.55250791,22.2428857,series_1,5cacc9cd0f757800019d0bac,Mężczyzna,19,2021-09-06_19h27.47.931,rantool2,2021.1.4,Win32,59.81934558,6135e006383e6ea6c3d06a28,61364f601edc5e1211a32de4,,,,,,,,
f,1.6197,0,41,41,7,1,5cacc9cd0f757800019d0bac,OOORRRO,OOORRRR,21.6194508,21.899017,series_1,5cacc9cd0f757800019d0bac,Mężczyzna,19,2021-09-06_19h27.47.931,rantool2,2021.1.4,Win32,59.81934558,6135e006383e6ea6c3d06a28,61364f601edc5e1211a32de4,,,,,,,,
j,3.384,0,42,42,3,1,5cacc9cd0f757800019d0bac,OOOORRO,OOOORRR,20.90986523,21.74922619,series_1,5cacc9cd0f757800019d0bac,Mężczyzna,19,2021-09-06_19h27.47.931,rantool2,2021.1.4,Win32,59.81934558,6135e006383e6ea6c3d06a28,61364f601edc5e1211a32de4,,,,,,,,
f,1.7281,0,43,43,19,1,5cacc9cd0f757800019d0bac,OROORRO,OROORRR,21.73568164,22.11181017,series_1,5cacc9cd0f757800019d0bac,Mężczyzna,19,2021-09-06_19h27.47.931,rantool2,2021.1.4,Win32,59.81934558,6135e006383e6ea6c3d06a28,61364f601edc5e1211a32de4,,,,,,,,
j,1.8375,0,44,44,10,1,5cacc9cd0f757800019d0bac,OOROROO,OOROROR,21.31236711,21.07490964,series_0,5cacc9cd0f757800019d0bac,Mężczyzna,19,2021-09-06_19h27.47.931,rantool2,2021.1.4,Win32,59.81934558,6135e006383e6ea6c3d06a28,61364f601edc5e1211a32de4,,,,,,,,
f,3.4244,0,45,45,11,1,5cacc9cd0f757800019d0bac,OORORRO,OORORRR,22.18365867,22.6797523,series_1,5cacc9cd0f757800019d0bac,Mężczyzna,19,2021-09-06_19h27.47.931,rantool2,2021.1.4,Win32,59.81934558,6135e006383e6ea6c3d06a28,61364f601edc5e1211a32de4,,,,,,,,
j,1.4846,0,46,46,58,1,5cacc9cd0f757800019d0bac,RRROROO,RRROROR,22.1285618,21.37121559,series_0,5cacc9cd0f757800019d0bac,Mężczyzna,19,2021-09-06_19h27.47.931,rantool2,2021.1.4,Win32,59.81934558,6135e006383e6ea6c3d06a28,61364f601edc5e1211a32de4,,,,,,,,
f,2.0349,0,47,47,35,1,5cacc9cd0f757800019d0bac,ROOORRO,ROOORRR,21.76276513,22.16977179,series_1,5cacc9cd0f757800019d0bac,Mężczyzna,19,2021-09-06_19h27.47.931,rantool2,2021.1.4,Win32,59.81934558,6135e006383e6ea6c3d06a28,61364f601edc5e1211a32de4,,,,,,,,
j,3.4677,0,48,48,20,1,5cacc9cd0f757800019d0bac,OROROOO,OROROOR,21.31236711,21.90565814,series_1,5cacc9cd0f757800019d0bac,Mężczyzna,19,2021-09-06_19h27.47.931,rantool2,2021.1.4,Win32,59.81934558,6135e006383e6ea6c3d06a28,61364f601edc5e1211a32de4,,,,,,,,
f,1.9544,0,49,49,55,1,5cacc9cd0f757800019d0bac,RRORRRO,RRORRRR,21.56657303,21.21223021,series_0,5cacc9cd0f757800019d0bac,Mężczyzna,19,2021-09-06_19h27.47.931,rantool2,2021.1.4,Win32,59.81934558,6135e006383e6ea6c3d06a28,61364f601edc5e1211a32de4,,,,,,,,
j,3.8681,0,50,50,47,1,5cacc9cd0f757800019d0bac,RORRRRO,RORRRRR,21.81333602,21.02936224,series_0,5cacc9cd0f757800019d0bac,Mężczyzna,19,2021-09-06_19h27.47.931,rantool2,2021.1.4,Win32,59.81934558,6135e006383e6ea6c3d06a28,61364f601edc5e1211a32de4,,,,,,,,
f,3.4841,0,51,51,48,1,5cacc9cd0f757800019d0bac,RROOOOO,RROOOOR,20.90986523,22.15934078,series_1,5cacc9cd0f757800019d0bac,Mężczyzna,19,2021-09-06_19h27.47.931,rantool2,2021.1.4,Win32,59.81934558,6135e006383e6ea6c3d06a28,61364f601edc5e1211a32de4,,,,,,,,
j,2.0522,0,52,52,16,1,5cacc9cd0f757800019d0bac,OROOOOO,OROOOOR,20.43051175,21.17347734,series_1,5cacc9cd0f757800019d0bac,Mężczyzna,19,2021-09-06_19h27.47.931,rantool2,2021.1.4,Win32,59.81934558,6135e006383e6ea6c3d06a28,61364f601edc5e1211a32de4,,,,,,,,
f,1.839,0,53,53,14,1,5cacc9cd0f757800019d0bac,OORRROO,OORRROR,22.24142883,22.16977179,series_0,5cacc9cd0f757800019d0bac,Mężczyzna,19,2021-09-06_19h27.47.931,rantool2,2021.1.4,Win32,59.81934558,6135e006383e6ea6c3d06a28,61364f601edc5e1211a32de4,,,,,,,,
j,1.8837,0,54,54,56,1,5cacc9cd0f757800019d0bac,RRROOOO,RRROOOR,21.6194508,22.31681875,series_1,5cacc9cd0f757800019d0bac,Mężczyzna,19,2021-09-06_19h27.47.931,rantool2,2021.1.4,Win32,59.81934558,6135e006383e6ea6c3d06a28,61364f601edc5e1211a32de4,,,,,,,,
f,2.8995,0,55,55,36,1,5cacc9cd0f757800019d0bac,ROOROOO,ROOROOR,21.07991943,20.9984461,series_0,5cacc9cd0f757800019d0bac,Mężczyzna,19,2021-09-06_19h27.47.931,rantool2,2021.1.4,Win32,59.81934558,6135e006383e6ea6c3d06a28,61364f601edc5e1211a32de4,,,,,,,,
j,1.8203,0,56,56,4,1,5cacc9cd0f757800019d0bac,OOOROOO,OOOROOR,19.91402015,21.21223021,series_1,5cacc9cd0f757800019d0bac,Mężczyzna,19,2021-09-06_19h27.47.931,rantool2,2021.1.4,Win32,59.81934558,6135e006383e6ea6c3d06a28,61364f601edc5e1211a32de4,,,,,,,,
f,2.1512,0,57,57,50,1,5cacc9cd0f757800019d0bac,RROOROO,RROOROR,21.73568164,22.02566557,series_1,5cacc9cd0f757800019d0bac,Mężczyzna,19,2021-09-06_19h27.47.931,rantool2,2021.1.4,Win32,59.81934558,6135e006383e6ea6c3d06a28,61364f601edc5e1211a32de4,,,,,,,,
j,3.6511,0,58,58,5,1,5cacc9cd0f757800019d0bac,OOORORO,OOORORR,20.87963819,21.9921709,series_1,5cacc9cd0f757800019d0bac,Mężczyzna,19,2021-09-06_19h27.47.931,rantool2,2021.1.4,Win32,59.81934558,6135e006383e6ea6c3d06a28,61364f601edc5e1211a32de4,,,,,,,,
f,1.3089,0,59,59,60,1,5cacc9cd0f757800019d0bac,RRRROOO,RRRROOR,22.10108823,22.15934078,series_1,5cacc9cd0f757800019d0bac,Mężczyzna,19,2021-09-06_19h27.47.931,rantool2,2021.1.4,Win32,59.81934558,6135e006383e6ea6c3d06a28,61364f601edc5e1211a32de4,,,,,,,,
j,1.2343,0,60,60,8,1,5cacc9cd0f757800019d0bac,OOROOOO,OOROOOR,19.91402015,20.89823192,series_1,5cacc9cd0f757800019d0bac,Mężczyzna,19,2021-09-06_19h27.47.931,rantool2,2021.1.4,Win32,59.81934558,6135e006383e6ea6c3d06a28,61364f601edc5e1211a32de4,,,,,,,,
f,1.7557,0,61,61,45,1,5cacc9cd0f757800019d0bac,RORRORO,RORRORR,20.78182524,21.22513037,series_1,5cacc9cd0f757800019d0bac,Mężczyzna,19,2021-09-06_19h27.47.931,rantool2,2021.1.4,Win32,59.81934558,6135e006383e6ea6c3d06a28,61364f601edc5e1211a32de4,,,,,,,,
,,0,62,62,43,1,5cacc9cd0f757800019d0bac,RORORRO,RORORRR,20.71309134,21.07490964,series_1,5cacc9cd0f757800019d0bac,Mężczyzna,19,2021-09-06_19h27.47.931,rantool2,2021.1.4,Win32,59.81934558,6135e006383e6ea6c3d06a28,61364f601edc5e1211a32de4,,,,,,,,
j,0.0595,0,63,63,38,1,5cacc9cd0f757800019d0bac,ROORROO,ROORROR,21.79500819,21.36812781,series_0,5cacc9cd0f757800019d0bac,Mężczyzna,19,2021-09-06_19h27.47.931,rantool2,2021.1.4,Win32,59.81934558,6135e006383e6ea6c3d06a28,61364f601edc5e1211a32de4,,,,,,,,
,,,,,,,5cacc9cd0f757800019d0bac,,,,,,5cacc9cd0f757800019d0bac,Mężczyzna,19,2021-09-06_19h27.47.931,rantool2,2021.1.4,Win32,59.81934558,6135e006383e6ea6c3d06a28,61364f601edc5e1211a32de4,"[""comma""]",0,[1.2239999999999895],0,0,0,0,1
,,,,,,,5cacc9cd0f757800019d0bac,,,,,,5cacc9cd0f757800019d0bac,Mężczyzna,19,2021-09-06_19h27.47.931,rantool2,2021.1.4,Win32,59.81934558,6135e006383e6ea6c3d06a28,61364f601edc5e1211a32de4,"[""period""]",0,[1.0833999999985053],1,0,1,0,1
,,,,,,,5cacc9cd0f757800019d0bac,,,,,,5cacc9cd0f757800019d0bac,Mężczyzna,19,2021-09-06_19h27.47.931,rantool2,2021.1.4,Win32,59.81934558,6135e006383e6ea6c3d06a28,61364f601edc5e1211a32de4,"[""period""]",0,[0.9671999999992522],2,0,2,0,1
,,,,,,,5cacc9cd0f757800019d0bac,,,,,,5cacc9cd0f757800019d0bac,Mężczyzna,19,2021-09-06_19h27.47.931,rantool2,2021.1.4,Win32,59.81934558,6135e006383e6ea6c3d06a28,61364f601edc5e1211a32de4,"[""comma""]",0,[0.8551000000015279],3,0,3,0,1
,,,,,,,5cacc9cd0f757800019d0bac,,,,,,5cacc9cd0f757800019d0bac,Mężczyzna,19,2021-09-06_19h27.47.931,rantool2,2021.1.4,Win32,59.81934558,6135e006383e6ea6c3d06a28,61364f601edc5e1211a32de4,"[""comma""]",0,[0.8520999999996093],4,0,4,0,1
,,,,,,,5cacc9cd0f757800019d0bac,,,,,,5cacc9cd0f757800019d0bac,Mężczyzna,19,2021-09-06_19h27.47.931,rantool2,2021.1.4,Win32,59.81934558,6135e006383e6ea6c3d06a28,61364f601edc5e1211a32de4,"[""comma""]",0,[0.8922000000011394],5,0,5,0,1
,,,,,,,5cacc9cd0f757800019d0bac,,,,,,5cacc9cd0f757800019d0bac,Mężczyzna,19,2021-09-06_19h27.47.931,rantool2,2021.1.4,Win32,59.81934558,6135e006383e6ea6c3d06a28,61364f601edc5e1211a32de4,"[""period""]",0,[0.910099999999602],6,0,6,0,1
,,,,,,,5cacc9cd0f757800019d0bac,,,,,,5cacc9cd0f757800019d0bac,Mężczyzna,19,2021-09-06_19h27.47.931,rantool2,2021.1.4,Win32,59.81934558,6135e006383e6ea6c3d06a28,61364f601edc5e1211a32de4,"[""period""]",0,[0.25009999999963384],7,0,7,0,1
,,,,,,,5cacc9cd0f757800019d0bac,,,,,,5cacc9cd0f757800019d0bac,Mężczyzna,19,2021-09-06_19h27.47.931,rantool2,2021.1.4,Win32,59.81934558,6135e006383e6ea6c3d06a28,61364f601edc5e1211a32de4,"[""comma""]",0,[0.8274999999999864],8,0,8,0,1
,,,,,,,5cacc9cd0f757800019d0bac,,,,,,5cacc9cd0f757800019d0bac,Mężczyzna,19,2021-09-06_19h27.47.931,rantool2,2021.1.4,Win32,59.81934558,6135e006383e6ea6c3d06a28,61364f601edc5e1211a32de4,"[""period""]",0,[0.5671000000014601],9,0,9,0,1
,,,,,,,5cacc9cd0f757800019d0bac,,,,,,5cacc9cd0f757800019d0bac,Mężczyzna,19,2021-09-06_19h27.47.931,rantool2,2021.1.4,Win32,59.81934558,6135e006383e6ea6c3d06a28,61364f601edc5e1211a32de4,"[""comma""]",0,[0.7162000000011517],10,0,10,0,1
,,,,,,,5cacc9cd0f757800019d0bac,,,,,,5cacc9cd0f757800019d0bac,Mężczyzna,19,2021-09-06_19h27.47.931,rantool2,2021.1.4,Win32,59.81934558,6135e006383e6ea6c3d06a28,61364f601edc5e1211a32de4,"[""period""]",0,[0.32049999999998136],11,0,11,0,1
,,,,,,,5cacc9cd0f757800019d0bac,,,,,,5cacc9cd0f757800019d0bac,Mężczyzna,19,2021-09-06_19h27.47.931,rantool2,2021.1.4,Win32,59.81934558,6135e006383e6ea6c3d06a28,61364f601edc5e1211a32de4,"[""period""]",0,[0.30109999999962156],12,0,12,0,1
,,,,,,,5cacc9cd0f757800019d0bac,,,,,,5cacc9cd0f757800019d0bac,Mężczyzna,19,2021-09-06_19h27.47.931,rantool2,2021.1.4,Win32,59.81934558,6135e006383e6ea6c3d06a28,61364f601edc5e1211a32de4,"[""comma"",""comma""]",0,"[0.20440000000036207,0.2349999999999568]",13,0,13,0,1
,,,,,,,5cacc9cd0f757800019d0bac,,,,,,5cacc9cd0f757800019d0bac,Mężczyzna,19,2021-09-06_19h27.47.931,rantool2,2021.1.4,Win32,59.81934558,6135e006383e6ea6c3d06a28,61364f601edc5e1211a32de4,"[""comma""]",0,[0.15139999999848897],14,0,14,0,1
,,,,,,,5cacc9cd0f757800019d0bac,,,,,,5cacc9cd0f757800019d0bac,Mężczyzna,19,2021-09-06_19h27.47.931,rantool2,2021.1.4,Win32,59.81934558,6135e006383e6ea6c3d06a28,61364f601edc5e1211a32de4,"[""comma""]",0,[0.22009999999966112],15,0,15,0,1
,,,,,,,5cacc9cd0f757800019d0bac,,,,,,5cacc9cd0f757800019d0bac,Mężczyzna,19,2021-09-06_19h27.47.931,rantool2,2021.1.4,Win32,59.81934558,6135e006383e6ea6c3d06a28,61364f601edc5e1211a32de4,"[""period"",""period""]",0,"[0.08770000000112077,1.9510999999996557]",16,0,16,0,1
,,,,,,,5cacc9cd0f757800019d0bac,,,,,,5cacc9cd0f757800019d0bac,Mężczyzna,19,2021-09-06_19h27.47.931,rantool2,2021.1.4,Win32,59.81934558,6135e006383e6ea6c3d06a28,61364f601edc5e1211a32de4,0,0,,17,0,17,0,1
,,,,,,,5cacc9cd0f757800019d0bac,,,,,,5cacc9cd0f757800019d0bac,Mężczyzna,19,2021-09-06_19h27.47.931,rantool2,2021.1.4,Win32,59.81934558,6135e006383e6ea6c3d06a28,61364f601edc5e1211a32de4,"[""comma""]",0,[0.24479999999891788],18,0,18,0,1
,,,,,,,5cacc9cd0f757800019d0bac,,,,,,5cacc9cd0f757800019d0bac,Mężczyzna,19,2021-09-06_19h27.47.931,rantool2,2021.1.4,Win32,59.81934558,6135e006383e6ea6c3d06a28,61364f601edc5e1211a32de4,"[""comma""]",0,[0.29140000000035116],19,0,19,0,1
,,,,,,,5cacc9cd0f757800019d0bac,,,,,,5cacc9cd0f757800019d0bac,Mężczyzna,19,2021-09-06_19h27.47.931,rantool2,2021.1.4,Win32,59.81934558,6135e006383e6ea6c3d06a28,61364f601edc5e1211a32de4,"[""comma""]",0,[0.17329999999890333],20,0,20,0,1
,,,,,,,5cacc9cd0f757800019d0bac,,,,,,5cacc9cd0f757800019d0bac,Mężczyzna,19,2021-09-06_19h27.47.931,rantool2,2021.1.4,Win32,59.81934558,6135e006383e6ea6c3d06a28,61364f601edc5e1211a32de4,"[""period""]",0,[0.23540000000036798],21,0,21,0,1
,,,,,,,5cacc9cd0f757800019d0bac,,,,,,5cacc9cd0f757800019d0bac,Mężczyzna,19,2021-09-06_19h27.47.931,rantool2,2021.1.4,Win32,59.81934558,6135e006383e6ea6c3d06a28,61364f601edc5e1211a32de4,"[""period""]",0,[0.16740000000038435],22,0,22,0,1
,,,,,,,5cacc9cd0f757800019d0bac,,,,,,5cacc9cd0f757800019d0bac,Mężczyzna,19,2021-09-06_19h27.47.931,rantool2,2021.1.4,Win32,59.81934558,6135e006383e6ea6c3d06a28,61364f601edc5e1211a32de4,"[""comma""]",0,[0.023699999999223564],23,0,23,0,1
,,,,,,,5cacc9cd0f757800019d0bac,,,,,,5cacc9cd0f757800019d0bac,Mężczyzna,19,2021-09-06_19h27.47.931,rantool2,2021.1.4,Win32,59.81934558,6135e006383e6ea6c3d06a28,61364f601edc5e1211a32de4,"[""period""]",0,[0.018099999999606098],24,0,24,0,1
,,,,,,,5cacc9cd0f757800019d0bac,,,,,,5cacc9cd0f757800019d0bac,Mężczyzna,19,2021-09-06_19h27.47.931,rantool2,2021.1.4,Win32,59.81934558,6135e006383e6ea6c3d06a28,61364f601edc5e1211a32de4,"[""period""]",0,[0.3035999999996193],25,0,25,0,1
,,,,,,,5cacc9cd0f757800019d0bac,,,,,,5cacc9cd0f757800019d0bac,Mężczyzna,19,2021-09-06_19h27.47.931,rantool2,2021.1.4,Win32,59.81934558,6135e006383e6ea6c3d06a28,61364f601edc5e1211a32de4,"[""period""]",0,[0.22040000000032478],26,0,26,0,1
,,,,,,,5cacc9cd0f757800019d0bac,,,,,,5cacc9cd0f757800019d0bac,Mężczyzna,19,2021-09-06_19h27.47.931,rantool2,2021.1.4,Win32,59.81934558,6135e006383e6ea6c3d06a28,61364f601edc5e1211a32de4,"[""comma""]",0,[0.06880000000074915],27,0,27,0,1
,,,,,,,5cacc9cd0f757800019d0bac,,,,,,5cacc9cd0f757800019d0bac,Mężczyzna,19,2021-09-06_19h27.47.931,rantool2,2021.1.4,Win32,59.81934558,6135e006383e6ea6c3d06a28,61364f601edc5e1211a32de4,"[""period""]",0,[0.2486999999992463],28,0,28,0,1
,,,,,,,5cacc9cd0f757800019d0bac,,,,,,5cacc9cd0f757800019d0bac,Mężczyzna,19,2021-09-06_19h27.47.931,rantool2,2021.1.4,Win32,59.81934558,6135e006383e6ea6c3d06a28,61364f601edc5e1211a32de4,"[""comma""]",0,[0.08430000000072368],29,0,29,0,1
,,,,,,,5cacc9cd0f757800019d0bac,,,,,,5cacc9cd0f757800019d0bac,Mężczyzna,19,2021-09-06_19h27.47.931,rantool2,2021.1.4,Win32,59.81934558,6135e006383e6ea6c3d06a28,61364f601edc5e1211a32de4,"[""period""]",0,[0.2685999999995943],30,0,30,0,1
,,,,,,,5cacc9cd0f757800019d0bac,,,,,,5cacc9cd0f757800019d0bac,Mężczyzna,19,2021-09-06_19h27.47.931,rantool2,2021.1.4,Win32,59.81934558,6135e006383e6ea6c3d06a28,61364f601edc5e1211a32de4,"[""comma""]",0,[0.01940000000041664],31,0,31,0,1
,,,,,,,5cacc9cd0f757800019d0bac,,,,,,5cacc9cd0f757800019d0bac,Mężczyzna,19,2021-09-06_19h27.47.931,rantool2,2021.1.4,Win32,59.81934558,6135e006383e6ea6c3d06a28,61364f601edc5e1211a32de4,"[""comma"",""comma""]",0,"[-0.01620000000110622,0.5991999999992572]",32,0,32,0,1
,,,,,,,5cacc9cd0f757800019d0bac,,,,,,5cacc9cd0f757800019d0bac,Mężczyzna,19,2021-09-06_19h27.47.931,rantool2,2021.1.4,Win32,59.81934558,6135e006383e6ea6c3d06a28,61364f601edc5e1211a32de4,"[""comma""]",0,[0.3735999999996693],33,0,33,0,1
,,,,,,,5cacc9cd0f757800019d0bac,,,,,,5cacc9cd0f757800019d0bac,Mężczyzna,19,2021-09-06_19h27.47.931,rantool2,2021.1.4,Win32,59.81934558,6135e006383e6ea6c3d06a28,61364f601edc5e1211a32de4,"[""period""]",0,[0.3170000000000073],34,0,34,0,1
,,,,,,,5cacc9cd0f757800019d0bac,,,,,,5cacc9cd0f757800019d0bac,Mężczyzna,19,2021-09-06_19h27.47.931,rantool2,2021.1.4,Win32,59.81934558,6135e006383e6ea6c3d06a28,61364f601edc5e1211a32de4,"[""comma""]",0,[0.18470000000110076],35,0,35,0,1
,,,,,,,5cacc9cd0f757800019d0bac,,,,,,5cacc9cd0f757800019d0bac,Mężczyzna,19,2021-09-06_19h27.47.931,rantool2,2021.1.4,Win32,59.81934558,6135e006383e6ea6c3d06a28,61364f601edc5e1211a32de4,"[""period""]",0,[0.2526999999992654],36,0,36,0,1
,,,,,,,5cacc9cd0f757800019d0bac,,,,,,5cacc9cd0f757800019d0bac,Mężczyzna,19,2021-09-06_19h27.47.931,rantool2,2021.1.4,Win32,59.81934558,6135e006383e6ea6c3d06a28,61364f601edc5e1211a32de4,"[""comma""]",0,[0.22160000000150148],37,0,37,0,1
,,,,,,,5cacc9cd0f757800019d0bac,,,,,,5cacc9cd0f757800019d0bac,Mężczyzna,19,2021-09-06_19h27.47.931,rantool2,2021.1.4,Win32,59.81934558,6135e006383e6ea6c3d06a28,61364f601edc5e1211a32de4,"[""comma""]",0,[0.16849999999999454],38,0,38,0,1
,,,,,,,5cacc9cd0f757800019d0bac,,,,,,5cacc9cd0f757800019d0bac,Mężczyzna,19,2021-09-06_19h27.47.931,rantool2,2021.1.4,Win32,59.81934558,6135e006383e6ea6c3d06a28,61364f601edc5e1211a32de4,"[""period""]",0,[0.09350000000000591],39,0,39,0,1
,,,,,,,5cacc9cd0f757800019d0bac,,,,,,5cacc9cd0f757800019d0bac,Mężczyzna,19,2021-09-06_19h27.47.931,rantool2,2021.1.4,Win32,59.81934558,6135e006383e6ea6c3d06a28,61364f601edc5e1211a32de4,"[""comma"",""period""]",0,"[0.23790000000042255,1.8307000000011158]",40,0,40,0,1
,,,,,,,5cacc9cd0f757800019d0bac,,,,,,5cacc9cd0f757800019d0bac,Mężczyzna,19,2021-09-06_19h27.47.931,rantool2,2021.1.4,Win32,59.81934558,6135e006383e6ea6c3d06a28,61364f601edc5e1211a32de4,"[""period""]",0,[0.41700000000003],41,0,41,0,1
,,,,,,,5cacc9cd0f757800019d0bac,,,,,,5cacc9cd0f757800019d0bac,Mężczyzna,19,2021-09-06_19h27.47.931,rantool2,2021.1.4,Win32,59.81934558,6135e006383e6ea6c3d06a28,61364f601edc5e1211a32de4,"[""period""]",0,[0.38430000000073505],42,0,42,0,1
,,,,,,,5cacc9cd0f757800019d0bac,,,,,,5cacc9cd0f757800019d0bac,Mężczyzna,19,2021-09-06_19h27.47.931,rantool2,2021.1.4,Win32,59.81934558,6135e006383e6ea6c3d06a28,61364f601edc5e1211a32de4,"[""period""]",0,[0.3125],43,0,43,0,1
,,,,,,,5cacc9cd0f757800019d0bac,,,,,,5cacc9cd0f757800019d0bac,Mężczyzna,19,2021-09-06_19h27.47.931,rantool2,2021.1.4,Win32,59.81934558,6135e006383e6ea6c3d06a28,61364f601edc5e1211a32de4,"[""comma""]",0,[0.19390000000032614],44,0,44,0,1
,,,,,,,5cacc9cd0f757800019d0bac,,,,,,5cacc9cd0f757800019d0bac,Mężczyzna,19,2021-09-06_19h27.47.931,rantool2,2021.1.4,Win32,59.81934558,6135e006383e6ea6c3d06a28,61364f601edc5e1211a32de4,"[""period""]",0,[0.19579999999888287],45,0,45,0,1
,,,,,,,5cacc9cd0f757800019d0bac,,,,,,5cacc9cd0f757800019d0bac,Mężczyzna,19,2021-09-06_19h27.47.931,rantool2,2021.1.4,Win32,59.81934558,6135e006383e6ea6c3d06a28,61364f601edc5e1211a32de4,"[""comma""]",0,[0.10930000000075779],46,0,46,0,1
,,,,,,,5cacc9cd0f757800019d0bac,,,,,,5cacc9cd0f757800019d0bac,Mężczyzna,19,2021-09-06_19h27.47.931,rantool2,2021.1.4,Win32,59.81934558,6135e006383e6ea6c3d06a28,61364f601edc5e1211a32de4,"[""comma""]",0,[0.23390000000040345],47,0,47,0,1
,,,,,,,5cacc9cd0f757800019d0bac,,,,,,5cacc9cd0f757800019d0bac,Mężczyzna,19,2021-09-06_19h27.47.931,rantool2,2021.1.4,Win32,59.81934558,6135e006383e6ea6c3d06a28,61364f601edc5e1211a32de4,"[""period""]",0,[0.26740000000035025],48,0,48,0,1
,,,,,,,5cacc9cd0f757800019d0bac,,,,,,5cacc9cd0f757800019d0bac,Mężczyzna,19,2021-09-06_19h27.47.931,rantool2,2021.1.4,Win32,59.81934558,6135e006383e6ea6c3d06a28,61364f601edc5e1211a32de4,"[""comma""]",0,[0.2837999999988483],49,0,49,0,1
,,,,,,,5cacc9cd0f757800019d0bac,,,,,,5cacc9cd0f757800019d0bac,Mężczyzna,19,2021-09-06_19h27.47.931,rantool2,2021.1.4,Win32,59.81934558,6135e006383e6ea6c3d06a28,61364f601edc5e1211a32de4,"[""period""]",0,[0.25040000000035434],50,0,50,0,1
,,,,,,,5cacc9cd0f757800019d0bac,,,,,,5cacc9cd0f757800019d0bac,Mężczyzna,19,2021-09-06_19h27.47.931,rantool2,2021.1.4,Win32,59.81934558,6135e006383e6ea6c3d06a28,61364f601edc5e1211a32de4,"[""period""]",0,[0.25099999999997635],51,0,51,0,1
,,,,,,,5cacc9cd0f757800019d0bac,,,,,,5cacc9cd0f757800019d0bac,Mężczyzna,19,2021-09-06_19h27.47.931,rantool2,2021.1.4,Win32,59.81934558,6135e006383e6ea6c3d06a28,61364f601edc5e1211a32de4,"[""period""]",0,[0.20890000000036935],52,0,52,0,1
,,,,,,,5cacc9cd0f757800019d0bac,,,,,,5cacc9cd0f757800019d0bac,Mężczyzna,19,2021-09-06_19h27.47.931,rantool2,2021.1.4,Win32,59.81934558,6135e006383e6ea6c3d06a28,61364f601edc5e1211a32de4,"[""comma""]",0,[0.23369999999925994],53,0,53,0,1
,,,,,,,5cacc9cd0f757800019d0bac,,,,,,5cacc9cd0f757800019d0bac,Mężczyzna,19,2021-09-06_19h27.47.931,rantool2,2021.1.4,Win32,59.81934558,6135e006383e6ea6c3d06a28,61364f601edc5e1211a32de4,"[""period""]",0,[0.23340000000035843],54,0,54,0,1
,,,,,,,5cacc9cd0f757800019d0bac,,,,,,5cacc9cd0f757800019d0bac,Mężczyzna,19,2021-09-06_19h27.47.931,rantool2,2021.1.4,Win32,59.81934558,6135e006383e6ea6c3d06a28,61364f601edc5e1211a32de4,"[""comma""]",0,[0.2839999999999918],55,0,55,0,1
,,,,,,,5cacc9cd0f757800019d0bac,,,,,,5cacc9cd0f757800019d0bac,Mężczyzna,19,2021-09-06_19h27.47.931,rantool2,2021.1.4,Win32,59.81934558,6135e006383e6ea6c3d06a28,61364f601edc5e1211a32de4,"[""period""]",0,[0.051999999999964075],56,0,56,0,1
,,,,,,,5cacc9cd0f757800019d0bac,,,,,,5cacc9cd0f757800019d0bac,Mężczyzna,19,2021-09-06_19h27.47.931,rantool2,2021.1.4,Win32,59.81934558,6135e006383e6ea6c3d06a28,61364f601edc5e1211a32de4,"[""comma""]",0,[0.10890000000034661],57,0,57,0,1
,,,,,,,5cacc9cd0f757800019d0bac,,,,,,5cacc9cd0f757800019d0bac,Mężczyzna,19,2021-09-06_19h27.47.931,rantool2,2021.1.4,Win32,59.81934558,6135e006383e6ea6c3d06a28,61364f601edc5e1211a32de4,"[""comma""]",0,[0.23189999999851807],58,0,58,0,1
,,,,,,,5cacc9cd0f757800019d0bac,,,,,,5cacc9cd0f757800019d0bac,Mężczyzna,19,2021-09-06_19h27.47.931,rantool2,2021.1.4,Win32,59.81934558,6135e006383e6ea6c3d06a28,61364f601edc5e1211a32de4,"[""comma""]",0,[0.2884999999999991],59,0,59,0,1
,,,,,,,5cacc9cd0f757800019d0bac,,,,,,5cacc9cd0f757800019d0bac,Mężczyzna,19,2021-09-06_19h27.47.931,rantool2,2021.1.4,Win32,59.81934558,6135e006383e6ea6c3d06a28,61364f601edc5e1211a32de4,"[""period""]",0,[0.26959999999962747],60,0,60,0,1
,,,,,,,5cacc9cd0f757800019d0bac,,,,,,5cacc9cd0f757800019d0bac,Mężczyzna,19,2021-09-06_19h27.47.931,rantool2,2021.1.4,Win32,59.81934558,6135e006383e6ea6c3d06a28,61364f601edc5e1211a32de4,"[""comma""]",0,[0.21510000000148466],61,0,61,0,1
,,,,,,,5cacc9cd0f757800019d0bac,,,,,,5cacc9cd0f757800019d0bac,Mężczyzna,19,2021-09-06_19h27.47.931,rantool2,2021.1.4,Win32,59.81934558,6135e006383e6ea6c3d06a28,61364f601edc5e1211a32de4,"[""comma""]",0,[0.250599999999622],62,0,62,0,1
,,,,,,,5cacc9cd0f757800019d0bac,,,,,,5cacc9cd0f757800019d0bac,Mężczyzna,19,2021-09-06_19h27.47.931,rantool2,2021.1.4,Win32,59.81934558,6135e006383e6ea6c3d06a28,61364f601edc5e1211a32de4,"[""period""]",0,[0.25099999999997635],63,0,63,0,1
,,,,,,,5cacc9cd0f757800019d0bac,,,,,,5cacc9cd0f757800019d0bac,Mężczyzna,19,2021-09-06_19h27.47.931,rantool2,2021.1.4,Win32,59.81934558,6135e006383e6ea6c3d06a28,61364f601edc5e1211a32de4,"[""comma""]",0,[0.11850000000004002],64,0,64,0,1
,,,,,,,5cacc9cd0f757800019d0bac,,,,,,5cacc9cd0f757800019d0bac,Mężczyzna,19,2021-09-06_19h27.47.931,rantool2,2021.1.4,Win32,59.81934558,6135e006383e6ea6c3d06a28,61364f601edc5e1211a32de4,"[""period""]",0,[0.07599999999996498],65,0,65,0,1
,,,,,,,5cacc9cd0f757800019d0bac,,,,,,5cacc9cd0f757800019d0bac,Mężczyzna,19,2021-09-06_19h27.47.931,rantool2,2021.1.4,Win32,59.81934558,6135e006383e6ea6c3d06a28,61364f601edc5e1211a32de4,"[""comma""]",0,[0.2437999999988847],66,0,66,0,1
,,,,,,,5cacc9cd0f757800019d0bac,,,,,,5cacc9cd0f757800019d0bac,Mężczyzna,19,2021-09-06_19h27.47.931,rantool2,2021.1.4,Win32,59.81934558,6135e006383e6ea6c3d06a28,61364f601edc5e1211a32de4,"[""comma""]",0,[0.15729999999888378],67,0,67,0,1
,,,,,,,5cacc9cd0f757800019d0bac,,,,,,5cacc9cd0f757800019d0bac,Mężczyzna,19,2021-09-06_19h27.47.931,rantool2,2021.1.4,Win32,59.81934558,6135e006383e6ea6c3d06a28,61364f601edc5e1211a32de4,"[""period""]",0,[0.11740000000037298],68,0,68,0,1
,,,,,,,5cacc9cd0f757800019d0bac,,,,,,5cacc9cd0f757800019d0bac,Mężczyzna,19,2021-09-06_19h27.47.931,rantool2,2021.1.4,Win32,59.81934558,6135e006383e6ea6c3d06a28,61364f601edc5e1211a32de4,"[""comma""]",0,[0.2839000000004148],69,0,69,0,1
,,,,,,,5cacc9cd0f757800019d0bac,,,,,,5cacc9cd0f757800019d0bac,Mężczyzna,19,2021-09-06_19h27.47.931,rantool2,2021.1.4,Win32,59.81934558,6135e006383e6ea6c3d06a28,61364f601edc5e1211a32de4,"[""comma""]",0,[0.2618999999984908],70,0,70,0,1
,,,,,,,5cacc9cd0f757800019d0bac,,,,,,5cacc9cd0f757800019d0bac,Mężczyzna,19,2021-09-06_19h27.47.931,rantool2,2021.1.4,Win32,59.81934558,6135e006383e6ea6c3d06a28,61364f601edc5e1211a32de4,"[""period""]",0,[0.2345999999996593],71,0,71,0,1
,,,,,,,5cacc9cd0f757800019d0bac,,,,,,5cacc9cd0f757800019d0bac,Mężczyzna,19,2021-09-06_19h27.47.931,rantool2,2021.1.4,Win32,59.81934558,6135e006383e6ea6c3d06a28,61364f601edc5e1211a32de4,"[""period""]",0,[0.08399999999994634],72,0,72,0,1
,,,,,,,5cacc9cd0f757800019d0bac,,,,,,5cacc9cd0f757800019d0bac,Mężczyzna,19,2021-09-06_19h27.47.931,rantool2,2021.1.4,Win32,59.81934558,6135e006383e6ea6c3d06a28,61364f601edc5e1211a32de4,"[""period""]",0,[0.069599999999582],73,0,73,0,1
,,,,,,,5cacc9cd0f757800019d0bac,,,,,,5cacc9cd0f757800019d0bac,Mężczyzna,19,2021-09-06_19h27.47.931,rantool2,2021.1.4,Win32,59.81934558,6135e006383e6ea6c3d06a28,61364f601edc5e1211a32de4,"[""comma""]",0,[0.3569999999999709],74,0,74,0,1
,,,,,,,5cacc9cd0f757800019d0bac,,,,,,5cacc9cd0f757800019d0bac,Mężczyzna,19,2021-09-06_19h27.47.931,rantool2,2021.1.4,Win32,59.81934558,6135e006383e6ea6c3d06a28,61364f601edc5e1211a32de4,"[""comma""]",0,[0.26010000000144373],75,0,75,0,1
,,,,,,,5cacc9cd0f757800019d0bac,,,,,,5cacc9cd0f757800019d0bac,Mężczyzna,19,2021-09-06_19h27.47.931,rantool2,2021.1.4,Win32,59.81934558,6135e006383e6ea6c3d06a28,61364f601edc5e1211a32de4,"[""comma""]",0,[0.13450000000000273],76,0,76,0,1
,,,,,,,5cacc9cd0f757800019d0bac,,,,,,5cacc9cd0f757800019d0bac,Mężczyzna,19,2021-09-06_19h27.47.931,rantool2,2021.1.4,Win32,59.81934558,6135e006383e6ea6c3d06a28,61364f601edc5e1211a32de4,"[""period""]",0,[0.25359999999966476],77,0,77,0,1
,,,,,,,5cacc9cd0f757800019d0bac,,,,,,5cacc9cd0f757800019d0bac,Mężczyzna,19,2021-09-06_19h27.47.931,rantool2,2021.1.4,Win32,59.81934558,6135e006383e6ea6c3d06a28,61364f601edc5e1211a32de4,"[""period""]",0,[0.2671000000015056],78,0,78,0,1
,,,,,,,5cacc9cd0f757800019d0bac,,,,,,5cacc9cd0f757800019d0bac,Mężczyzna,19,2021-09-06_19h27.47.931,rantool2,2021.1.4,Win32,59.81934558,6135e006383e6ea6c3d06a28,61364f601edc5e1211a32de4,"[""comma""]",0,[0.06970000000114851],79,0,79,0,1
,,,,,,,5cacc9cd0f757800019d0bac,,,,,,5cacc9cd0f757800019d0bac,Mężczyzna,19,2021-09-06_19h27.47.931,rantool2,2021.1.4,Win32,59.81934558,6135e006383e6ea6c3d06a28,61364f601edc5e1211a32de4,"[""period""]",0,[0.2662999999988642],80,0,80,0,1
,,,,,,,5cacc9cd0f757800019d0bac,,,,,,5cacc9cd0f757800019d0bac,Mężczyzna,19,2021-09-06_19h27.47.931,rantool2,2021.1.4,Win32,59.81934558,6135e006383e6ea6c3d06a28,61364f601edc5e1211a32de4,"[""comma""]",0,[0.21809999999959473],81,0,81,0,1
,,,,,,,5cacc9cd0f757800019d0bac,,,,,,5cacc9cd0f757800019d0bac,Mężczyzna,19,2021-09-06_19h27.47.931,rantool2,2021.1.4,Win32,59.81934558,6135e006383e6ea6c3d06a28,61364f601edc5e1211a32de4,"[""period""]",0,[0.14200000000005275],82,0,82,0,1
,,,,,,,5cacc9cd0f757800019d0bac,,,,,,5cacc9cd0f757800019d0bac,Mężczyzna,19,2021-09-06_19h27.47.931,rantool2,2021.1.4,Win32,59.81934558,6135e006383e6ea6c3d06a28,61364f601edc5e1211a32de4,"[""period"",""comma""]",0,"[0.14449999999999363,1.9260000000000446]",83,0,83,0,1
,,,,,,,5cacc9cd0f757800019d0bac,,,,,,5cacc9cd0f757800019d0bac,Mężczyzna,19,2021-09-06_19h27.47.931,rantool2,2021.1.4,Win32,59.81934558,6135e006383e6ea6c3d06a28,61364f601edc5e1211a32de4,"[""comma""]",0,[0.32119999999929405],84,0,84,0,1
,,,,,,,5cacc9cd0f757800019d0bac,,,,,,5cacc9cd0f757800019d0bac,Mężczyzna,19,2021-09-06_19h27.47.931,rantool2,2021.1.4,Win32,59.81934558,6135e006383e6ea6c3d06a28,61364f601edc5e1211a32de4,"[""comma""]",0,[0.4339000000004489],85,0,85,0,1
,,,,,,,5cacc9cd0f757800019d0bac,,,,,,5cacc9cd0f757800019d0bac,Mężczyzna,19,2021-09-06_19h27.47.931,rantool2,2021.1.4,Win32,59.81934558,6135e006383e6ea6c3d06a28,61364f601edc5e1211a32de4,"[""comma""]",0,[0.25900000000001455],86,0,86,0,1
,,,,,,,5cacc9cd0f757800019d0bac,,,,,,5cacc9cd0f757800019d0bac,Mężczyzna,19,2021-09-06_19h27.47.931,rantool2,2021.1.4,Win32,59.81934558,6135e006383e6ea6c3d06a28,61364f601edc5e1211a32de4,"[""period"",""comma""]",0,"[0.23950000000002092,1.8894000000003643]",87,0,87,0,1
,,,,,,,5cacc9cd0f757800019d0bac,,,,,,5cacc9cd0f757800019d0bac,Mężczyzna,19,2021-09-06_19h27.47.931,rantool2,2021.1.4,Win32,59.81934558,6135e006383e6ea6c3d06a28,61364f601edc5e1211a32de4,0,0,,88,0,88,0,1
,,,,,,,5cacc9cd0f757800019d0bac,,,,,,5cacc9cd0f757800019d0bac,Mężczyzna,19,2021-09-06_19h27.47.931,rantool2,2021.1.4,Win32,59.81934558,6135e006383e6ea6c3d06a28,61364f601edc5e1211a32de4,"[""period""]",0,[0.3042000000010603],89,0,89,0,1
,,,,,,,5cacc9cd0f757800019d0bac,,,,,,5cacc9cd0f757800019d0bac,Mężczyzna,19,2021-09-06_19h27.47.931,rantool2,2021.1.4,Win32,59.81934558,6135e006383e6ea6c3d06a28,61364f601edc5e1211a32de4,"[""period""]",0,[0.29440000000033706],90,0,90,0,1
,,,,,,,5cacc9cd0f757800019d0bac,,,,,,5cacc9cd0f757800019d0bac,Mężczyzna,19,2021-09-06_19h27.47.931,rantool2,2021.1.4,Win32,59.81934558,6135e006383e6ea6c3d06a28,61364f601edc5e1211a32de4,"[""comma""]",0,[0.3006999999992104],91,0,91,0,1
,,,,,,,5cacc9cd0f757800019d0bac,,,,,,5cacc9cd0f757800019d0bac,Mężczyzna,19,2021-09-06_19h27.47.931,rantool2,2021.1.4,Win32,59.81934558,6135e006383e6ea6c3d06a28,61364f601edc5e1211a32de4,"[""period""]",0,[0.2216999999992595],92,0,92,0,1
,,,,,,,5cacc9cd0f757800019d0bac,,,,,,5cacc9cd0f757800019d0bac,Mężczyzna,19,2021-09-06_19h27.47.931,rantool2,2021.1.4,Win32,59.81934558,6135e006383e6ea6c3d06a28,61364f601edc5e1211a32de4,"[""comma""]",0,[0.26730000000077325],93,0,93,0,1
,,,,,,,5cacc9cd0f757800019d0bac,,,,,,5cacc9cd0f757800019d0bac,Mężczyzna,19,2021-09-06_19h27.47.931,rantool2,2021.1.4,Win32,59.81934558,6135e006383e6ea6c3d06a28,61364f601edc5e1211a32de4,"[""comma""]",0,[0.2691000000014583],94,0,94,0,1
,,,,,,,5cacc9cd0f757800019d0bac,,,,,,5cacc9cd0f757800019d0bac,Mężczyzna,19,2021-09-06_19h27.47.931,rantool2,2021.1.4,Win32,59.81934558,6135e006383e6ea6c3d06a28,61364f601edc5e1211a32de4,"[""comma"",""comma""]",0,"[0.20019999999931315,0.35090000000036525]",95,0,95,0,1
,,,,,,,5cacc9cd0f757800019d0bac,,,,,,5cacc9cd0f757800019d0bac,Mężczyzna,19,2021-09-06_19h27.47.931,rantool2,2021.1.4,Win32,59.81934558,6135e006383e6ea6c3d06a28,61364f601edc5e1211a32de4,"[""period""]",0,[0.29949999999996635],96,0,96,0,1
,,,,,,,5cacc9cd0f757800019d0bac,,,,,,5cacc9cd0f757800019d0bac,Mężczyzna,19,2021-09-06_19h27.47.931,rantool2,2021.1.4,Win32,59.81934558,6135e006383e6ea6c3d06a28,61364f601edc5e1211a32de4,"[""comma""]",0,[0.2208999999985508],97,0,97,0,1
,,,,,,,5cacc9cd0f757800019d0bac,,,,,,5cacc9cd0f757800019d0bac,Mężczyzna,19,2021-09-06_19h27.47.931,rantool2,2021.1.4,Win32,59.81934558,6135e006383e6ea6c3d06a28,61364f601edc5e1211a32de4,"[""comma""]",0,[0.23270000000115942],98,0,98,0,1
,,,,,,,5cacc9cd0f757800019d0bac,,,,,,5cacc9cd0f757800019d0bac,Mężczyzna,19,2021-09-06_19h27.47.931,rantool2,2021.1.4,Win32,59.81934558,6135e006383e6ea6c3d06a28,61364f601edc5e1211a32de4,"[""comma""]",0,[0.20140000000037617],99,0,99,0,1
,,,,,,,5cacc9cd0f757800019d0bac,,,,,,5cacc9cd0f757800019d0bac,Mężczyzna,19,2021-09-06_19h27.47.931,rantool2,2021.1.4,Win32,59.81934558,6135e006383e6ea6c3d06a28,61364f601edc5e1211a32de4,"[""comma""]",0,[0.25040000000035434],100,0,100,0,1
,,,,,,,5cacc9cd0f757800019d0bac,,,,,,5cacc9cd0f757800019d0bac,Mężczyzna,19,2021-09-06_19h27.47.931,rantool2,2021.1.4,Win32,59.81934558,6135e006383e6ea6c3d06a28,61364f601edc5e1211a32de4,"[""period""]",0,[0.2670999999996866],101,0,101,0,1
,,,,,,,5cacc9cd0f757800019d0bac,,,,,,5cacc9cd0f757800019d0bac,Mężczyzna,19,2021-09-06_19h27.47.931,rantool2,2021.1.4,Win32,59.81934558,6135e006383e6ea6c3d06a28,61364f601edc5e1211a32de4,"[""comma""]",0,[0.14120000000116306],102,0,102,0,1
,,,,,,,5cacc9cd0f757800019d0bac,,,,,,5cacc9cd0f757800019d0bac,Mężczyzna,19,2021-09-06_19h27.47.931,rantool2,2021.1.4,Win32,59.81934558,6135e006383e6ea6c3d06a28,61364f601edc5e1211a32de4,"[""period""]",0,[0.21990000000039345],103,0,103,0,1
,,,,,,,5cacc9cd0f757800019d0bac,,,,,,5cacc9cd0f757800019d0bac,Mężczyzna,19,2021-09-06_19h27.47.931,rantool2,2021.1.4,Win32,59.81934558,6135e006383e6ea6c3d06a28,61364f601edc5e1211a32de4,"[""comma""]",0,[0.34259999999972024],104,0,104,0,1
,,,,,,,5cacc9cd0f757800019d0bac,,,,,,5cacc9cd0f757800019d0bac,Mężczyzna,19,2021-09-06_19h27.47.931,rantool2,2021.1.4,Win32,59.81934558,6135e006383e6ea6c3d06a28,61364f601edc5e1211a32de4,"[""period""]",0,[0.25040000000035434],105,0,105,0,1
,,,,,,,5cacc9cd0f757800019d0bac,,,,,,5cacc9cd0f757800019d0bac,Mężczyzna,19,2021-09-06_19h27.47.931,rantool2,2021.1.4,Win32,59.81934558,6135e006383e6ea6c3d06a28,61364f601edc5e1211a32de4,"[""period""]",0,[0.2834000000003698],106,0,106,0,1
,,,,,,,5cacc9cd0f757800019d0bac,,,,,,5cacc9cd0f757800019d0bac,Mężczyzna,19,2021-09-06_19h27.47.931,rantool2,2021.1.4,Win32,59.81934558,6135e006383e6ea6c3d06a28,61364f601edc5e1211a32de4,"[""comma""]",0,[0.36720000000116215],107,0,107,0,1
,,,,,,,5cacc9cd0f757800019d0bac,,,,,,5cacc9cd0f757800019d0bac,Mężczyzna,19,2021-09-06_19h27.47.931,rantool2,2021.1.4,Win32,59.81934558,6135e006383e6ea6c3d06a28,61364f601edc5e1211a32de4,"[""period""]",0,[0.20709999999962747],108,0,108,0,1
,,,,,,,5cacc9cd0f757800019d0bac,,,,,,5cacc9cd0f757800019d0bac,Mężczyzna,19,2021-09-06_19h27.47.931,rantool2,2021.1.4,Win32,59.81934558,6135e006383e6ea6c3d06a28,61364f601edc5e1211a32de4,"[""period""]",0,[0.31890000000043983],109,0,109,0,1
,,,,,,,5cacc9cd0f757800019d0bac,,,,,,5cacc9cd0f757800019d0bac,Mężczyzna,19,2021-09-06_19h27.47.931,rantool2,2021.1.4,Win32,59.81934558,6135e006383e6ea6c3d06a28,61364f601edc5e1211a32de4,"[""comma""]",0,[0.33459999999968204],110,0,110,0,1
,,,,,,,5cacc9cd0f757800019d0bac,,,,,,5cacc9cd0f757800019d0bac,Mężczyzna,19,2021-09-06_19h27.47.931,rantool2,2021.1.4,Win32,59.81934558,6135e006383e6ea6c3d06a28,61364f601edc5e1211a32de4,"[""period""]",0,[0.23409999999955744],111,0,111,0,1
,,,,,,,5cacc9cd0f757800019d0bac,,,,,,5cacc9cd0f757800019d0bac,Mężczyzna,19,2021-09-06_19h27.47.931,rantool2,2021.1.4,Win32,59.81934558,6135e006383e6ea6c3d06a28,61364f601edc5e1211a32de4,"[""comma""]",0,[0.2826000000014801],112,0,112,0,1
,,,,,,,5cacc9cd0f757800019d0bac,,,,,,5cacc9cd0f757800019d0bac,Mężczyzna,19,2021-09-06_19h27.47.931,rantool2,2021.1.4,Win32,59.81934558,6135e006383e6ea6c3d06a28,61364f601edc5e1211a32de4,"[""period""]",0,[0.14029999999877418],113,0,113,0,1
,,,,,,,5cacc9cd0f757800019d0bac,,,,,,5cacc9cd0f757800019d0bac,Mężczyzna,19,2021-09-06_19h27.47.931,rantool2,2021.1.4,Win32,59.81934558,6135e006383e6ea6c3d06a28,61364f601edc5e1211a32de4,"[""comma""]",0,[0.2753999999985126],114,0,114,0,1
,,,,,,,5cacc9cd0f757800019d0bac,,,,,,5cacc9cd0f757800019d0bac,Mężczyzna,19,2021-09-06_19h27.47.931,rantool2,2021.1.4,Win32,59.81934558,6135e006383e6ea6c3d06a28,61364f601edc5e1211a32de4,"[""period""]",0,[0.20279999999888787],115,0,115,0,1
,,,,,,,5cacc9cd0f757800019d0bac,,,,,,5cacc9cd0f757800019d0bac,Mężczyzna,19,2021-09-06_19h27.47.931,rantool2,2021.1.4,Win32,59.81934558,6135e006383e6ea6c3d06a28,61364f601edc5e1211a32de4,"[""period""]",0,[0.2589000000003807],116,0,116,0,1
,,,,,,,5cacc9cd0f757800019d0bac,,,,,,5cacc9cd0f757800019d0bac,Mężczyzna,19,2021-09-06_19h27.47.931,rantool2,2021.1.4,Win32,59.81934558,6135e006383e6ea6c3d06a28,61364f601edc5e1211a32de4,"[""comma""]",0,[0.23909999999966658],117,0,117,0,1
,,,,,,,5cacc9cd0f757800019d0bac,,,,,,5cacc9cd0f757800019d0bac,Mężczyzna,19,2021-09-06_19h27.47.931,rantool2,2021.1.4,Win32,59.81934558,6135e006383e6ea6c3d06a28,61364f601edc5e1211a32de4,"[""comma""]",0,[0.24159999999960746],118,0,118,0,1
,,,,,,,5cacc9cd0f757800019d0bac,,,,,,5cacc9cd0f757800019d0bac,Mężczyzna,19,2021-09-06_19h27.47.931,rantool2,2021.1.4,Win32,59.81934558,6135e006383e6ea6c3d06a28,61364f601edc5e1211a32de4,"[""comma""]",0,[0.022599999999670217],119,0,119,0,1
