key_resp_5.keys,key_resp_5.corr,key_resp_5.rt,trials.thisRepN,trials.thisTrialN,trials.thisN,trials.thisIndex,trials.ran,id*,Płeć*,Wiek*,date,expName,psychopyVersion,OS,frameRate,id,STUDY_ID,SESSION_ID
0,,,0,0,0,0,1,5f9703fb588a4d05da750510,Mężczyzna,21,2021-07-13_21h56.23.685,rantool2,2021.1.4,Win32,60.03121623,5f9703fb588a4d05da750510,60d9d14f4a8a35a482e0d9bf,60edef9c1c8eacaa4345fe69
"[""comma""]",0,[0.7014999999999958],1,0,1,0,1,5f9703fb588a4d05da750510,Mężczyzna,21,2021-07-13_21h56.23.685,rantool2,2021.1.4,Win32,60.03121623,5f9703fb588a4d05da750510,60d9d14f4a8a35a482e0d9bf,60edef9c1c8eacaa4345fe69
"[""comma""]",0,[0.399799999997029],2,0,2,0,1,5f9703fb588a4d05da750510,Mężczyzna,21,2021-07-13_21h56.23.685,rantool2,2021.1.4,Win32,60.03121623,5f9703fb588a4d05da750510,60d9d14f4a8a35a482e0d9bf,60edef9c1c8eacaa4345fe69
"[""comma""]",0,[0.2613999999985026],3,0,3,0,1,5f9703fb588a4d05da750510,Mężczyzna,21,2021-07-13_21h56.23.685,rantool2,2021.1.4,Win32,60.03121623,5f9703fb588a4d05da750510,60d9d14f4a8a35a482e0d9bf,60edef9c1c8eacaa4345fe69
"[""comma""]",0,[0.2079999999999842],4,0,4,0,1,5f9703fb588a4d05da750510,Mężczyzna,21,2021-07-13_21h56.23.685,rantool2,2021.1.4,Win32,60.03121623,5f9703fb588a4d05da750510,60d9d14f4a8a35a482e0d9bf,60edef9c1c8eacaa4345fe69
"[""comma""]",0,[0.20839999999853376],5,0,5,0,1,5f9703fb588a4d05da750510,Mężczyzna,21,2021-07-13_21h56.23.685,rantool2,2021.1.4,Win32,60.03121623,5f9703fb588a4d05da750510,60d9d14f4a8a35a482e0d9bf,60edef9c1c8eacaa4345fe69
"[""comma""]",0,[-0.025699999995538292],6,0,6,0,1,5f9703fb588a4d05da750510,Mężczyzna,21,2021-07-13_21h56.23.685,rantool2,2021.1.4,Win32,60.03121623,5f9703fb588a4d05da750510,60d9d14f4a8a35a482e0d9bf,60edef9c1c8eacaa4345fe69
"[""comma""]",0,[0.26710000000147716],7,0,7,0,1,5f9703fb588a4d05da750510,Mężczyzna,21,2021-07-13_21h56.23.685,rantool2,2021.1.4,Win32,60.03121623,5f9703fb588a4d05da750510,60d9d14f4a8a35a482e0d9bf,60edef9c1c8eacaa4345fe69
"[""comma""]",0,[0.2504999999999882],8,0,8,0,1,5f9703fb588a4d05da750510,Mężczyzna,21,2021-07-13_21h56.23.685,rantool2,2021.1.4,Win32,60.03121623,5f9703fb588a4d05da750510,60d9d14f4a8a35a482e0d9bf,60edef9c1c8eacaa4345fe69
"[""comma""]",0,[0.21720000000300388],9,0,9,0,1,5f9703fb588a4d05da750510,Mężczyzna,21,2021-07-13_21h56.23.685,rantool2,2021.1.4,Win32,60.03121623,5f9703fb588a4d05da750510,60d9d14f4a8a35a482e0d9bf,60edef9c1c8eacaa4345fe69
"[""comma""]",0,[0.24260000000148807],10,0,10,0,1,5f9703fb588a4d05da750510,Mężczyzna,21,2021-07-13_21h56.23.685,rantool2,2021.1.4,Win32,60.03121623,5f9703fb588a4d05da750510,60d9d14f4a8a35a482e0d9bf,60edef9c1c8eacaa4345fe69
"[""period""]",0,[0.33379999999701226],11,0,11,0,1,5f9703fb588a4d05da750510,Mężczyzna,21,2021-07-13_21h56.23.685,rantool2,2021.1.4,Win32,60.03121623,5f9703fb588a4d05da750510,60d9d14f4a8a35a482e0d9bf,60edef9c1c8eacaa4345fe69
"[""comma""]",0,[0.2539000000059559],12,0,12,0,1,5f9703fb588a4d05da750510,Mężczyzna,21,2021-07-13_21h56.23.685,rantool2,2021.1.4,Win32,60.03121623,5f9703fb588a4d05da750510,60d9d14f4a8a35a482e0d9bf,60edef9c1c8eacaa4345fe69
"[""comma"",""comma"",""comma"",""comma""]",0,"[0.22619999999554352,0.7669999999999959,1.1276999999955422,1.4253999999985183]",13,0,13,0,1,5f9703fb588a4d05da750510,Mężczyzna,21,2021-07-13_21h56.23.685,rantool2,2021.1.4,Win32,60.03121623,5f9703fb588a4d05da750510,60d9d14f4a8a35a482e0d9bf,60edef9c1c8eacaa4345fe69
"[""comma"",""comma"",""comma""]",0,"[0.05710000000149762,0.5131999999955497,1.2413999999985208]",14,0,14,0,1,5f9703fb588a4d05da750510,Mężczyzna,21,2021-07-13_21h56.23.685,rantool2,2021.1.4,Win32,60.03121623,5f9703fb588a4d05da750510,60d9d14f4a8a35a482e0d9bf,60edef9c1c8eacaa4345fe69
"[""comma"",""comma""]",0,"[0.0005000000000165983,1.718100000001499]",15,0,15,0,1,5f9703fb588a4d05da750510,Mężczyzna,21,2021-07-13_21h56.23.685,rantool2,2021.1.4,Win32,60.03121623,5f9703fb588a4d05da750510,60d9d14f4a8a35a482e0d9bf,60edef9c1c8eacaa4345fe69
"[""comma"",""comma""]",0,"[0.17650000000000432,1.820999999999998]",16,0,16,0,1,5f9703fb588a4d05da750510,Mężczyzna,21,2021-07-13_21h56.23.685,rantool2,2021.1.4,Win32,60.03121623,5f9703fb588a4d05da750510,60d9d14f4a8a35a482e0d9bf,60edef9c1c8eacaa4345fe69
"[""comma"",""comma""]",0,"[0.19410000000149807,0.501499999999993]",17,0,17,0,1,5f9703fb588a4d05da750510,Mężczyzna,21,2021-07-13_21h56.23.685,rantool2,2021.1.4,Win32,60.03121623,5f9703fb588a4d05da750510,60d9d14f4a8a35a482e0d9bf,60edef9c1c8eacaa4345fe69
"[""comma"",""comma""]",0,"[0.19400000000001683,1.9076000000015085]",18,0,18,0,1,5f9703fb588a4d05da750510,Mężczyzna,21,2021-07-13_21h56.23.685,rantool2,2021.1.4,Win32,60.03121623,5f9703fb588a4d05da750510,60d9d14f4a8a35a482e0d9bf,60edef9c1c8eacaa4345fe69
"[""comma"",""comma"",""comma"",""comma""]",0,"[0.509600000001484,1.2071000000014749,1.5537000000029764,1.9077000000029898]",19,0,19,0,1,5f9703fb588a4d05da750510,Mężczyzna,21,2021-07-13_21h56.23.685,rantool2,2021.1.4,Win32,60.03121623,5f9703fb588a4d05da750510,60d9d14f4a8a35a482e0d9bf,60edef9c1c8eacaa4345fe69
"[""comma"",""comma"",""comma"",""comma"",""comma""]",0,"[0.27899999999999636,0.5922000000029755,0.9336000000014906,1.483900000005974,1.903700000002999]",20,0,20,0,1,5f9703fb588a4d05da750510,Mężczyzna,21,2021-07-13_21h56.23.685,rantool2,2021.1.4,Win32,60.03121623,5f9703fb588a4d05da750510,60d9d14f4a8a35a482e0d9bf,60edef9c1c8eacaa4345fe69
"[""comma"",""comma"",""comma""]",0,"[0.24130000000445762,0.5892000000029611,1.7713000000044588]",21,0,21,0,1,5f9703fb588a4d05da750510,Mężczyzna,21,2021-07-13_21h56.23.685,rantool2,2021.1.4,Win32,60.03121623,5f9703fb588a4d05da750510,60d9d14f4a8a35a482e0d9bf,60edef9c1c8eacaa4345fe69
"[""comma"",""comma"",""comma""]",0,"[0.1881999999955326,0.6452999999970359,1.9166999999955294]",22,0,22,0,1,5f9703fb588a4d05da750510,Mężczyzna,21,2021-07-13_21h56.23.685,rantool2,2021.1.4,Win32,60.03121623,5f9703fb588a4d05da750510,60d9d14f4a8a35a482e0d9bf,60edef9c1c8eacaa4345fe69
"[""comma"",""comma""]",0,"[0.6298999999985142,1.5912000000029707]",23,0,23,0,1,5f9703fb588a4d05da750510,Mężczyzna,21,2021-07-13_21h56.23.685,rantool2,2021.1.4,Win32,60.03121623,5f9703fb588a4d05da750510,60d9d14f4a8a35a482e0d9bf,60edef9c1c8eacaa4345fe69
"[""comma"",""comma""]",0,"[0.0730000000000075,1.9000000000000057]",24,0,24,0,1,5f9703fb588a4d05da750510,Mężczyzna,21,2021-07-13_21h56.23.685,rantool2,2021.1.4,Win32,60.03121623,5f9703fb588a4d05da750510,60d9d14f4a8a35a482e0d9bf,60edef9c1c8eacaa4345fe69
"[""comma"",""comma""]",0,"[0.3206999999955258,1.8053999999985137]",25,0,25,0,1,5f9703fb588a4d05da750510,Mężczyzna,21,2021-07-13_21h56.23.685,rantool2,2021.1.4,Win32,60.03121623,5f9703fb588a4d05da750510,60d9d14f4a8a35a482e0d9bf,60edef9c1c8eacaa4345fe69
"[""comma""]",0,[0.26070000000297],26,0,26,0,1,5f9703fb588a4d05da750510,Mężczyzna,21,2021-07-13_21h56.23.685,rantool2,2021.1.4,Win32,60.03121623,5f9703fb588a4d05da750510,60d9d14f4a8a35a482e0d9bf,60edef9c1c8eacaa4345fe69
"[""comma""]",0,[0.08389999999852193],27,0,27,0,1,5f9703fb588a4d05da750510,Mężczyzna,21,2021-07-13_21h56.23.685,rantool2,2021.1.4,Win32,60.03121623,5f9703fb588a4d05da750510,60d9d14f4a8a35a482e0d9bf,60edef9c1c8eacaa4345fe69
"[""comma"",""comma"",""comma""]",0,"[0.03420000000298273,0.8672999999970159,1.5217999999970289]",28,0,28,0,1,5f9703fb588a4d05da750510,Mężczyzna,21,2021-07-13_21h56.23.685,rantool2,2021.1.4,Win32,60.03121623,5f9703fb588a4d05da750510,60d9d14f4a8a35a482e0d9bf,60edef9c1c8eacaa4345fe69
"[""comma"",""comma""]",0,"[0.8803000000044676,1.9627000000029682]",29,0,29,0,1,5f9703fb588a4d05da750510,Mężczyzna,21,2021-07-13_21h56.23.685,rantool2,2021.1.4,Win32,60.03121623,5f9703fb588a4d05da750510,60d9d14f4a8a35a482e0d9bf,60edef9c1c8eacaa4345fe69
"[""comma"",""comma""]",0,"[0.5030000000000143,0.890100000001496]",30,0,30,0,1,5f9703fb588a4d05da750510,Mężczyzna,21,2021-07-13_21h56.23.685,rantool2,2021.1.4,Win32,60.03121623,5f9703fb588a4d05da750510,60d9d14f4a8a35a482e0d9bf,60edef9c1c8eacaa4345fe69
"[""comma"",""comma"",""comma"",""comma"",""comma""]",0,"[0.16710000000148284,0.4207000000029666,0.9372000000029743,1.1127999999970086,1.8909999999999911]",31,0,31,0,1,5f9703fb588a4d05da750510,Mężczyzna,21,2021-07-13_21h56.23.685,rantool2,2021.1.4,Win32,60.03121623,5f9703fb588a4d05da750510,60d9d14f4a8a35a482e0d9bf,60edef9c1c8eacaa4345fe69
"[""comma"",""period"",""period"",""comma"",""comma""]",0,"[0.052699999995525104,1.0441999999955272,1.2062999999970145,1.5256999999955383,1.7006000000014865]",32,0,32,0,1,5f9703fb588a4d05da750510,Mężczyzna,21,2021-07-13_21h56.23.685,rantool2,2021.1.4,Win32,60.03121623,5f9703fb588a4d05da750510,60d9d14f4a8a35a482e0d9bf,60edef9c1c8eacaa4345fe69
"[""comma"",""comma""]",0,"[0.000399999998506928,0.19559999999404454]",33,0,33,0,1,5f9703fb588a4d05da750510,Mężczyzna,21,2021-07-13_21h56.23.685,rantool2,2021.1.4,Win32,60.03121623,5f9703fb588a4d05da750510,60d9d14f4a8a35a482e0d9bf,60edef9c1c8eacaa4345fe69
"[""comma"",""comma""]",0,"[0.7897000000029664,1.0608000000044626]",34,0,34,0,1,5f9703fb588a4d05da750510,Mężczyzna,21,2021-07-13_21h56.23.685,rantool2,2021.1.4,Win32,60.03121623,5f9703fb588a4d05da750510,60d9d14f4a8a35a482e0d9bf,60edef9c1c8eacaa4345fe69
"[""comma"",""comma""]",0,"[0.3227999999970166,0.6465999999940379]",35,0,35,0,1,5f9703fb588a4d05da750510,Mężczyzna,21,2021-07-13_21h56.23.685,rantool2,2021.1.4,Win32,60.03121623,5f9703fb588a4d05da750510,60d9d14f4a8a35a482e0d9bf,60edef9c1c8eacaa4345fe69
"[""comma"",""comma"",""comma""]",0,"[0.10069999999552692,0.567299999997033,0.9436000000014815]",36,0,36,0,1,5f9703fb588a4d05da750510,Mężczyzna,21,2021-07-13_21h56.23.685,rantool2,2021.1.4,Win32,60.03121623,5f9703fb588a4d05da750510,60d9d14f4a8a35a482e0d9bf,60edef9c1c8eacaa4345fe69
"[""comma"",""comma"",""comma"",""comma""]",0,"[0.34339999999849624,0.7963000000044644,1.1297000000029698,1.3168999999984976]",37,0,37,0,1,5f9703fb588a4d05da750510,Mężczyzna,21,2021-07-13_21h56.23.685,rantool2,2021.1.4,Win32,60.03121623,5f9703fb588a4d05da750510,60d9d14f4a8a35a482e0d9bf,60edef9c1c8eacaa4345fe69
"[""comma"",""comma""]",0,"[0.43979999999703523,0.7135000000000105]",38,0,38,0,1,5f9703fb588a4d05da750510,Mężczyzna,21,2021-07-13_21h56.23.685,rantool2,2021.1.4,Win32,60.03121623,5f9703fb588a4d05da750510,60d9d14f4a8a35a482e0d9bf,60edef9c1c8eacaa4345fe69
"[""comma""]",0,[0.33799999999999386],39,0,39,0,1,5f9703fb588a4d05da750510,Mężczyzna,21,2021-07-13_21h56.23.685,rantool2,2021.1.4,Win32,60.03121623,5f9703fb588a4d05da750510,60d9d14f4a8a35a482e0d9bf,60edef9c1c8eacaa4345fe69
"[""comma"",""comma"",""comma"",""comma""]",0,"[0.06980000000447717,0.6007000000029734,1.3460000000000036,1.610400000005967]",40,0,40,0,1,5f9703fb588a4d05da750510,Mężczyzna,21,2021-07-13_21h56.23.685,rantool2,2021.1.4,Win32,60.03121623,5f9703fb588a4d05da750510,60d9d14f4a8a35a482e0d9bf,60edef9c1c8eacaa4345fe69
"[""comma""]",0,[0.30049999999999955],41,0,41,0,1,5f9703fb588a4d05da750510,Mężczyzna,21,2021-07-13_21h56.23.685,rantool2,2021.1.4,Win32,60.03121623,5f9703fb588a4d05da750510,60d9d14f4a8a35a482e0d9bf,60edef9c1c8eacaa4345fe69
"[""comma""]",0,[0.5087000000029889],42,0,42,0,1,5f9703fb588a4d05da750510,Mężczyzna,21,2021-07-13_21h56.23.685,rantool2,2021.1.4,Win32,60.03121623,5f9703fb588a4d05da750510,60d9d14f4a8a35a482e0d9bf,60edef9c1c8eacaa4345fe69
"[""comma"",""comma"",""comma"",""comma"",""comma"",""comma""]",0,"[0.010400000005972743,0.4602000000029989,0.833500000000015,1.1850000000000023,1.5834000000059802,1.9166000000014947]",43,0,43,0,1,5f9703fb588a4d05da750510,Mężczyzna,21,2021-07-13_21h56.23.685,rantool2,2021.1.4,Win32,60.03121623,5f9703fb588a4d05da750510,60d9d14f4a8a35a482e0d9bf,60edef9c1c8eacaa4345fe69
"[""comma"",""comma"",""comma""]",0,"[0.30169999999554875,1.502899999998533,1.8606999999955462]",44,0,44,0,1,5f9703fb588a4d05da750510,Mężczyzna,21,2021-07-13_21h56.23.685,rantool2,2021.1.4,Win32,60.03121623,5f9703fb588a4d05da750510,60d9d14f4a8a35a482e0d9bf,60edef9c1c8eacaa4345fe69
"[""comma"",""comma"",""comma"",""comma"",""comma""]",0,"[0.20310000000151263,0.5525000000000091,0.9638999999985174,1.342700000002992,1.6855000000000189]",45,0,45,0,1,5f9703fb588a4d05da750510,Mężczyzna,21,2021-07-13_21h56.23.685,rantool2,2021.1.4,Win32,60.03121623,5f9703fb588a4d05da750510,60d9d14f4a8a35a482e0d9bf,60edef9c1c8eacaa4345fe69
"[""comma"",""comma""]",0,"[0.14240000000594932,0.6562000000029684]",46,0,46,0,1,5f9703fb588a4d05da750510,Mężczyzna,21,2021-07-13_21h56.23.685,rantool2,2021.1.4,Win32,60.03121623,5f9703fb588a4d05da750510,60d9d14f4a8a35a482e0d9bf,60edef9c1c8eacaa4345fe69
0,0,,47,0,47,0,1,5f9703fb588a4d05da750510,Mężczyzna,21,2021-07-13_21h56.23.685,rantool2,2021.1.4,Win32,60.03121623,5f9703fb588a4d05da750510,60d9d14f4a8a35a482e0d9bf,60edef9c1c8eacaa4345fe69
"[""comma"",""comma"",""comma"",""comma"",""comma""]",0,"[1.0226000000014892,1.2193000000044663,1.4449999999999932,1.650100000001487,1.8382000000029848]",48,0,48,0,1,5f9703fb588a4d05da750510,Mężczyzna,21,2021-07-13_21h56.23.685,rantool2,2021.1.4,Win32,60.03121623,5f9703fb588a4d05da750510,60d9d14f4a8a35a482e0d9bf,60edef9c1c8eacaa4345fe69
"[""comma"",""comma"",""comma"",""comma""]",0,"[0.3704999999999927,0.5673999999985142,0.7669999999999959,0.9335999999940441]",49,0,49,0,1,5f9703fb588a4d05da750510,Mężczyzna,21,2021-07-13_21h56.23.685,rantool2,2021.1.4,Win32,60.03121623,5f9703fb588a4d05da750510,60d9d14f4a8a35a482e0d9bf,60edef9c1c8eacaa4345fe69
0,0,,50,0,50,0,1,5f9703fb588a4d05da750510,Mężczyzna,21,2021-07-13_21h56.23.685,rantool2,2021.1.4,Win32,60.03121623,5f9703fb588a4d05da750510,60d9d14f4a8a35a482e0d9bf,60edef9c1c8eacaa4345fe69
0,0,,51,0,51,0,1,5f9703fb588a4d05da750510,Mężczyzna,21,2021-07-13_21h56.23.685,rantool2,2021.1.4,Win32,60.03121623,5f9703fb588a4d05da750510,60d9d14f4a8a35a482e0d9bf,60edef9c1c8eacaa4345fe69
0,0,,52,0,52,0,1,5f9703fb588a4d05da750510,Mężczyzna,21,2021-07-13_21h56.23.685,rantool2,2021.1.4,Win32,60.03121623,5f9703fb588a4d05da750510,60d9d14f4a8a35a482e0d9bf,60edef9c1c8eacaa4345fe69
"[""comma"",""comma""]",0,"[1.570200000002984,1.7699999999999818]",53,0,53,0,1,5f9703fb588a4d05da750510,Mężczyzna,21,2021-07-13_21h56.23.685,rantool2,2021.1.4,Win32,60.03121623,5f9703fb588a4d05da750510,60d9d14f4a8a35a482e0d9bf,60edef9c1c8eacaa4345fe69
0,0,,54,0,54,0,1,5f9703fb588a4d05da750510,Mężczyzna,21,2021-07-13_21h56.23.685,rantool2,2021.1.4,Win32,60.03121623,5f9703fb588a4d05da750510,60d9d14f4a8a35a482e0d9bf,60edef9c1c8eacaa4345fe69
0,0,,55,0,55,0,1,5f9703fb588a4d05da750510,Mężczyzna,21,2021-07-13_21h56.23.685,rantool2,2021.1.4,Win32,60.03121623,5f9703fb588a4d05da750510,60d9d14f4a8a35a482e0d9bf,60edef9c1c8eacaa4345fe69
