key_resp_7.keys,key_resp_7.rt,trials_2.thisRepN,trials_2.thisTrialN,trials_2.thisN,trials_2.thisIndex,trials_2.ran,id,series_0,series_1,acss_0,acss_1,comparison,id*,Płeć*,Wiek*,date,expName,psychopyVersion,OS,frameRate,STUDY_ID,SESSION_ID,key_resp_5.keys,key_resp_5.corr,key_resp_5.rt,trials.thisRepN,trials.thisTrialN,trials.thisN,trials.thisIndex,trials.ran
j,2.7362,0,0,0,6,1,5fb240c0a9c3227c6c69d7ce,OOORROO,OOORROR,21.12383932,21.38562617,series_1,5fb240c0a9c3227c6c69d7ce,Kobieta,32,2021-09-06_18h28.27.740,rantool2,2021.1.4,MacIntel,74.97375918,6135e006383e6ea6c3d06a28,61364117388ccbf94e9a8bb6,,,,,,,,
f,2.4552,0,1,1,7,1,5fb240c0a9c3227c6c69d7ce,OOORRRO,OOORRRR,21.6194508,21.899017,series_1,5fb240c0a9c3227c6c69d7ce,Kobieta,32,2021-09-06_18h28.27.740,rantool2,2021.1.4,MacIntel,74.97375918,6135e006383e6ea6c3d06a28,61364117388ccbf94e9a8bb6,,,,,,,,
j,2.0551,0,2,2,56,1,5fb240c0a9c3227c6c69d7ce,RRROOOO,RRROOOR,21.6194508,22.31681875,series_1,5fb240c0a9c3227c6c69d7ce,Kobieta,32,2021-09-06_18h28.27.740,rantool2,2021.1.4,MacIntel,74.97375918,6135e006383e6ea6c3d06a28,61364117388ccbf94e9a8bb6,,,,,,,,
j,3.7583,0,3,3,20,1,5fb240c0a9c3227c6c69d7ce,OROROOO,OROROOR,21.31236711,21.90565814,series_1,5fb240c0a9c3227c6c69d7ce,Kobieta,32,2021-09-06_18h28.27.740,rantool2,2021.1.4,MacIntel,74.97375918,6135e006383e6ea6c3d06a28,61364117388ccbf94e9a8bb6,,,,,,,,
j,2.2693,0,4,4,60,1,5fb240c0a9c3227c6c69d7ce,RRRROOO,RRRROOR,22.10108823,22.15934078,series_1,5fb240c0a9c3227c6c69d7ce,Kobieta,32,2021-09-06_18h28.27.740,rantool2,2021.1.4,MacIntel,74.97375918,6135e006383e6ea6c3d06a28,61364117388ccbf94e9a8bb6,,,,,,,,
f,2.7726,0,5,5,35,1,5fb240c0a9c3227c6c69d7ce,ROOORRO,ROOORRR,21.76276513,22.16977179,series_1,5fb240c0a9c3227c6c69d7ce,Kobieta,32,2021-09-06_18h28.27.740,rantool2,2021.1.4,MacIntel,74.97375918,6135e006383e6ea6c3d06a28,61364117388ccbf94e9a8bb6,,,,,,,,
j,2.5605,0,6,6,12,1,5fb240c0a9c3227c6c69d7ce,OORROOO,OORROOR,21.30250474,22.02786418,series_1,5fb240c0a9c3227c6c69d7ce,Kobieta,32,2021-09-06_18h28.27.740,rantool2,2021.1.4,MacIntel,74.97375918,6135e006383e6ea6c3d06a28,61364117388ccbf94e9a8bb6,,,,,,,,
j,2.2244,0,7,7,17,1,5fb240c0a9c3227c6c69d7ce,OROOORO,OROOORR,21.03750787,22.12173012,series_1,5fb240c0a9c3227c6c69d7ce,Kobieta,32,2021-09-06_18h28.27.740,rantool2,2021.1.4,MacIntel,74.97375918,6135e006383e6ea6c3d06a28,61364117388ccbf94e9a8bb6,,,,,,,,
f,3.2067,0,8,8,1,1,5fb240c0a9c3227c6c69d7ce,OOOOORO,OOOOORR,19.92253567,20.74050628,series_1,5fb240c0a9c3227c6c69d7ce,Kobieta,32,2021-09-06_18h28.27.740,rantool2,2021.1.4,MacIntel,74.97375918,6135e006383e6ea6c3d06a28,61364117388ccbf94e9a8bb6,,,,,,,,
f,3.8985,0,9,9,46,1,5fb240c0a9c3227c6c69d7ce,RORRROO,RORRROR,22.00300695,21.24781509,series_0,5fb240c0a9c3227c6c69d7ce,Kobieta,32,2021-09-06_18h28.27.740,rantool2,2021.1.4,MacIntel,74.97375918,6135e006383e6ea6c3d06a28,61364117388ccbf94e9a8bb6,,,,,,,,
f,2.7214,0,10,10,26,1,5fb240c0a9c3227c6c69d7ce,ORROROO,ORROROR,22.02732763,21.71443381,series_0,5fb240c0a9c3227c6c69d7ce,Kobieta,32,2021-09-06_18h28.27.740,rantool2,2021.1.4,MacIntel,74.97375918,6135e006383e6ea6c3d06a28,61364117388ccbf94e9a8bb6,,,,,,,,
j,2.8305,0,11,11,53,1,5fb240c0a9c3227c6c69d7ce,RRORORO,RRORORR,20.71309134,21.90565814,series_1,5fb240c0a9c3227c6c69d7ce,Kobieta,32,2021-09-06_18h28.27.740,rantool2,2021.1.4,MacIntel,74.97375918,6135e006383e6ea6c3d06a28,61364117388ccbf94e9a8bb6,,,,,,,,
j,4.1383,0,12,12,45,1,5fb240c0a9c3227c6c69d7ce,RORRORO,RORRORR,20.78182524,21.22513037,series_1,5fb240c0a9c3227c6c69d7ce,Kobieta,32,2021-09-06_18h28.27.740,rantool2,2021.1.4,MacIntel,74.97375918,6135e006383e6ea6c3d06a28,61364117388ccbf94e9a8bb6,,,,,,,,
j,3.108,0,13,13,9,1,5fb240c0a9c3227c6c69d7ce,OOROORO,OOROORR,21.07991943,22.2428857,series_1,5fb240c0a9c3227c6c69d7ce,Kobieta,32,2021-09-06_18h28.27.740,rantool2,2021.1.4,MacIntel,74.97375918,6135e006383e6ea6c3d06a28,61364117388ccbf94e9a8bb6,,,,,,,,
j,2.2175,0,14,14,54,1,5fb240c0a9c3227c6c69d7ce,RRORROO,RRORROR,21.55250791,20.9984461,series_0,5fb240c0a9c3227c6c69d7ce,Kobieta,32,2021-09-06_18h28.27.740,rantool2,2021.1.4,MacIntel,74.97375918,6135e006383e6ea6c3d06a28,61364117388ccbf94e9a8bb6,,,,,,,,
f,2.271,0,15,15,47,1,5fb240c0a9c3227c6c69d7ce,RORRRRO,RORRRRR,21.81333602,21.02936224,series_0,5fb240c0a9c3227c6c69d7ce,Kobieta,32,2021-09-06_18h28.27.740,rantool2,2021.1.4,MacIntel,74.97375918,6135e006383e6ea6c3d06a28,61364117388ccbf94e9a8bb6,,,,,,,,
j,2.5473,0,16,16,40,1,5fb240c0a9c3227c6c69d7ce,ROROOOO,ROROOOR,20.87963819,21.37121559,series_1,5fb240c0a9c3227c6c69d7ce,Kobieta,32,2021-09-06_18h28.27.740,rantool2,2021.1.4,MacIntel,74.97375918,6135e006383e6ea6c3d06a28,61364117388ccbf94e9a8bb6,,,,,,,,
f,1.561,0,17,17,4,1,5fb240c0a9c3227c6c69d7ce,OOOROOO,OOOROOR,19.91402015,21.21223021,series_1,5fb240c0a9c3227c6c69d7ce,Kobieta,32,2021-09-06_18h28.27.740,rantool2,2021.1.4,MacIntel,74.97375918,6135e006383e6ea6c3d06a28,61364117388ccbf94e9a8bb6,,,,,,,,
j,2.268,0,18,18,13,1,5fb240c0a9c3227c6c69d7ce,OORRORO,OORRORR,21.66733484,22.11181017,series_1,5fb240c0a9c3227c6c69d7ce,Kobieta,32,2021-09-06_18h28.27.740,rantool2,2021.1.4,MacIntel,74.97375918,6135e006383e6ea6c3d06a28,61364117388ccbf94e9a8bb6,,,,,,,,
f,2.2555,0,19,19,50,1,5fb240c0a9c3227c6c69d7ce,RROOROO,RROOROR,21.73568164,22.02566557,series_1,5fb240c0a9c3227c6c69d7ce,Kobieta,32,2021-09-06_18h28.27.740,rantool2,2021.1.4,MacIntel,74.97375918,6135e006383e6ea6c3d06a28,61364117388ccbf94e9a8bb6,,,,,,,,
f,3.3126,0,20,20,41,1,5fb240c0a9c3227c6c69d7ce,ROROORO,ROROORR,20.42602454,21.71443381,series_1,5fb240c0a9c3227c6c69d7ce,Kobieta,32,2021-09-06_18h28.27.740,rantool2,2021.1.4,MacIntel,74.97375918,6135e006383e6ea6c3d06a28,61364117388ccbf94e9a8bb6,,,,,,,,
f,2.4573,0,21,21,27,1,5fb240c0a9c3227c6c69d7ce,ORRORRO,ORRORRR,21.55250791,22.2428857,series_1,5fb240c0a9c3227c6c69d7ce,Kobieta,32,2021-09-06_18h28.27.740,rantool2,2021.1.4,MacIntel,74.97375918,6135e006383e6ea6c3d06a28,61364117388ccbf94e9a8bb6,,,,,,,,
j,2.2565,0,22,22,18,1,5fb240c0a9c3227c6c69d7ce,OROOROO,OROOROR,20.84860893,21.22513037,series_1,5fb240c0a9c3227c6c69d7ce,Kobieta,32,2021-09-06_18h28.27.740,rantool2,2021.1.4,MacIntel,74.97375918,6135e006383e6ea6c3d06a28,61364117388ccbf94e9a8bb6,,,,,,,,
f,2.7402,0,23,23,11,1,5fb240c0a9c3227c6c69d7ce,OORORRO,OORORRR,22.18365867,22.6797523,series_1,5fb240c0a9c3227c6c69d7ce,Kobieta,32,2021-09-06_18h28.27.740,rantool2,2021.1.4,MacIntel,74.97375918,6135e006383e6ea6c3d06a28,61364117388ccbf94e9a8bb6,,,,,,,,
j,3.9385,0,24,24,25,1,5fb240c0a9c3227c6c69d7ce,ORROORO,ORROORR,21.79500819,22.61624387,series_1,5fb240c0a9c3227c6c69d7ce,Kobieta,32,2021-09-06_18h28.27.740,rantool2,2021.1.4,MacIntel,74.97375918,6135e006383e6ea6c3d06a28,61364117388ccbf94e9a8bb6,,,,,,,,
f,2.4673,0,25,25,44,1,5fb240c0a9c3227c6c69d7ce,RORROOO,RORROOR,21.66733484,22.02566557,series_1,5fb240c0a9c3227c6c69d7ce,Kobieta,32,2021-09-06_18h28.27.740,rantool2,2021.1.4,MacIntel,74.97375918,6135e006383e6ea6c3d06a28,61364117388ccbf94e9a8bb6,,,,,,,,
j,2.0811,0,26,26,24,1,5fb240c0a9c3227c6c69d7ce,ORROOOO,ORROOOR,21.12383932,22.07102821,series_1,5fb240c0a9c3227c6c69d7ce,Kobieta,32,2021-09-06_18h28.27.740,rantool2,2021.1.4,MacIntel,74.97375918,6135e006383e6ea6c3d06a28,61364117388ccbf94e9a8bb6,,,,,,,,
f,3.574,0,27,27,37,1,5fb240c0a9c3227c6c69d7ce,ROORORO,ROORORR,20.42602454,21.57657071,series_1,5fb240c0a9c3227c6c69d7ce,Kobieta,32,2021-09-06_18h28.27.740,rantool2,2021.1.4,MacIntel,74.97375918,6135e006383e6ea6c3d06a28,61364117388ccbf94e9a8bb6,,,,,,,,
j,1.772,0,28,28,5,1,5fb240c0a9c3227c6c69d7ce,OOORORO,OOORORR,20.87963819,21.9921709,series_1,5fb240c0a9c3227c6c69d7ce,Kobieta,32,2021-09-06_18h28.27.740,rantool2,2021.1.4,MacIntel,74.97375918,6135e006383e6ea6c3d06a28,61364117388ccbf94e9a8bb6,,,,,,,,
f,2.7612,0,29,29,55,1,5fb240c0a9c3227c6c69d7ce,RRORRRO,RRORRRR,21.56657303,21.21223021,series_0,5fb240c0a9c3227c6c69d7ce,Kobieta,32,2021-09-06_18h28.27.740,rantool2,2021.1.4,MacIntel,74.97375918,6135e006383e6ea6c3d06a28,61364117388ccbf94e9a8bb6,,,,,,,,
j,3.0676,0,30,30,23,1,5fb240c0a9c3227c6c69d7ce,ORORRRO,ORORRRR,22.1285618,21.9921709,series_0,5fb240c0a9c3227c6c69d7ce,Kobieta,32,2021-09-06_18h28.27.740,rantool2,2021.1.4,MacIntel,74.97375918,6135e006383e6ea6c3d06a28,61364117388ccbf94e9a8bb6,,,,,,,,
f,2.4024,0,31,31,34,1,5fb240c0a9c3227c6c69d7ce,ROOOROO,ROOOROR,21.03750787,21.24781509,series_1,5fb240c0a9c3227c6c69d7ce,Kobieta,32,2021-09-06_18h28.27.740,rantool2,2021.1.4,MacIntel,74.97375918,6135e006383e6ea6c3d06a28,61364117388ccbf94e9a8bb6,,,,,,,,
j,2.2532,0,32,32,59,1,5fb240c0a9c3227c6c69d7ce,RRRORRO,RRRORRR,21.56657303,20.89823192,series_0,5fb240c0a9c3227c6c69d7ce,Kobieta,32,2021-09-06_18h28.27.740,rantool2,2021.1.4,MacIntel,74.97375918,6135e006383e6ea6c3d06a28,61364117388ccbf94e9a8bb6,,,,,,,,
f,2.8919,0,33,33,2,1,5fb240c0a9c3227c6c69d7ce,OOOOROO,OOOOROR,20.43051175,21.02936224,series_1,5fb240c0a9c3227c6c69d7ce,Kobieta,32,2021-09-06_18h28.27.740,rantool2,2021.1.4,MacIntel,74.97375918,6135e006383e6ea6c3d06a28,61364117388ccbf94e9a8bb6,,,,,,,,
j,1.8136,0,34,34,15,1,5fb240c0a9c3227c6c69d7ce,OORRRRO,OORRRRR,22.10108823,21.74922619,series_0,5fb240c0a9c3227c6c69d7ce,Kobieta,32,2021-09-06_18h28.27.740,rantool2,2021.1.4,MacIntel,74.97375918,6135e006383e6ea6c3d06a28,61364117388ccbf94e9a8bb6,,,,,,,,
f,3.5213,0,35,35,10,1,5fb240c0a9c3227c6c69d7ce,OOROROO,OOROROR,21.31236711,21.07490964,series_0,5fb240c0a9c3227c6c69d7ce,Kobieta,32,2021-09-06_18h28.27.740,rantool2,2021.1.4,MacIntel,74.97375918,6135e006383e6ea6c3d06a28,61364117388ccbf94e9a8bb6,,,,,,,,
j,1.8445,0,36,36,63,1,5fb240c0a9c3227c6c69d7ce,RRRRRRO,RRRRRRR,21.35278725,19.62521613,series_0,5fb240c0a9c3227c6c69d7ce,Kobieta,32,2021-09-06_18h28.27.740,rantool2,2021.1.4,MacIntel,74.97375918,6135e006383e6ea6c3d06a28,61364117388ccbf94e9a8bb6,,,,,,,,
f,3.2967,0,37,37,38,1,5fb240c0a9c3227c6c69d7ce,ROORROO,ROORROR,21.79500819,21.36812781,series_0,5fb240c0a9c3227c6c69d7ce,Kobieta,32,2021-09-06_18h28.27.740,rantool2,2021.1.4,MacIntel,74.97375918,6135e006383e6ea6c3d06a28,61364117388ccbf94e9a8bb6,,,,,,,,
f,3.4851,0,38,38,19,1,5fb240c0a9c3227c6c69d7ce,OROORRO,OROORRR,21.73568164,22.11181017,series_1,5fb240c0a9c3227c6c69d7ce,Kobieta,32,2021-09-06_18h28.27.740,rantool2,2021.1.4,MacIntel,74.97375918,6135e006383e6ea6c3d06a28,61364117388ccbf94e9a8bb6,,,,,,,,
f,2.1656,0,39,39,22,1,5fb240c0a9c3227c6c69d7ce,ORORROO,ORORROR,22.02732763,21.57657071,series_0,5fb240c0a9c3227c6c69d7ce,Kobieta,32,2021-09-06_18h28.27.740,rantool2,2021.1.4,MacIntel,74.97375918,6135e006383e6ea6c3d06a28,61364117388ccbf94e9a8bb6,,,,,,,,
j,2.0666,0,40,40,49,1,5fb240c0a9c3227c6c69d7ce,RROOORO,RROOORR,21.76276513,22.53364006,series_1,5fb240c0a9c3227c6c69d7ce,Kobieta,32,2021-09-06_18h28.27.740,rantool2,2021.1.4,MacIntel,74.97375918,6135e006383e6ea6c3d06a28,61364117388ccbf94e9a8bb6,,,,,,,,
f,2.2429,0,41,41,29,1,5fb240c0a9c3227c6c69d7ce,ORRRORO,ORRRORR,22.00300695,22.12173012,series_1,5fb240c0a9c3227c6c69d7ce,Kobieta,32,2021-09-06_18h28.27.740,rantool2,2021.1.4,MacIntel,74.97375918,6135e006383e6ea6c3d06a28,61364117388ccbf94e9a8bb6,,,,,,,,
j,2.8158,0,42,42,3,1,5fb240c0a9c3227c6c69d7ce,OOOORRO,OOOORRR,20.90986523,21.74922619,series_1,5fb240c0a9c3227c6c69d7ce,Kobieta,32,2021-09-06_18h28.27.740,rantool2,2021.1.4,MacIntel,74.97375918,6135e006383e6ea6c3d06a28,61364117388ccbf94e9a8bb6,,,,,,,,
f,3.5827,0,43,43,57,1,5fb240c0a9c3227c6c69d7ce,RRROORO,RRROORR,21.82425538,22.07102821,series_1,5fb240c0a9c3227c6c69d7ce,Kobieta,32,2021-09-06_18h28.27.740,rantool2,2021.1.4,MacIntel,74.97375918,6135e006383e6ea6c3d06a28,61364117388ccbf94e9a8bb6,,,,,,,,
j,3.1668,0,44,44,61,1,5fb240c0a9c3227c6c69d7ce,RRRRORO,RRRRORR,21.81333602,21.17347734,series_0,5fb240c0a9c3227c6c69d7ce,Kobieta,32,2021-09-06_18h28.27.740,rantool2,2021.1.4,MacIntel,74.97375918,6135e006383e6ea6c3d06a28,61364117388ccbf94e9a8bb6,,,,,,,,
f,2.4692,0,45,45,14,1,5fb240c0a9c3227c6c69d7ce,OORRROO,OORRROR,22.24142883,22.16977179,series_0,5fb240c0a9c3227c6c69d7ce,Kobieta,32,2021-09-06_18h28.27.740,rantool2,2021.1.4,MacIntel,74.97375918,6135e006383e6ea6c3d06a28,61364117388ccbf94e9a8bb6,,,,,,,,
j,3.8596,0,46,46,62,1,5fb240c0a9c3227c6c69d7ce,RRRRROO,RRRRROR,22.16413392,21.27974287,series_0,5fb240c0a9c3227c6c69d7ce,Kobieta,32,2021-09-06_18h28.27.740,rantool2,2021.1.4,MacIntel,74.97375918,6135e006383e6ea6c3d06a28,61364117388ccbf94e9a8bb6,,,,,,,,
f,2.0641,0,47,47,32,1,5fb240c0a9c3227c6c69d7ce,ROOOOOO,ROOOOOR,19.92253567,21.27974287,series_1,5fb240c0a9c3227c6c69d7ce,Kobieta,32,2021-09-06_18h28.27.740,rantool2,2021.1.4,MacIntel,74.97375918,6135e006383e6ea6c3d06a28,61364117388ccbf94e9a8bb6,,,,,,,,
f,2.4695,0,48,48,33,1,5fb240c0a9c3227c6c69d7ce,ROOOORO,ROOOORR,20.83779602,22.03072203,series_1,5fb240c0a9c3227c6c69d7ce,Kobieta,32,2021-09-06_18h28.27.740,rantool2,2021.1.4,MacIntel,74.97375918,6135e006383e6ea6c3d06a28,61364117388ccbf94e9a8bb6,,,,,,,,
j,2.3741,0,49,49,43,1,5fb240c0a9c3227c6c69d7ce,RORORRO,RORORRR,20.71309134,21.07490964,series_1,5fb240c0a9c3227c6c69d7ce,Kobieta,32,2021-09-06_18h28.27.740,rantool2,2021.1.4,MacIntel,74.97375918,6135e006383e6ea6c3d06a28,61364117388ccbf94e9a8bb6,,,,,,,,
j,3.3988,0,50,50,21,1,5fb240c0a9c3227c6c69d7ce,ORORORO,ORORORR,20.39515459,22.06781359,series_1,5fb240c0a9c3227c6c69d7ce,Kobieta,32,2021-09-06_18h28.27.740,rantool2,2021.1.4,MacIntel,74.97375918,6135e006383e6ea6c3d06a28,61364117388ccbf94e9a8bb6,,,,,,,,
f,2.2944,0,51,51,52,1,5fb240c0a9c3227c6c69d7ce,RROROOO,RROROOR,22.18365867,22.11097995,series_0,5fb240c0a9c3227c6c69d7ce,Kobieta,32,2021-09-06_18h28.27.740,rantool2,2021.1.4,MacIntel,74.97375918,6135e006383e6ea6c3d06a28,61364117388ccbf94e9a8bb6,,,,,,,,
j,2.0556,0,52,52,31,1,5fb240c0a9c3227c6c69d7ce,ORRRRRO,ORRRRRR,22.16413392,20.74050628,series_0,5fb240c0a9c3227c6c69d7ce,Kobieta,32,2021-09-06_18h28.27.740,rantool2,2021.1.4,MacIntel,74.97375918,6135e006383e6ea6c3d06a28,61364117388ccbf94e9a8bb6,,,,,,,,
j,2.7137,0,53,53,42,1,5fb240c0a9c3227c6c69d7ce,ROROROO,ROROROR,20.39515459,19.8361834,series_0,5fb240c0a9c3227c6c69d7ce,Kobieta,32,2021-09-06_18h28.27.740,rantool2,2021.1.4,MacIntel,74.97375918,6135e006383e6ea6c3d06a28,61364117388ccbf94e9a8bb6,,,,,,,,
j,2.4557,0,54,54,51,1,5fb240c0a9c3227c6c69d7ce,RROORRO,RROORRR,21.89852628,22.02786418,series_1,5fb240c0a9c3227c6c69d7ce,Kobieta,32,2021-09-06_18h28.27.740,rantool2,2021.1.4,MacIntel,74.97375918,6135e006383e6ea6c3d06a28,61364117388ccbf94e9a8bb6,,,,,,,,
f,2.3097,0,55,55,58,1,5fb240c0a9c3227c6c69d7ce,RRROROO,RRROROR,22.1285618,21.37121559,series_0,5fb240c0a9c3227c6c69d7ce,Kobieta,32,2021-09-06_18h28.27.740,rantool2,2021.1.4,MacIntel,74.97375918,6135e006383e6ea6c3d06a28,61364117388ccbf94e9a8bb6,,,,,,,,
j,2.0283,0,56,56,16,1,5fb240c0a9c3227c6c69d7ce,OROOOOO,OROOOOR,20.43051175,21.17347734,series_1,5fb240c0a9c3227c6c69d7ce,Kobieta,32,2021-09-06_18h28.27.740,rantool2,2021.1.4,MacIntel,74.97375918,6135e006383e6ea6c3d06a28,61364117388ccbf94e9a8bb6,,,,,,,,
f,2.2326,0,57,57,39,1,5fb240c0a9c3227c6c69d7ce,ROORRRO,ROORRRR,21.82425538,21.38562617,series_0,5fb240c0a9c3227c6c69d7ce,Kobieta,32,2021-09-06_18h28.27.740,rantool2,2021.1.4,MacIntel,74.97375918,6135e006383e6ea6c3d06a28,61364117388ccbf94e9a8bb6,,,,,,,,
j,2.6166,0,58,58,28,1,5fb240c0a9c3227c6c69d7ce,ORRROOO,ORRROOR,22.24142883,22.53364006,series_1,5fb240c0a9c3227c6c69d7ce,Kobieta,32,2021-09-06_18h28.27.740,rantool2,2021.1.4,MacIntel,74.97375918,6135e006383e6ea6c3d06a28,61364117388ccbf94e9a8bb6,,,,,,,,
f,2.241,0,59,59,36,1,5fb240c0a9c3227c6c69d7ce,ROOROOO,ROOROOR,21.07991943,20.9984461,series_0,5fb240c0a9c3227c6c69d7ce,Kobieta,32,2021-09-06_18h28.27.740,rantool2,2021.1.4,MacIntel,74.97375918,6135e006383e6ea6c3d06a28,61364117388ccbf94e9a8bb6,,,,,,,,
j,2.2149,0,60,60,30,1,5fb240c0a9c3227c6c69d7ce,ORRRROO,ORRRROR,22.46748491,22.03072203,series_0,5fb240c0a9c3227c6c69d7ce,Kobieta,32,2021-09-06_18h28.27.740,rantool2,2021.1.4,MacIntel,74.97375918,6135e006383e6ea6c3d06a28,61364117388ccbf94e9a8bb6,,,,,,,,
f,1.6796,0,61,61,0,1,5fb240c0a9c3227c6c69d7ce,OOOOOOO,OOOOOOR,18.52739004,19.62521613,series_1,5fb240c0a9c3227c6c69d7ce,Kobieta,32,2021-09-06_18h28.27.740,rantool2,2021.1.4,MacIntel,74.97375918,6135e006383e6ea6c3d06a28,61364117388ccbf94e9a8bb6,,,,,,,,
j,1.6803,0,62,62,8,1,5fb240c0a9c3227c6c69d7ce,OOROOOO,OOROOOR,19.91402015,20.89823192,series_1,5fb240c0a9c3227c6c69d7ce,Kobieta,32,2021-09-06_18h28.27.740,rantool2,2021.1.4,MacIntel,74.97375918,6135e006383e6ea6c3d06a28,61364117388ccbf94e9a8bb6,,,,,,,,
f,2.388,0,63,63,48,1,5fb240c0a9c3227c6c69d7ce,RROOOOO,RROOOOR,20.90986523,22.15934078,series_1,5fb240c0a9c3227c6c69d7ce,Kobieta,32,2021-09-06_18h28.27.740,rantool2,2021.1.4,MacIntel,74.97375918,6135e006383e6ea6c3d06a28,61364117388ccbf94e9a8bb6,,,,,,,,
,,,,,,,5fb240c0a9c3227c6c69d7ce,,,,,,5fb240c0a9c3227c6c69d7ce,Kobieta,32,2021-09-06_18h28.27.740,rantool2,2021.1.4,MacIntel,74.97375918,6135e006383e6ea6c3d06a28,61364117388ccbf94e9a8bb6,"[""comma""]",0,[1.4542000000476492],0,0,0,0,1
,,,,,,,5fb240c0a9c3227c6c69d7ce,,,,,,5fb240c0a9c3227c6c69d7ce,Kobieta,32,2021-09-06_18h28.27.740,rantool2,2021.1.4,MacIntel,74.97375918,6135e006383e6ea6c3d06a28,61364117388ccbf94e9a8bb6,"[""comma""]",0,[0.5780000000000314],1,0,1,0,1
,,,,,,,5fb240c0a9c3227c6c69d7ce,,,,,,5fb240c0a9c3227c6c69d7ce,Kobieta,32,2021-09-06_18h28.27.740,rantool2,2021.1.4,MacIntel,74.97375918,6135e006383e6ea6c3d06a28,61364117388ccbf94e9a8bb6,"[""period""]",0,[0.9075000000000273],2,0,2,0,1
,,,,,,,5fb240c0a9c3227c6c69d7ce,,,,,,5fb240c0a9c3227c6c69d7ce,Kobieta,32,2021-09-06_18h28.27.740,rantool2,2021.1.4,MacIntel,74.97375918,6135e006383e6ea6c3d06a28,61364117388ccbf94e9a8bb6,"[""comma""]",0,[0.6134999999999877],3,0,3,0,1
,,,,,,,5fb240c0a9c3227c6c69d7ce,,,,,,5fb240c0a9c3227c6c69d7ce,Kobieta,32,2021-09-06_18h28.27.740,rantool2,2021.1.4,MacIntel,74.97375918,6135e006383e6ea6c3d06a28,61364117388ccbf94e9a8bb6,"[""comma""]",0,[1.134400000095411],4,0,4,0,1
,,,,,,,5fb240c0a9c3227c6c69d7ce,,,,,,5fb240c0a9c3227c6c69d7ce,Kobieta,32,2021-09-06_18h28.27.740,rantool2,2021.1.4,MacIntel,74.97375918,6135e006383e6ea6c3d06a28,61364117388ccbf94e9a8bb6,"[""period""]",0,[0.791499999999985],5,0,5,0,1
,,,,,,,5fb240c0a9c3227c6c69d7ce,,,,,,5fb240c0a9c3227c6c69d7ce,Kobieta,32,2021-09-06_18h28.27.740,rantool2,2021.1.4,MacIntel,74.97375918,6135e006383e6ea6c3d06a28,61364117388ccbf94e9a8bb6,"[""comma""]",0,[0.7746000001430389],6,0,6,0,1
,,,,,,,5fb240c0a9c3227c6c69d7ce,,,,,,5fb240c0a9c3227c6c69d7ce,Kobieta,32,2021-09-06_18h28.27.740,rantool2,2021.1.4,MacIntel,74.97375918,6135e006383e6ea6c3d06a28,61364117388ccbf94e9a8bb6,"[""comma""]",0,[0.978999999999985],7,0,7,0,1
,,,,,,,5fb240c0a9c3227c6c69d7ce,,,,,,5fb240c0a9c3227c6c69d7ce,Kobieta,32,2021-09-06_18h28.27.740,rantool2,2021.1.4,MacIntel,74.97375918,6135e006383e6ea6c3d06a28,61364117388ccbf94e9a8bb6,"[""comma""]",0,[0.7847999999522699],8,0,8,0,1
,,,,,,,5fb240c0a9c3227c6c69d7ce,,,,,,5fb240c0a9c3227c6c69d7ce,Kobieta,32,2021-09-06_18h28.27.740,rantool2,2021.1.4,MacIntel,74.97375918,6135e006383e6ea6c3d06a28,61364117388ccbf94e9a8bb6,"[""period""]",0,[0.6064999999999827],9,0,9,0,1
,,,,,,,5fb240c0a9c3227c6c69d7ce,,,,,,5fb240c0a9c3227c6c69d7ce,Kobieta,32,2021-09-06_18h28.27.740,rantool2,2021.1.4,MacIntel,74.97375918,6135e006383e6ea6c3d06a28,61364117388ccbf94e9a8bb6,"[""period""]",0,[1.0452999999523058],10,0,10,0,1
,,,,,,,5fb240c0a9c3227c6c69d7ce,,,,,,5fb240c0a9c3227c6c69d7ce,Kobieta,32,2021-09-06_18h28.27.740,rantool2,2021.1.4,MacIntel,74.97375918,6135e006383e6ea6c3d06a28,61364117388ccbf94e9a8bb6,"[""comma""]",0,[1.1399999999999864],11,0,11,0,1
,,,,,,,5fb240c0a9c3227c6c69d7ce,,,,,,5fb240c0a9c3227c6c69d7ce,Kobieta,32,2021-09-06_18h28.27.740,rantool2,2021.1.4,MacIntel,74.97375918,6135e006383e6ea6c3d06a28,61364117388ccbf94e9a8bb6,"[""period""]",0,[0.9208999998569993],12,0,12,0,1
,,,,,,,5fb240c0a9c3227c6c69d7ce,,,,,,5fb240c0a9c3227c6c69d7ce,Kobieta,32,2021-09-06_18h28.27.740,rantool2,2021.1.4,MacIntel,74.97375918,6135e006383e6ea6c3d06a28,61364117388ccbf94e9a8bb6,"[""comma""]",0,[0.8379999999999654],13,0,13,0,1
,,,,,,,5fb240c0a9c3227c6c69d7ce,,,,,,5fb240c0a9c3227c6c69d7ce,Kobieta,32,2021-09-06_18h28.27.740,rantool2,2021.1.4,MacIntel,74.97375918,6135e006383e6ea6c3d06a28,61364117388ccbf94e9a8bb6,0,0,,14,0,14,0,1
,,,,,,,5fb240c0a9c3227c6c69d7ce,,,,,,5fb240c0a9c3227c6c69d7ce,Kobieta,32,2021-09-06_18h28.27.740,rantool2,2021.1.4,MacIntel,74.97375918,6135e006383e6ea6c3d06a28,61364117388ccbf94e9a8bb6,"[""comma""]",0,[0.7127000000477324],15,0,15,0,1
,,,,,,,5fb240c0a9c3227c6c69d7ce,,,,,,5fb240c0a9c3227c6c69d7ce,Kobieta,32,2021-09-06_18h28.27.740,rantool2,2021.1.4,MacIntel,74.97375918,6135e006383e6ea6c3d06a28,61364117388ccbf94e9a8bb6,"[""period""]",0,[1.095599999904664],16,0,16,0,1
,,,,,,,5fb240c0a9c3227c6c69d7ce,,,,,,5fb240c0a9c3227c6c69d7ce,Kobieta,32,2021-09-06_18h28.27.740,rantool2,2021.1.4,MacIntel,74.97375918,6135e006383e6ea6c3d06a28,61364117388ccbf94e9a8bb6,"[""period""]",0,[0.9507999999523236],17,0,17,0,1
,,,,,,,5fb240c0a9c3227c6c69d7ce,,,,,,5fb240c0a9c3227c6c69d7ce,Kobieta,32,2021-09-06_18h28.27.740,rantool2,2021.1.4,MacIntel,74.97375918,6135e006383e6ea6c3d06a28,61364117388ccbf94e9a8bb6,"[""comma""]",0,[1.36099999999999],18,0,18,0,1
,,,,,,,5fb240c0a9c3227c6c69d7ce,,,,,,5fb240c0a9c3227c6c69d7ce,Kobieta,32,2021-09-06_18h28.27.740,rantool2,2021.1.4,MacIntel,74.97375918,6135e006383e6ea6c3d06a28,61364117388ccbf94e9a8bb6,"[""comma""]",0,[1.5582999999522826],19,0,19,0,1
,,,,,,,5fb240c0a9c3227c6c69d7ce,,,,,,5fb240c0a9c3227c6c69d7ce,Kobieta,32,2021-09-06_18h28.27.740,rantool2,2021.1.4,MacIntel,74.97375918,6135e006383e6ea6c3d06a28,61364117388ccbf94e9a8bb6,"[""comma""]",0,[0.9455999999046298],20,0,20,0,1
,,,,,,,5fb240c0a9c3227c6c69d7ce,,,,,,5fb240c0a9c3227c6c69d7ce,Kobieta,32,2021-09-06_18h28.27.740,rantool2,2021.1.4,MacIntel,74.97375918,6135e006383e6ea6c3d06a28,61364117388ccbf94e9a8bb6,"[""period""]",0,[0.4287000000476837],21,0,21,0,1
,,,,,,,5fb240c0a9c3227c6c69d7ce,,,,,,5fb240c0a9c3227c6c69d7ce,Kobieta,32,2021-09-06_18h28.27.740,rantool2,2021.1.4,MacIntel,74.97375918,6135e006383e6ea6c3d06a28,61364117388ccbf94e9a8bb6,"[""comma""]",0,[0.6169999999999618],22,0,22,0,1
,,,,,,,5fb240c0a9c3227c6c69d7ce,,,,,,5fb240c0a9c3227c6c69d7ce,Kobieta,32,2021-09-06_18h28.27.740,rantool2,2021.1.4,MacIntel,74.97375918,6135e006383e6ea6c3d06a28,61364117388ccbf94e9a8bb6,"[""comma""]",0,[0.9380999999046367],23,0,23,0,1
,,,,,,,5fb240c0a9c3227c6c69d7ce,,,,,,5fb240c0a9c3227c6c69d7ce,Kobieta,32,2021-09-06_18h28.27.740,rantool2,2021.1.4,MacIntel,74.97375918,6135e006383e6ea6c3d06a28,61364117388ccbf94e9a8bb6,"[""comma""]",0,[1.3995999999046376],24,0,24,0,1
,,,,,,,5fb240c0a9c3227c6c69d7ce,,,,,,5fb240c0a9c3227c6c69d7ce,Kobieta,32,2021-09-06_18h28.27.740,rantool2,2021.1.4,MacIntel,74.97375918,6135e006383e6ea6c3d06a28,61364117388ccbf94e9a8bb6,"[""period""]",0,[1.1787999999523322],25,0,25,0,1
,,,,,,,5fb240c0a9c3227c6c69d7ce,,,,,,5fb240c0a9c3227c6c69d7ce,Kobieta,32,2021-09-06_18h28.27.740,rantool2,2021.1.4,MacIntel,74.97375918,6135e006383e6ea6c3d06a28,61364117388ccbf94e9a8bb6,0,0,,26,0,26,0,1
,,,,,,,5fb240c0a9c3227c6c69d7ce,,,,,,5fb240c0a9c3227c6c69d7ce,Kobieta,32,2021-09-06_18h28.27.740,rantool2,2021.1.4,MacIntel,74.97375918,6135e006383e6ea6c3d06a28,61364117388ccbf94e9a8bb6,"[""period""]",0,[0.3229000000953306],27,0,27,0,1
,,,,,,,5fb240c0a9c3227c6c69d7ce,,,,,,5fb240c0a9c3227c6c69d7ce,Kobieta,32,2021-09-06_18h28.27.740,rantool2,2021.1.4,MacIntel,74.97375918,6135e006383e6ea6c3d06a28,61364117388ccbf94e9a8bb6,"[""comma""]",0,[0.35339999985694703],28,0,28,0,1
,,,,,,,5fb240c0a9c3227c6c69d7ce,,,,,,5fb240c0a9c3227c6c69d7ce,Kobieta,32,2021-09-06_18h28.27.740,rantool2,2021.1.4,MacIntel,74.97375918,6135e006383e6ea6c3d06a28,61364117388ccbf94e9a8bb6,"[""period""]",0,[0.6400000000000432],29,0,29,0,1
,,,,,,,5fb240c0a9c3227c6c69d7ce,,,,,,5fb240c0a9c3227c6c69d7ce,Kobieta,32,2021-09-06_18h28.27.740,rantool2,2021.1.4,MacIntel,74.97375918,6135e006383e6ea6c3d06a28,61364117388ccbf94e9a8bb6,"[""period""]",0,[1.400000000000034],30,0,30,0,1
,,,,,,,5fb240c0a9c3227c6c69d7ce,,,,,,5fb240c0a9c3227c6c69d7ce,Kobieta,32,2021-09-06_18h28.27.740,rantool2,2021.1.4,MacIntel,74.97375918,6135e006383e6ea6c3d06a28,61364117388ccbf94e9a8bb6,"[""comma""]",0,[0.770699999809267],31,0,31,0,1
,,,,,,,5fb240c0a9c3227c6c69d7ce,,,,,,5fb240c0a9c3227c6c69d7ce,Kobieta,32,2021-09-06_18h28.27.740,rantool2,2021.1.4,MacIntel,74.97375918,6135e006383e6ea6c3d06a28,61364117388ccbf94e9a8bb6,"[""period""]",0,[1.0537000000476837],32,0,32,0,1
,,,,,,,5fb240c0a9c3227c6c69d7ce,,,,,,5fb240c0a9c3227c6c69d7ce,Kobieta,32,2021-09-06_18h28.27.740,rantool2,2021.1.4,MacIntel,74.97375918,6135e006383e6ea6c3d06a28,61364117388ccbf94e9a8bb6,"[""comma""]",0,[1.3515999999046358],33,0,33,0,1
,,,,,,,5fb240c0a9c3227c6c69d7ce,,,,,,5fb240c0a9c3227c6c69d7ce,Kobieta,32,2021-09-06_18h28.27.740,rantool2,2021.1.4,MacIntel,74.97375918,6135e006383e6ea6c3d06a28,61364117388ccbf94e9a8bb6,"[""comma""]",0,[1.5375000000000227],34,0,34,0,1
,,,,,,,5fb240c0a9c3227c6c69d7ce,,,,,,5fb240c0a9c3227c6c69d7ce,Kobieta,32,2021-09-06_18h28.27.740,rantool2,2021.1.4,MacIntel,74.97375918,6135e006383e6ea6c3d06a28,61364117388ccbf94e9a8bb6,"[""comma""]",0,[1.4867000000476764],35,0,35,0,1
,,,,,,,5fb240c0a9c3227c6c69d7ce,,,,,,5fb240c0a9c3227c6c69d7ce,Kobieta,32,2021-09-06_18h28.27.740,rantool2,2021.1.4,MacIntel,74.97375918,6135e006383e6ea6c3d06a28,61364117388ccbf94e9a8bb6,"[""period""]",0,[1.2033999998569698],36,0,36,0,1
,,,,,,,5fb240c0a9c3227c6c69d7ce,,,,,,5fb240c0a9c3227c6c69d7ce,Kobieta,32,2021-09-06_18h28.27.740,rantool2,2021.1.4,MacIntel,74.97375918,6135e006383e6ea6c3d06a28,61364117388ccbf94e9a8bb6,"[""period""]",0,[1.5135000000000218],37,0,37,0,1
,,,,,,,5fb240c0a9c3227c6c69d7ce,,,,,,5fb240c0a9c3227c6c69d7ce,Kobieta,32,2021-09-06_18h28.27.740,rantool2,2021.1.4,MacIntel,74.97375918,6135e006383e6ea6c3d06a28,61364117388ccbf94e9a8bb6,"[""period""]",0,[1.6730000000000018],38,0,38,0,1
,,,,,,,5fb240c0a9c3227c6c69d7ce,,,,,,5fb240c0a9c3227c6c69d7ce,Kobieta,32,2021-09-06_18h28.27.740,rantool2,2021.1.4,MacIntel,74.97375918,6135e006383e6ea6c3d06a28,61364117388ccbf94e9a8bb6,"[""comma""]",0,[1.2855000000000132],39,0,39,0,1
,,,,,,,5fb240c0a9c3227c6c69d7ce,,,,,,5fb240c0a9c3227c6c69d7ce,Kobieta,32,2021-09-06_18h28.27.740,rantool2,2021.1.4,MacIntel,74.97375918,6135e006383e6ea6c3d06a28,61364117388ccbf94e9a8bb6,"[""comma""]",0,[0.9774999999999636],40,0,40,0,1
,,,,,,,5fb240c0a9c3227c6c69d7ce,,,,,,5fb240c0a9c3227c6c69d7ce,Kobieta,32,2021-09-06_18h28.27.740,rantool2,2021.1.4,MacIntel,74.97375918,6135e006383e6ea6c3d06a28,61364117388ccbf94e9a8bb6,"[""period""]",0,[0.8214000000953661],41,0,41,0,1
,,,,,,,5fb240c0a9c3227c6c69d7ce,,,,,,5fb240c0a9c3227c6c69d7ce,Kobieta,32,2021-09-06_18h28.27.740,rantool2,2021.1.4,MacIntel,74.97375918,6135e006383e6ea6c3d06a28,61364117388ccbf94e9a8bb6,"[""comma""]",0,[0.8431000001430675],42,0,42,0,1
,,,,,,,5fb240c0a9c3227c6c69d7ce,,,,,,5fb240c0a9c3227c6c69d7ce,Kobieta,32,2021-09-06_18h28.27.740,rantool2,2021.1.4,MacIntel,74.97375918,6135e006383e6ea6c3d06a28,61364117388ccbf94e9a8bb6,"[""period""]",0,[0.6175000000000068],43,0,43,0,1
,,,,,,,5fb240c0a9c3227c6c69d7ce,,,,,,5fb240c0a9c3227c6c69d7ce,Kobieta,32,2021-09-06_18h28.27.740,rantool2,2021.1.4,MacIntel,74.97375918,6135e006383e6ea6c3d06a28,61364117388ccbf94e9a8bb6,"[""comma""]",0,[0.6017000000476855],44,0,44,0,1
,,,,,,,5fb240c0a9c3227c6c69d7ce,,,,,,5fb240c0a9c3227c6c69d7ce,Kobieta,32,2021-09-06_18h28.27.740,rantool2,2021.1.4,MacIntel,74.97375918,6135e006383e6ea6c3d06a28,61364117388ccbf94e9a8bb6,"[""period""]",0,[0.7797999999523313],45,0,45,0,1
,,,,,,,5fb240c0a9c3227c6c69d7ce,,,,,,5fb240c0a9c3227c6c69d7ce,Kobieta,32,2021-09-06_18h28.27.740,rantool2,2021.1.4,MacIntel,74.97375918,6135e006383e6ea6c3d06a28,61364117388ccbf94e9a8bb6,"[""period""]",0,[0.7359000000953415],46,0,46,0,1
,,,,,,,5fb240c0a9c3227c6c69d7ce,,,,,,5fb240c0a9c3227c6c69d7ce,Kobieta,32,2021-09-06_18h28.27.740,rantool2,2021.1.4,MacIntel,74.97375918,6135e006383e6ea6c3d06a28,61364117388ccbf94e9a8bb6,"[""period""]",0,[0.8680999999046435],47,0,47,0,1
,,,,,,,5fb240c0a9c3227c6c69d7ce,,,,,,5fb240c0a9c3227c6c69d7ce,Kobieta,32,2021-09-06_18h28.27.740,rantool2,2021.1.4,MacIntel,74.97375918,6135e006383e6ea6c3d06a28,61364117388ccbf94e9a8bb6,"[""comma""]",0,[0.760699999809276],48,0,48,0,1
,,,,,,,5fb240c0a9c3227c6c69d7ce,,,,,,5fb240c0a9c3227c6c69d7ce,Kobieta,32,2021-09-06_18h28.27.740,rantool2,2021.1.4,MacIntel,74.97375918,6135e006383e6ea6c3d06a28,61364117388ccbf94e9a8bb6,"[""comma""]",0,[0.4025999999046235],49,0,49,0,1
,,,,,,,5fb240c0a9c3227c6c69d7ce,,,,,,5fb240c0a9c3227c6c69d7ce,Kobieta,32,2021-09-06_18h28.27.740,rantool2,2021.1.4,MacIntel,74.97375918,6135e006383e6ea6c3d06a28,61364117388ccbf94e9a8bb6,"[""period""]",0,[0.30600000000004],50,0,50,0,1
,,,,,,,5fb240c0a9c3227c6c69d7ce,,,,,,5fb240c0a9c3227c6c69d7ce,Kobieta,32,2021-09-06_18h28.27.740,rantool2,2021.1.4,MacIntel,74.97375918,6135e006383e6ea6c3d06a28,61364117388ccbf94e9a8bb6,"[""comma""]",0,[0.4915999999046221],51,0,51,0,1
,,,,,,,5fb240c0a9c3227c6c69d7ce,,,,,,5fb240c0a9c3227c6c69d7ce,Kobieta,32,2021-09-06_18h28.27.740,rantool2,2021.1.4,MacIntel,74.97375918,6135e006383e6ea6c3d06a28,61364117388ccbf94e9a8bb6,"[""period""]",0,[0.32030000019074123],52,0,52,0,1
,,,,,,,5fb240c0a9c3227c6c69d7ce,,,,,,5fb240c0a9c3227c6c69d7ce,Kobieta,32,2021-09-06_18h28.27.740,rantool2,2021.1.4,MacIntel,74.97375918,6135e006383e6ea6c3d06a28,61364117388ccbf94e9a8bb6,"[""comma""]",0,[0.40250000000003183],53,0,53,0,1
,,,,,,,5fb240c0a9c3227c6c69d7ce,,,,,,5fb240c0a9c3227c6c69d7ce,Kobieta,32,2021-09-06_18h28.27.740,rantool2,2021.1.4,MacIntel,74.97375918,6135e006383e6ea6c3d06a28,61364117388ccbf94e9a8bb6,"[""comma""]",0,[0.5504000000953511],54,0,54,0,1
,,,,,,,5fb240c0a9c3227c6c69d7ce,,,,,,5fb240c0a9c3227c6c69d7ce,Kobieta,32,2021-09-06_18h28.27.740,rantool2,2021.1.4,MacIntel,74.97375918,6135e006383e6ea6c3d06a28,61364117388ccbf94e9a8bb6,"[""period""]",0,[0.39409999990465394],55,0,55,0,1
,,,,,,,5fb240c0a9c3227c6c69d7ce,,,,,,5fb240c0a9c3227c6c69d7ce,Kobieta,32,2021-09-06_18h28.27.740,rantool2,2021.1.4,MacIntel,74.97375918,6135e006383e6ea6c3d06a28,61364117388ccbf94e9a8bb6,"[""comma""]",0,[0.4200000000000159],56,0,56,0,1
,,,,,,,5fb240c0a9c3227c6c69d7ce,,,,,,5fb240c0a9c3227c6c69d7ce,Kobieta,32,2021-09-06_18h28.27.740,rantool2,2021.1.4,MacIntel,74.97375918,6135e006383e6ea6c3d06a28,61364117388ccbf94e9a8bb6,"[""comma""]",0,[0.5907999999523099],57,0,57,0,1
,,,,,,,5fb240c0a9c3227c6c69d7ce,,,,,,5fb240c0a9c3227c6c69d7ce,Kobieta,32,2021-09-06_18h28.27.740,rantool2,2021.1.4,MacIntel,74.97375918,6135e006383e6ea6c3d06a28,61364117388ccbf94e9a8bb6,"[""period""]",0,[0.7757000000477206],58,0,58,0,1
,,,,,,,5fb240c0a9c3227c6c69d7ce,,,,,,5fb240c0a9c3227c6c69d7ce,Kobieta,32,2021-09-06_18h28.27.740,rantool2,2021.1.4,MacIntel,74.97375918,6135e006383e6ea6c3d06a28,61364117388ccbf94e9a8bb6,"[""period""]",0,[0.6034999999999968],59,0,59,0,1
,,,,,,,5fb240c0a9c3227c6c69d7ce,,,,,,5fb240c0a9c3227c6c69d7ce,Kobieta,32,2021-09-06_18h28.27.740,rantool2,2021.1.4,MacIntel,74.97375918,6135e006383e6ea6c3d06a28,61364117388ccbf94e9a8bb6,"[""period""]",0,[0.936899999856962],60,0,60,0,1
,,,,,,,5fb240c0a9c3227c6c69d7ce,,,,,,5fb240c0a9c3227c6c69d7ce,Kobieta,32,2021-09-06_18h28.27.740,rantool2,2021.1.4,MacIntel,74.97375918,6135e006383e6ea6c3d06a28,61364117388ccbf94e9a8bb6,"[""period""]",0,[0.8322999999523404],61,0,61,0,1
,,,,,,,5fb240c0a9c3227c6c69d7ce,,,,,,5fb240c0a9c3227c6c69d7ce,Kobieta,32,2021-09-06_18h28.27.740,rantool2,2021.1.4,MacIntel,74.97375918,6135e006383e6ea6c3d06a28,61364117388ccbf94e9a8bb6,"[""period""]",0,[0.7889999999999873],62,0,62,0,1
,,,,,,,5fb240c0a9c3227c6c69d7ce,,,,,,5fb240c0a9c3227c6c69d7ce,Kobieta,32,2021-09-06_18h28.27.740,rantool2,2021.1.4,MacIntel,74.97375918,6135e006383e6ea6c3d06a28,61364117388ccbf94e9a8bb6,"[""comma""]",0,[0.4405999999046344],63,0,63,0,1
,,,,,,,5fb240c0a9c3227c6c69d7ce,,,,,,5fb240c0a9c3227c6c69d7ce,Kobieta,32,2021-09-06_18h28.27.740,rantool2,2021.1.4,MacIntel,74.97375918,6135e006383e6ea6c3d06a28,61364117388ccbf94e9a8bb6,"[""comma""]",0,[0.8554999999999495],64,0,64,0,1
,,,,,,,5fb240c0a9c3227c6c69d7ce,,,,,,5fb240c0a9c3227c6c69d7ce,Kobieta,32,2021-09-06_18h28.27.740,rantool2,2021.1.4,MacIntel,74.97375918,6135e006383e6ea6c3d06a28,61364117388ccbf94e9a8bb6,"[""comma""]",0,[0.9239000000953297],65,0,65,0,1
,,,,,,,5fb240c0a9c3227c6c69d7ce,,,,,,5fb240c0a9c3227c6c69d7ce,Kobieta,32,2021-09-06_18h28.27.740,rantool2,2021.1.4,MacIntel,74.97375918,6135e006383e6ea6c3d06a28,61364117388ccbf94e9a8bb6,"[""comma""]",0,[0.8575999999046076],66,0,66,0,1
,,,,,,,5fb240c0a9c3227c6c69d7ce,,,,,,5fb240c0a9c3227c6c69d7ce,Kobieta,32,2021-09-06_18h28.27.740,rantool2,2021.1.4,MacIntel,74.97375918,6135e006383e6ea6c3d06a28,61364117388ccbf94e9a8bb6,"[""period""]",0,[0.34029999995232174],67,0,67,0,1
,,,,,,,5fb240c0a9c3227c6c69d7ce,,,,,,5fb240c0a9c3227c6c69d7ce,Kobieta,32,2021-09-06_18h28.27.740,rantool2,2021.1.4,MacIntel,74.97375918,6135e006383e6ea6c3d06a28,61364117388ccbf94e9a8bb6,"[""period""]",0,[0.34639999985694203],68,0,68,0,1
,,,,,,,5fb240c0a9c3227c6c69d7ce,,,,,,5fb240c0a9c3227c6c69d7ce,Kobieta,32,2021-09-06_18h28.27.740,rantool2,2021.1.4,MacIntel,74.97375918,6135e006383e6ea6c3d06a28,61364117388ccbf94e9a8bb6,"[""comma""]",0,[0.6270000000000095],69,0,69,0,1
,,,,,,,5fb240c0a9c3227c6c69d7ce,,,,,,5fb240c0a9c3227c6c69d7ce,Kobieta,32,2021-09-06_18h28.27.740,rantool2,2021.1.4,MacIntel,74.97375918,6135e006383e6ea6c3d06a28,61364117388ccbf94e9a8bb6,"[""comma""]",0,[0.7066000001430552],70,0,70,0,1
,,,,,,,5fb240c0a9c3227c6c69d7ce,,,,,,5fb240c0a9c3227c6c69d7ce,Kobieta,32,2021-09-06_18h28.27.740,rantool2,2021.1.4,MacIntel,74.97375918,6135e006383e6ea6c3d06a28,61364117388ccbf94e9a8bb6,"[""period""]",0,[0.8159000000953256],71,0,71,0,1
,,,,,,,5fb240c0a9c3227c6c69d7ce,,,,,,5fb240c0a9c3227c6c69d7ce,Kobieta,32,2021-09-06_18h28.27.740,rantool2,2021.1.4,MacIntel,74.97375918,6135e006383e6ea6c3d06a28,61364117388ccbf94e9a8bb6,"[""period""]",0,[0.8397000000476851],72,0,72,0,1
,,,,,,,5fb240c0a9c3227c6c69d7ce,,,,,,5fb240c0a9c3227c6c69d7ce,Kobieta,32,2021-09-06_18h28.27.740,rantool2,2021.1.4,MacIntel,74.97375918,6135e006383e6ea6c3d06a28,61364117388ccbf94e9a8bb6,"[""comma""]",0,[0.8272000000476396],73,0,73,0,1
,,,,,,,5fb240c0a9c3227c6c69d7ce,,,,,,5fb240c0a9c3227c6c69d7ce,Kobieta,32,2021-09-06_18h28.27.740,rantool2,2021.1.4,MacIntel,74.97375918,6135e006383e6ea6c3d06a28,61364117388ccbf94e9a8bb6,0,0,,74,0,74,0,1
,,,,,,,5fb240c0a9c3227c6c69d7ce,,,,,,5fb240c0a9c3227c6c69d7ce,Kobieta,32,2021-09-06_18h28.27.740,rantool2,2021.1.4,MacIntel,74.97375918,6135e006383e6ea6c3d06a28,61364117388ccbf94e9a8bb6,"[""comma""]",0,[0.3365999999046494],75,0,75,0,1
,,,,,,,5fb240c0a9c3227c6c69d7ce,,,,,,5fb240c0a9c3227c6c69d7ce,Kobieta,32,2021-09-06_18h28.27.740,rantool2,2021.1.4,MacIntel,74.97375918,6135e006383e6ea6c3d06a28,61364117388ccbf94e9a8bb6,"[""comma""]",0,[0.2697000000476919],76,0,76,0,1
,,,,,,,5fb240c0a9c3227c6c69d7ce,,,,,,5fb240c0a9c3227c6c69d7ce,Kobieta,32,2021-09-06_18h28.27.740,rantool2,2021.1.4,MacIntel,74.97375918,6135e006383e6ea6c3d06a28,61364117388ccbf94e9a8bb6,"[""comma""]",0,[0.5059999999999718],77,0,77,0,1
,,,,,,,5fb240c0a9c3227c6c69d7ce,,,,,,5fb240c0a9c3227c6c69d7ce,Kobieta,32,2021-09-06_18h28.27.740,rantool2,2021.1.4,MacIntel,74.97375918,6135e006383e6ea6c3d06a28,61364117388ccbf94e9a8bb6,"[""period""]",0,[0.3478000001907162],78,0,78,0,1
,,,,,,,5fb240c0a9c3227c6c69d7ce,,,,,,5fb240c0a9c3227c6c69d7ce,Kobieta,32,2021-09-06_18h28.27.740,rantool2,2021.1.4,MacIntel,74.97375918,6135e006383e6ea6c3d06a28,61364117388ccbf94e9a8bb6,"[""period""]",0,[0.11990000009535606],79,0,79,0,1
,,,,,,,5fb240c0a9c3227c6c69d7ce,,,,,,5fb240c0a9c3227c6c69d7ce,Kobieta,32,2021-09-06_18h28.27.740,rantool2,2021.1.4,MacIntel,74.97375918,6135e006383e6ea6c3d06a28,61364117388ccbf94e9a8bb6,"[""period""]",0,[0.29779999995230355],80,0,80,0,1
,,,,,,,5fb240c0a9c3227c6c69d7ce,,,,,,5fb240c0a9c3227c6c69d7ce,Kobieta,32,2021-09-06_18h28.27.740,rantool2,2021.1.4,MacIntel,74.97375918,6135e006383e6ea6c3d06a28,61364117388ccbf94e9a8bb6,"[""comma""]",0,[0.22779999995231037],81,0,81,0,1
,,,,,,,5fb240c0a9c3227c6c69d7ce,,,,,,5fb240c0a9c3227c6c69d7ce,Kobieta,32,2021-09-06_18h28.27.740,rantool2,2021.1.4,MacIntel,74.97375918,6135e006383e6ea6c3d06a28,61364117388ccbf94e9a8bb6,"[""period""]",0,[0.273700000047711],82,0,82,0,1
,,,,,,,5fb240c0a9c3227c6c69d7ce,,,,,,5fb240c0a9c3227c6c69d7ce,Kobieta,32,2021-09-06_18h28.27.740,rantool2,2021.1.4,MacIntel,74.97375918,6135e006383e6ea6c3d06a28,61364117388ccbf94e9a8bb6,"[""comma""]",0,[0.21579999995230992],83,0,83,0,1
,,,,,,,5fb240c0a9c3227c6c69d7ce,,,,,,5fb240c0a9c3227c6c69d7ce,Kobieta,32,2021-09-06_18h28.27.740,rantool2,2021.1.4,MacIntel,74.97375918,6135e006383e6ea6c3d06a28,61364117388ccbf94e9a8bb6,"[""comma"",""comma""]",0,"[0.27919999980929333,1.9707999999523054]",84,0,84,0,1
,,,,,,,5fb240c0a9c3227c6c69d7ce,,,,,,5fb240c0a9c3227c6c69d7ce,Kobieta,32,2021-09-06_18h28.27.740,rantool2,2021.1.4,MacIntel,74.97375918,6135e006383e6ea6c3d06a28,61364117388ccbf94e9a8bb6,0,0,,85,0,85,0,1
,,,,,,,5fb240c0a9c3227c6c69d7ce,,,,,,5fb240c0a9c3227c6c69d7ce,Kobieta,32,2021-09-06_18h28.27.740,rantool2,2021.1.4,MacIntel,74.97375918,6135e006383e6ea6c3d06a28,61364117388ccbf94e9a8bb6,"[""period""]",0,[0.12250000000000227],86,0,86,0,1
,,,,,,,5fb240c0a9c3227c6c69d7ce,,,,,,5fb240c0a9c3227c6c69d7ce,Kobieta,32,2021-09-06_18h28.27.740,rantool2,2021.1.4,MacIntel,74.97375918,6135e006383e6ea6c3d06a28,61364117388ccbf94e9a8bb6,"[""period""]",0,[0.33279999995232856],87,0,87,0,1
,,,,,,,5fb240c0a9c3227c6c69d7ce,,,,,,5fb240c0a9c3227c6c69d7ce,Kobieta,32,2021-09-06_18h28.27.740,rantool2,2021.1.4,MacIntel,74.97375918,6135e006383e6ea6c3d06a28,61364117388ccbf94e9a8bb6,"[""period""]",0,[0.4802000000476596],88,0,88,0,1
,,,,,,,5fb240c0a9c3227c6c69d7ce,,,,,,5fb240c0a9c3227c6c69d7ce,Kobieta,32,2021-09-06_18h28.27.740,rantool2,2021.1.4,MacIntel,74.97375918,6135e006383e6ea6c3d06a28,61364117388ccbf94e9a8bb6,"[""comma""]",0,[0.46699999999998454],89,0,89,0,1
,,,,,,,5fb240c0a9c3227c6c69d7ce,,,,,,5fb240c0a9c3227c6c69d7ce,Kobieta,32,2021-09-06_18h28.27.740,rantool2,2021.1.4,MacIntel,74.97375918,6135e006383e6ea6c3d06a28,61364117388ccbf94e9a8bb6,"[""period""]",0,[0.3879999999999768],90,0,90,0,1
,,,,,,,5fb240c0a9c3227c6c69d7ce,,,,,,5fb240c0a9c3227c6c69d7ce,Kobieta,32,2021-09-06_18h28.27.740,rantool2,2021.1.4,MacIntel,74.97375918,6135e006383e6ea6c3d06a28,61364117388ccbf94e9a8bb6,"[""period""]",0,[0.3774000000954061],91,0,91,0,1
,,,,,,,5fb240c0a9c3227c6c69d7ce,,,,,,5fb240c0a9c3227c6c69d7ce,Kobieta,32,2021-09-06_18h28.27.740,rantool2,2021.1.4,MacIntel,74.97375918,6135e006383e6ea6c3d06a28,61364117388ccbf94e9a8bb6,"[""comma""]",0,[0.32040000009533287],92,0,92,0,1
,,,,,,,5fb240c0a9c3227c6c69d7ce,,,,,,5fb240c0a9c3227c6c69d7ce,Kobieta,32,2021-09-06_18h28.27.740,rantool2,2021.1.4,MacIntel,74.97375918,6135e006383e6ea6c3d06a28,61364117388ccbf94e9a8bb6,"[""comma""]",0,[0.28329999995230537],93,0,93,0,1
,,,,,,,5fb240c0a9c3227c6c69d7ce,,,,,,5fb240c0a9c3227c6c69d7ce,Kobieta,32,2021-09-06_18h28.27.740,rantool2,2021.1.4,MacIntel,74.97375918,6135e006383e6ea6c3d06a28,61364117388ccbf94e9a8bb6,"[""period""]",0,[0.6833999998569311],94,0,94,0,1
,,,,,,,5fb240c0a9c3227c6c69d7ce,,,,,,5fb240c0a9c3227c6c69d7ce,Kobieta,32,2021-09-06_18h28.27.740,rantool2,2021.1.4,MacIntel,74.97375918,6135e006383e6ea6c3d06a28,61364117388ccbf94e9a8bb6,"[""comma""]",0,[0.4524000000953947],95,0,95,0,1
,,,,,,,5fb240c0a9c3227c6c69d7ce,,,,,,5fb240c0a9c3227c6c69d7ce,Kobieta,32,2021-09-06_18h28.27.740,rantool2,2021.1.4,MacIntel,74.97375918,6135e006383e6ea6c3d06a28,61364117388ccbf94e9a8bb6,"[""period""]",0,[0.2018000001907012],96,0,96,0,1
,,,,,,,5fb240c0a9c3227c6c69d7ce,,,,,,5fb240c0a9c3227c6c69d7ce,Kobieta,32,2021-09-06_18h28.27.740,rantool2,2021.1.4,MacIntel,74.97375918,6135e006383e6ea6c3d06a28,61364117388ccbf94e9a8bb6,"[""comma""]",0,[0.6812000000476814],97,0,97,0,1
,,,,,,,5fb240c0a9c3227c6c69d7ce,,,,,,5fb240c0a9c3227c6c69d7ce,Kobieta,32,2021-09-06_18h28.27.740,rantool2,2021.1.4,MacIntel,74.97375918,6135e006383e6ea6c3d06a28,61364117388ccbf94e9a8bb6,"[""comma""]",0,[0.695900000095321],98,0,98,0,1
,,,,,,,5fb240c0a9c3227c6c69d7ce,,,,,,5fb240c0a9c3227c6c69d7ce,Kobieta,32,2021-09-06_18h28.27.740,rantool2,2021.1.4,MacIntel,74.97375918,6135e006383e6ea6c3d06a28,61364117388ccbf94e9a8bb6,"[""period""]",0,[1.0010000000000332],99,0,99,0,1
,,,,,,,5fb240c0a9c3227c6c69d7ce,,,,,,5fb240c0a9c3227c6c69d7ce,Kobieta,32,2021-09-06_18h28.27.740,rantool2,2021.1.4,MacIntel,74.97375918,6135e006383e6ea6c3d06a28,61364117388ccbf94e9a8bb6,"[""period""]",0,[0.9862000000476883],100,0,100,0,1
,,,,,,,5fb240c0a9c3227c6c69d7ce,,,,,,5fb240c0a9c3227c6c69d7ce,Kobieta,32,2021-09-06_18h28.27.740,rantool2,2021.1.4,MacIntel,74.97375918,6135e006383e6ea6c3d06a28,61364117388ccbf94e9a8bb6,"[""comma""]",0,[1.296099999904584],101,0,101,0,1
,,,,,,,5fb240c0a9c3227c6c69d7ce,,,,,,5fb240c0a9c3227c6c69d7ce,Kobieta,32,2021-09-06_18h28.27.740,rantool2,2021.1.4,MacIntel,74.97375918,6135e006383e6ea6c3d06a28,61364117388ccbf94e9a8bb6,"[""comma""]",0,[1.5230999999047299],102,0,102,0,1
,,,,,,,5fb240c0a9c3227c6c69d7ce,,,,,,5fb240c0a9c3227c6c69d7ce,Kobieta,32,2021-09-06_18h28.27.740,rantool2,2021.1.4,MacIntel,74.97375918,6135e006383e6ea6c3d06a28,61364117388ccbf94e9a8bb6,0,0,,103,0,103,0,1
,,,,,,,5fb240c0a9c3227c6c69d7ce,,,,,,5fb240c0a9c3227c6c69d7ce,Kobieta,32,2021-09-06_18h28.27.740,rantool2,2021.1.4,MacIntel,74.97375918,6135e006383e6ea6c3d06a28,61364117388ccbf94e9a8bb6,"[""period""]",0,[0.1751999998092515],104,0,104,0,1
,,,,,,,5fb240c0a9c3227c6c69d7ce,,,,,,5fb240c0a9c3227c6c69d7ce,Kobieta,32,2021-09-06_18h28.27.740,rantool2,2021.1.4,MacIntel,74.97375918,6135e006383e6ea6c3d06a28,61364117388ccbf94e9a8bb6,"[""period""]",0,[0.16760000014312482],105,0,105,0,1
,,,,,,,5fb240c0a9c3227c6c69d7ce,,,,,,5fb240c0a9c3227c6c69d7ce,Kobieta,32,2021-09-06_18h28.27.740,rantool2,2021.1.4,MacIntel,74.97375918,6135e006383e6ea6c3d06a28,61364117388ccbf94e9a8bb6,"[""period""]",0,[0.18740000009540836],106,0,106,0,1
,,,,,,,5fb240c0a9c3227c6c69d7ce,,,,,,5fb240c0a9c3227c6c69d7ce,Kobieta,32,2021-09-06_18h28.27.740,rantool2,2021.1.4,MacIntel,74.97375918,6135e006383e6ea6c3d06a28,61364117388ccbf94e9a8bb6,"[""comma""]",0,[0.3621000001429593],107,0,107,0,1
,,,,,,,5fb240c0a9c3227c6c69d7ce,,,,,,5fb240c0a9c3227c6c69d7ce,Kobieta,32,2021-09-06_18h28.27.740,rantool2,2021.1.4,MacIntel,74.97375918,6135e006383e6ea6c3d06a28,61364117388ccbf94e9a8bb6,"[""comma""]",0,[0.2169000000953929],108,0,108,0,1
,,,,,,,5fb240c0a9c3227c6c69d7ce,,,,,,5fb240c0a9c3227c6c69d7ce,Kobieta,32,2021-09-06_18h28.27.740,rantool2,2021.1.4,MacIntel,74.97375918,6135e006383e6ea6c3d06a28,61364117388ccbf94e9a8bb6,"[""comma""]",0,[0.6161000001430921],109,0,109,0,1
,,,,,,,5fb240c0a9c3227c6c69d7ce,,,,,,5fb240c0a9c3227c6c69d7ce,Kobieta,32,2021-09-06_18h28.27.740,rantool2,2021.1.4,MacIntel,74.97375918,6135e006383e6ea6c3d06a28,61364117388ccbf94e9a8bb6,"[""period""]",0,[0.5766000001430029],110,0,110,0,1
,,,,,,,5fb240c0a9c3227c6c69d7ce,,,,,,5fb240c0a9c3227c6c69d7ce,Kobieta,32,2021-09-06_18h28.27.740,rantool2,2021.1.4,MacIntel,74.97375918,6135e006383e6ea6c3d06a28,61364117388ccbf94e9a8bb6,0,0,,111,0,111,0,1
,,,,,,,5fb240c0a9c3227c6c69d7ce,,,,,,5fb240c0a9c3227c6c69d7ce,Kobieta,32,2021-09-06_18h28.27.740,rantool2,2021.1.4,MacIntel,74.97375918,6135e006383e6ea6c3d06a28,61364117388ccbf94e9a8bb6,"[""comma""]",0,[0.34570000004771373],112,0,112,0,1
,,,,,,,5fb240c0a9c3227c6c69d7ce,,,,,,5fb240c0a9c3227c6c69d7ce,Kobieta,32,2021-09-06_18h28.27.740,rantool2,2021.1.4,MacIntel,74.97375918,6135e006383e6ea6c3d06a28,61364117388ccbf94e9a8bb6,"[""period""]",0,[0.4821000001430775],113,0,113,0,1
,,,,,,,5fb240c0a9c3227c6c69d7ce,,,,,,5fb240c0a9c3227c6c69d7ce,Kobieta,32,2021-09-06_18h28.27.740,rantool2,2021.1.4,MacIntel,74.97375918,6135e006383e6ea6c3d06a28,61364117388ccbf94e9a8bb6,"[""period""]",0,[0.4789000000954502],114,0,114,0,1
,,,,,,,5fb240c0a9c3227c6c69d7ce,,,,,,5fb240c0a9c3227c6c69d7ce,Kobieta,32,2021-09-06_18h28.27.740,rantool2,2021.1.4,MacIntel,74.97375918,6135e006383e6ea6c3d06a28,61364117388ccbf94e9a8bb6,"[""comma""]",0,[0.3231000001430857],115,0,115,0,1
,,,,,,,5fb240c0a9c3227c6c69d7ce,,,,,,5fb240c0a9c3227c6c69d7ce,Kobieta,32,2021-09-06_18h28.27.740,rantool2,2021.1.4,MacIntel,74.97375918,6135e006383e6ea6c3d06a28,61364117388ccbf94e9a8bb6,"[""comma""]",0,[0.4035000000000082],116,0,116,0,1
,,,,,,,5fb240c0a9c3227c6c69d7ce,,,,,,5fb240c0a9c3227c6c69d7ce,Kobieta,32,2021-09-06_18h28.27.740,rantool2,2021.1.4,MacIntel,74.97375918,6135e006383e6ea6c3d06a28,61364117388ccbf94e9a8bb6,"[""comma""]",0,[0.4399999999999409],117,0,117,0,1
,,,,,,,5fb240c0a9c3227c6c69d7ce,,,,,,5fb240c0a9c3227c6c69d7ce,Kobieta,32,2021-09-06_18h28.27.740,rantool2,2021.1.4,MacIntel,74.97375918,6135e006383e6ea6c3d06a28,61364117388ccbf94e9a8bb6,"[""period""]",0,[0.36179999995238177],118,0,118,0,1
,,,,,,,5fb240c0a9c3227c6c69d7ce,,,,,,5fb240c0a9c3227c6c69d7ce,Kobieta,32,2021-09-06_18h28.27.740,rantool2,2021.1.4,MacIntel,74.97375918,6135e006383e6ea6c3d06a28,61364117388ccbf94e9a8bb6,"[""comma""]",0,[0.5197000000476919],119,0,119,0,1
