key_resp_7.keys,key_resp_7.rt,trials_2.thisRepN,trials_2.thisTrialN,trials_2.thisN,trials_2.thisIndex,trials_2.ran,id,series_0,series_1,acss_0,acss_1,comparison,id*,Płeć*,Wiek*,date,expName,psychopyVersion,OS,frameRate,STUDY_ID,SESSION_ID,key_resp_5.keys,key_resp_5.corr,key_resp_5.rt,trials.thisRepN,trials.thisTrialN,trials.thisN,trials.thisIndex,trials.ran
j,3.8588,0,0,0,40,1,5e67be06787413064d677ef9,ROROOOO,ROROOOR,20.87963819,21.37121559,series_1,5e67be06787413064d677ef9,Mężczyzna,24,2021-09-06_19h00.30.713,rantool2,2021.1.4,Win32,60.0132029,6135e006383e6ea6c3d06a28,61364913abe485af986c3726,,,,,,,,
f,3.0732,0,1,1,18,1,5e67be06787413064d677ef9,OROOROO,OROOROR,20.84860893,21.22513037,series_1,5e67be06787413064d677ef9,Mężczyzna,24,2021-09-06_19h00.30.713,rantool2,2021.1.4,Win32,60.0132029,6135e006383e6ea6c3d06a28,61364913abe485af986c3726,,,,,,,,
f,2.5581,0,2,2,14,1,5e67be06787413064d677ef9,OORRROO,OORRROR,22.24142883,22.16977179,series_0,5e67be06787413064d677ef9,Mężczyzna,24,2021-09-06_19h00.30.713,rantool2,2021.1.4,Win32,60.0132029,6135e006383e6ea6c3d06a28,61364913abe485af986c3726,,,,,,,,
f,2.4872,0,3,3,56,1,5e67be06787413064d677ef9,RRROOOO,RRROOOR,21.6194508,22.31681875,series_1,5e67be06787413064d677ef9,Mężczyzna,24,2021-09-06_19h00.30.713,rantool2,2021.1.4,Win32,60.0132029,6135e006383e6ea6c3d06a28,61364913abe485af986c3726,,,,,,,,
j,2.6094,0,4,4,15,1,5e67be06787413064d677ef9,OORRRRO,OORRRRR,22.10108823,21.74922619,series_0,5e67be06787413064d677ef9,Mężczyzna,24,2021-09-06_19h00.30.713,rantool2,2021.1.4,Win32,60.0132029,6135e006383e6ea6c3d06a28,61364913abe485af986c3726,,,,,,,,
j,2.3873,0,5,5,33,1,5e67be06787413064d677ef9,ROOOORO,ROOOORR,20.83779602,22.03072203,series_1,5e67be06787413064d677ef9,Mężczyzna,24,2021-09-06_19h00.30.713,rantool2,2021.1.4,Win32,60.0132029,6135e006383e6ea6c3d06a28,61364913abe485af986c3726,,,,,,,,
f,2.3452,0,6,6,9,1,5e67be06787413064d677ef9,OOROORO,OOROORR,21.07991943,22.2428857,series_1,5e67be06787413064d677ef9,Mężczyzna,24,2021-09-06_19h00.30.713,rantool2,2021.1.4,Win32,60.0132029,6135e006383e6ea6c3d06a28,61364913abe485af986c3726,,,,,,,,
j,2.2187,0,7,7,38,1,5e67be06787413064d677ef9,ROORROO,ROORROR,21.79500819,21.36812781,series_0,5e67be06787413064d677ef9,Mężczyzna,24,2021-09-06_19h00.30.713,rantool2,2021.1.4,Win32,60.0132029,6135e006383e6ea6c3d06a28,61364913abe485af986c3726,,,,,,,,
j,0.8535,0,8,8,62,1,5e67be06787413064d677ef9,RRRRROO,RRRRROR,22.16413392,21.27974287,series_0,5e67be06787413064d677ef9,Mężczyzna,24,2021-09-06_19h00.30.713,rantool2,2021.1.4,Win32,60.0132029,6135e006383e6ea6c3d06a28,61364913abe485af986c3726,,,,,,,,
f,2.2666,0,9,9,51,1,5e67be06787413064d677ef9,RROORRO,RROORRR,21.89852628,22.02786418,series_1,5e67be06787413064d677ef9,Mężczyzna,24,2021-09-06_19h00.30.713,rantool2,2021.1.4,Win32,60.0132029,6135e006383e6ea6c3d06a28,61364913abe485af986c3726,,,,,,,,
j,1.6174,0,10,10,29,1,5e67be06787413064d677ef9,ORRRORO,ORRRORR,22.00300695,22.12173012,series_1,5e67be06787413064d677ef9,Mężczyzna,24,2021-09-06_19h00.30.713,rantool2,2021.1.4,Win32,60.0132029,6135e006383e6ea6c3d06a28,61364913abe485af986c3726,,,,,,,,
f,1.0893,0,11,11,30,1,5e67be06787413064d677ef9,ORRRROO,ORRRROR,22.46748491,22.03072203,series_0,5e67be06787413064d677ef9,Mężczyzna,24,2021-09-06_19h00.30.713,rantool2,2021.1.4,Win32,60.0132029,6135e006383e6ea6c3d06a28,61364913abe485af986c3726,,,,,,,,
f,3.4598,0,12,12,16,1,5e67be06787413064d677ef9,OROOOOO,OROOOOR,20.43051175,21.17347734,series_1,5e67be06787413064d677ef9,Mężczyzna,24,2021-09-06_19h00.30.713,rantool2,2021.1.4,Win32,60.0132029,6135e006383e6ea6c3d06a28,61364913abe485af986c3726,,,,,,,,
f,1.5723,0,13,13,58,1,5e67be06787413064d677ef9,RRROROO,RRROROR,22.1285618,21.37121559,series_0,5e67be06787413064d677ef9,Mężczyzna,24,2021-09-06_19h00.30.713,rantool2,2021.1.4,Win32,60.0132029,6135e006383e6ea6c3d06a28,61364913abe485af986c3726,,,,,,,,
j,1.1161,0,14,14,12,1,5e67be06787413064d677ef9,OORROOO,OORROOR,21.30250474,22.02786418,series_1,5e67be06787413064d677ef9,Mężczyzna,24,2021-09-06_19h00.30.713,rantool2,2021.1.4,Win32,60.0132029,6135e006383e6ea6c3d06a28,61364913abe485af986c3726,,,,,,,,
f,1.1668,0,15,15,41,1,5e67be06787413064d677ef9,ROROORO,ROROORR,20.42602454,21.71443381,series_1,5e67be06787413064d677ef9,Mężczyzna,24,2021-09-06_19h00.30.713,rantool2,2021.1.4,Win32,60.0132029,6135e006383e6ea6c3d06a28,61364913abe485af986c3726,,,,,,,,
j,1.1104,0,16,16,10,1,5e67be06787413064d677ef9,OOROROO,OOROROR,21.31236711,21.07490964,series_0,5e67be06787413064d677ef9,Mężczyzna,24,2021-09-06_19h00.30.713,rantool2,2021.1.4,Win32,60.0132029,6135e006383e6ea6c3d06a28,61364913abe485af986c3726,,,,,,,,
f,1.0343,0,17,17,19,1,5e67be06787413064d677ef9,OROORRO,OROORRR,21.73568164,22.11181017,series_1,5e67be06787413064d677ef9,Mężczyzna,24,2021-09-06_19h00.30.713,rantool2,2021.1.4,Win32,60.0132029,6135e006383e6ea6c3d06a28,61364913abe485af986c3726,,,,,,,,
j,1.4481,0,18,18,26,1,5e67be06787413064d677ef9,ORROROO,ORROROR,22.02732763,21.71443381,series_0,5e67be06787413064d677ef9,Mężczyzna,24,2021-09-06_19h00.30.713,rantool2,2021.1.4,Win32,60.0132029,6135e006383e6ea6c3d06a28,61364913abe485af986c3726,,,,,,,,
j,1.4963,0,19,19,17,1,5e67be06787413064d677ef9,OROOORO,OROOORR,21.03750787,22.12173012,series_1,5e67be06787413064d677ef9,Mężczyzna,24,2021-09-06_19h00.30.713,rantool2,2021.1.4,Win32,60.0132029,6135e006383e6ea6c3d06a28,61364913abe485af986c3726,,,,,,,,
j,2.5041,0,20,20,59,1,5e67be06787413064d677ef9,RRRORRO,RRRORRR,21.56657303,20.89823192,series_0,5e67be06787413064d677ef9,Mężczyzna,24,2021-09-06_19h00.30.713,rantool2,2021.1.4,Win32,60.0132029,6135e006383e6ea6c3d06a28,61364913abe485af986c3726,,,,,,,,
j,3.4831,0,21,21,37,1,5e67be06787413064d677ef9,ROORORO,ROORORR,20.42602454,21.57657071,series_1,5e67be06787413064d677ef9,Mężczyzna,24,2021-09-06_19h00.30.713,rantool2,2021.1.4,Win32,60.0132029,6135e006383e6ea6c3d06a28,61364913abe485af986c3726,,,,,,,,
j,3.5416,0,22,22,5,1,5e67be06787413064d677ef9,OOORORO,OOORORR,20.87963819,21.9921709,series_1,5e67be06787413064d677ef9,Mężczyzna,24,2021-09-06_19h00.30.713,rantool2,2021.1.4,Win32,60.0132029,6135e006383e6ea6c3d06a28,61364913abe485af986c3726,,,,,,,,
f,1.4386,0,23,23,31,1,5e67be06787413064d677ef9,ORRRRRO,ORRRRRR,22.16413392,20.74050628,series_0,5e67be06787413064d677ef9,Mężczyzna,24,2021-09-06_19h00.30.713,rantool2,2021.1.4,Win32,60.0132029,6135e006383e6ea6c3d06a28,61364913abe485af986c3726,,,,,,,,
j,0.9905,0,24,24,8,1,5e67be06787413064d677ef9,OOROOOO,OOROOOR,19.91402015,20.89823192,series_1,5e67be06787413064d677ef9,Mężczyzna,24,2021-09-06_19h00.30.713,rantool2,2021.1.4,Win32,60.0132029,6135e006383e6ea6c3d06a28,61364913abe485af986c3726,,,,,,,,
j,4.4376,0,25,25,63,1,5e67be06787413064d677ef9,RRRRRRO,RRRRRRR,21.35278725,19.62521613,series_0,5e67be06787413064d677ef9,Mężczyzna,24,2021-09-06_19h00.30.713,rantool2,2021.1.4,Win32,60.0132029,6135e006383e6ea6c3d06a28,61364913abe485af986c3726,,,,,,,,
f,4.353,0,26,26,45,1,5e67be06787413064d677ef9,RORRORO,RORRORR,20.78182524,21.22513037,series_1,5e67be06787413064d677ef9,Mężczyzna,24,2021-09-06_19h00.30.713,rantool2,2021.1.4,Win32,60.0132029,6135e006383e6ea6c3d06a28,61364913abe485af986c3726,,,,,,,,
f,1.4822,0,27,27,24,1,5e67be06787413064d677ef9,ORROOOO,ORROOOR,21.12383932,22.07102821,series_1,5e67be06787413064d677ef9,Mężczyzna,24,2021-09-06_19h00.30.713,rantool2,2021.1.4,Win32,60.0132029,6135e006383e6ea6c3d06a28,61364913abe485af986c3726,,,,,,,,
j,1.0279,0,28,28,2,1,5e67be06787413064d677ef9,OOOOROO,OOOOROR,20.43051175,21.02936224,series_1,5e67be06787413064d677ef9,Mężczyzna,24,2021-09-06_19h00.30.713,rantool2,2021.1.4,Win32,60.0132029,6135e006383e6ea6c3d06a28,61364913abe485af986c3726,,,,,,,,
f,3.485,0,29,29,3,1,5e67be06787413064d677ef9,OOOORRO,OOOORRR,20.90986523,21.74922619,series_1,5e67be06787413064d677ef9,Mężczyzna,24,2021-09-06_19h00.30.713,rantool2,2021.1.4,Win32,60.0132029,6135e006383e6ea6c3d06a28,61364913abe485af986c3726,,,,,,,,
j,3.732,0,30,30,46,1,5e67be06787413064d677ef9,RORRROO,RORRROR,22.00300695,21.24781509,series_0,5e67be06787413064d677ef9,Mężczyzna,24,2021-09-06_19h00.30.713,rantool2,2021.1.4,Win32,60.0132029,6135e006383e6ea6c3d06a28,61364913abe485af986c3726,,,,,,,,
f,4.7022,0,31,31,20,1,5e67be06787413064d677ef9,OROROOO,OROROOR,21.31236711,21.90565814,series_1,5e67be06787413064d677ef9,Mężczyzna,24,2021-09-06_19h00.30.713,rantool2,2021.1.4,Win32,60.0132029,6135e006383e6ea6c3d06a28,61364913abe485af986c3726,,,,,,,,
j,2.4541,0,32,32,54,1,5e67be06787413064d677ef9,RRORROO,RRORROR,21.55250791,20.9984461,series_0,5e67be06787413064d677ef9,Mężczyzna,24,2021-09-06_19h00.30.713,rantool2,2021.1.4,Win32,60.0132029,6135e006383e6ea6c3d06a28,61364913abe485af986c3726,,,,,,,,
f,1.9176,0,33,33,27,1,5e67be06787413064d677ef9,ORRORRO,ORRORRR,21.55250791,22.2428857,series_1,5e67be06787413064d677ef9,Mężczyzna,24,2021-09-06_19h00.30.713,rantool2,2021.1.4,Win32,60.0132029,6135e006383e6ea6c3d06a28,61364913abe485af986c3726,,,,,,,,
j,0.5756,0,34,34,42,1,5e67be06787413064d677ef9,ROROROO,ROROROR,20.39515459,19.8361834,series_0,5e67be06787413064d677ef9,Mężczyzna,24,2021-09-06_19h00.30.713,rantool2,2021.1.4,Win32,60.0132029,6135e006383e6ea6c3d06a28,61364913abe485af986c3726,,,,,,,,
f,0.3558,0,35,35,57,1,5e67be06787413064d677ef9,RRROORO,RRROORR,21.82425538,22.07102821,series_1,5e67be06787413064d677ef9,Mężczyzna,24,2021-09-06_19h00.30.713,rantool2,2021.1.4,Win32,60.0132029,6135e006383e6ea6c3d06a28,61364913abe485af986c3726,,,,,,,,
j,2.7325,0,36,36,22,1,5e67be06787413064d677ef9,ORORROO,ORORROR,22.02732763,21.57657071,series_0,5e67be06787413064d677ef9,Mężczyzna,24,2021-09-06_19h00.30.713,rantool2,2021.1.4,Win32,60.0132029,6135e006383e6ea6c3d06a28,61364913abe485af986c3726,,,,,,,,
f,4.2991,0,37,37,34,1,5e67be06787413064d677ef9,ROOOROO,ROOOROR,21.03750787,21.24781509,series_1,5e67be06787413064d677ef9,Mężczyzna,24,2021-09-06_19h00.30.713,rantool2,2021.1.4,Win32,60.0132029,6135e006383e6ea6c3d06a28,61364913abe485af986c3726,,,,,,,,
j,3.4384,0,38,38,61,1,5e67be06787413064d677ef9,RRRRORO,RRRRORR,21.81333602,21.17347734,series_0,5e67be06787413064d677ef9,Mężczyzna,24,2021-09-06_19h00.30.713,rantool2,2021.1.4,Win32,60.0132029,6135e006383e6ea6c3d06a28,61364913abe485af986c3726,,,,,,,,
f,1.3764,0,39,39,36,1,5e67be06787413064d677ef9,ROOROOO,ROOROOR,21.07991943,20.9984461,series_0,5e67be06787413064d677ef9,Mężczyzna,24,2021-09-06_19h00.30.713,rantool2,2021.1.4,Win32,60.0132029,6135e006383e6ea6c3d06a28,61364913abe485af986c3726,,,,,,,,
j,1.5209,0,40,40,1,1,5e67be06787413064d677ef9,OOOOORO,OOOOORR,19.92253567,20.74050628,series_1,5e67be06787413064d677ef9,Mężczyzna,24,2021-09-06_19h00.30.713,rantool2,2021.1.4,Win32,60.0132029,6135e006383e6ea6c3d06a28,61364913abe485af986c3726,,,,,,,,
f,1.6007,0,41,41,7,1,5e67be06787413064d677ef9,OOORRRO,OOORRRR,21.6194508,21.899017,series_1,5e67be06787413064d677ef9,Mężczyzna,24,2021-09-06_19h00.30.713,rantool2,2021.1.4,Win32,60.0132029,6135e006383e6ea6c3d06a28,61364913abe485af986c3726,,,,,,,,
j,0.8552,0,42,42,28,1,5e67be06787413064d677ef9,ORRROOO,ORRROOR,22.24142883,22.53364006,series_1,5e67be06787413064d677ef9,Mężczyzna,24,2021-09-06_19h00.30.713,rantool2,2021.1.4,Win32,60.0132029,6135e006383e6ea6c3d06a28,61364913abe485af986c3726,,,,,,,,
f,0.8679,0,43,43,43,1,5e67be06787413064d677ef9,RORORRO,RORORRR,20.71309134,21.07490964,series_1,5e67be06787413064d677ef9,Mężczyzna,24,2021-09-06_19h00.30.713,rantool2,2021.1.4,Win32,60.0132029,6135e006383e6ea6c3d06a28,61364913abe485af986c3726,,,,,,,,
j,1.4885,0,44,44,25,1,5e67be06787413064d677ef9,ORROORO,ORROORR,21.79500819,22.61624387,series_1,5e67be06787413064d677ef9,Mężczyzna,24,2021-09-06_19h00.30.713,rantool2,2021.1.4,Win32,60.0132029,6135e006383e6ea6c3d06a28,61364913abe485af986c3726,,,,,,,,
f,0.8769,0,45,45,50,1,5e67be06787413064d677ef9,RROOROO,RROOROR,21.73568164,22.02566557,series_1,5e67be06787413064d677ef9,Mężczyzna,24,2021-09-06_19h00.30.713,rantool2,2021.1.4,Win32,60.0132029,6135e006383e6ea6c3d06a28,61364913abe485af986c3726,,,,,,,,
j,0.9887,0,46,46,35,1,5e67be06787413064d677ef9,ROOORRO,ROOORRR,21.76276513,22.16977179,series_1,5e67be06787413064d677ef9,Mężczyzna,24,2021-09-06_19h00.30.713,rantool2,2021.1.4,Win32,60.0132029,6135e006383e6ea6c3d06a28,61364913abe485af986c3726,,,,,,,,
f,0.9731,0,47,47,4,1,5e67be06787413064d677ef9,OOOROOO,OOOROOR,19.91402015,21.21223021,series_1,5e67be06787413064d677ef9,Mężczyzna,24,2021-09-06_19h00.30.713,rantool2,2021.1.4,Win32,60.0132029,6135e006383e6ea6c3d06a28,61364913abe485af986c3726,,,,,,,,
j,0.8999,0,48,48,39,1,5e67be06787413064d677ef9,ROORRRO,ROORRRR,21.82425538,21.38562617,series_0,5e67be06787413064d677ef9,Mężczyzna,24,2021-09-06_19h00.30.713,rantool2,2021.1.4,Win32,60.0132029,6135e006383e6ea6c3d06a28,61364913abe485af986c3726,,,,,,,,
f,4.2245,0,49,49,0,1,5e67be06787413064d677ef9,OOOOOOO,OOOOOOR,18.52739004,19.62521613,series_1,5e67be06787413064d677ef9,Mężczyzna,24,2021-09-06_19h00.30.713,rantool2,2021.1.4,Win32,60.0132029,6135e006383e6ea6c3d06a28,61364913abe485af986c3726,,,,,,,,
j,4.4878,0,50,50,48,1,5e67be06787413064d677ef9,RROOOOO,RROOOOR,20.90986523,22.15934078,series_1,5e67be06787413064d677ef9,Mężczyzna,24,2021-09-06_19h00.30.713,rantool2,2021.1.4,Win32,60.0132029,6135e006383e6ea6c3d06a28,61364913abe485af986c3726,,,,,,,,
f,1.7394,0,51,51,52,1,5e67be06787413064d677ef9,RROROOO,RROROOR,22.18365867,22.11097995,series_0,5e67be06787413064d677ef9,Mężczyzna,24,2021-09-06_19h00.30.713,rantool2,2021.1.4,Win32,60.0132029,6135e006383e6ea6c3d06a28,61364913abe485af986c3726,,,,,,,,
j,1.0744,0,52,52,6,1,5e67be06787413064d677ef9,OOORROO,OOORROR,21.12383932,21.38562617,series_1,5e67be06787413064d677ef9,Mężczyzna,24,2021-09-06_19h00.30.713,rantool2,2021.1.4,Win32,60.0132029,6135e006383e6ea6c3d06a28,61364913abe485af986c3726,,,,,,,,
f,0.7778,0,53,53,55,1,5e67be06787413064d677ef9,RRORRRO,RRORRRR,21.56657303,21.21223021,series_0,5e67be06787413064d677ef9,Mężczyzna,24,2021-09-06_19h00.30.713,rantool2,2021.1.4,Win32,60.0132029,6135e006383e6ea6c3d06a28,61364913abe485af986c3726,,,,,,,,
f,2.3039,0,54,54,13,1,5e67be06787413064d677ef9,OORRORO,OORRORR,21.66733484,22.11181017,series_1,5e67be06787413064d677ef9,Mężczyzna,24,2021-09-06_19h00.30.713,rantool2,2021.1.4,Win32,60.0132029,6135e006383e6ea6c3d06a28,61364913abe485af986c3726,,,,,,,,
f,2.4697,0,55,55,47,1,5e67be06787413064d677ef9,RORRRRO,RORRRRR,21.81333602,21.02936224,series_0,5e67be06787413064d677ef9,Mężczyzna,24,2021-09-06_19h00.30.713,rantool2,2021.1.4,Win32,60.0132029,6135e006383e6ea6c3d06a28,61364913abe485af986c3726,,,,,,,,
j,2.0268,0,56,56,23,1,5e67be06787413064d677ef9,ORORRRO,ORORRRR,22.1285618,21.9921709,series_0,5e67be06787413064d677ef9,Mężczyzna,24,2021-09-06_19h00.30.713,rantool2,2021.1.4,Win32,60.0132029,6135e006383e6ea6c3d06a28,61364913abe485af986c3726,,,,,,,,
f,1.8035,0,57,57,21,1,5e67be06787413064d677ef9,ORORORO,ORORORR,20.39515459,22.06781359,series_1,5e67be06787413064d677ef9,Mężczyzna,24,2021-09-06_19h00.30.713,rantool2,2021.1.4,Win32,60.0132029,6135e006383e6ea6c3d06a28,61364913abe485af986c3726,,,,,,,,
j,0.951,0,58,58,11,1,5e67be06787413064d677ef9,OORORRO,OORORRR,22.18365867,22.6797523,series_1,5e67be06787413064d677ef9,Mężczyzna,24,2021-09-06_19h00.30.713,rantool2,2021.1.4,Win32,60.0132029,6135e006383e6ea6c3d06a28,61364913abe485af986c3726,,,,,,,,
f,0.8111,0,59,59,32,1,5e67be06787413064d677ef9,ROOOOOO,ROOOOOR,19.92253567,21.27974287,series_1,5e67be06787413064d677ef9,Mężczyzna,24,2021-09-06_19h00.30.713,rantool2,2021.1.4,Win32,60.0132029,6135e006383e6ea6c3d06a28,61364913abe485af986c3726,,,,,,,,
f,3.9732,0,60,60,53,1,5e67be06787413064d677ef9,RRORORO,RRORORR,20.71309134,21.90565814,series_1,5e67be06787413064d677ef9,Mężczyzna,24,2021-09-06_19h00.30.713,rantool2,2021.1.4,Win32,60.0132029,6135e006383e6ea6c3d06a28,61364913abe485af986c3726,,,,,,,,
f,2.1927,0,61,61,60,1,5e67be06787413064d677ef9,RRRROOO,RRRROOR,22.10108823,22.15934078,series_1,5e67be06787413064d677ef9,Mężczyzna,24,2021-09-06_19h00.30.713,rantool2,2021.1.4,Win32,60.0132029,6135e006383e6ea6c3d06a28,61364913abe485af986c3726,,,,,,,,
j,0.9337,0,62,62,44,1,5e67be06787413064d677ef9,RORROOO,RORROOR,21.66733484,22.02566557,series_1,5e67be06787413064d677ef9,Mężczyzna,24,2021-09-06_19h00.30.713,rantool2,2021.1.4,Win32,60.0132029,6135e006383e6ea6c3d06a28,61364913abe485af986c3726,,,,,,,,
f,0.9036,0,63,63,49,1,5e67be06787413064d677ef9,RROOORO,RROOORR,21.76276513,22.53364006,series_1,5e67be06787413064d677ef9,Mężczyzna,24,2021-09-06_19h00.30.713,rantool2,2021.1.4,Win32,60.0132029,6135e006383e6ea6c3d06a28,61364913abe485af986c3726,,,,,,,,
,,,,,,,5e67be06787413064d677ef9,,,,,,5e67be06787413064d677ef9,Mężczyzna,24,2021-09-06_19h00.30.713,rantool2,2021.1.4,Win32,60.0132029,6135e006383e6ea6c3d06a28,61364913abe485af986c3726,0,,,0,0,0,0,1
,,,,,,,5e67be06787413064d677ef9,,,,,,5e67be06787413064d677ef9,Mężczyzna,24,2021-09-06_19h00.30.713,rantool2,2021.1.4,Win32,60.0132029,6135e006383e6ea6c3d06a28,61364913abe485af986c3726,"[""comma""]",0,[0.4590000000000032],1,0,1,0,1
,,,,,,,5e67be06787413064d677ef9,,,,,,5e67be06787413064d677ef9,Mężczyzna,24,2021-09-06_19h00.30.713,rantool2,2021.1.4,Win32,60.0132029,6135e006383e6ea6c3d06a28,61364913abe485af986c3726,"[""period""]",0,[0.41149999999998954],2,0,2,0,1
,,,,,,,5e67be06787413064d677ef9,,,,,,5e67be06787413064d677ef9,Mężczyzna,24,2021-09-06_19h00.30.713,rantool2,2021.1.4,Win32,60.0132029,6135e006383e6ea6c3d06a28,61364913abe485af986c3726,"[""comma""]",0,[0.2862999999522913],3,0,3,0,1
,,,,,,,5e67be06787413064d677ef9,,,,,,5e67be06787413064d677ef9,Mężczyzna,24,2021-09-06_19h00.30.713,rantool2,2021.1.4,Win32,60.0132029,6135e006383e6ea6c3d06a28,61364913abe485af986c3726,"[""period""]",0,[0.39560000002384754],4,0,4,0,1
,,,,,,,5e67be06787413064d677ef9,,,,,,5e67be06787413064d677ef9,Mężczyzna,24,2021-09-06_19h00.30.713,rantool2,2021.1.4,Win32,60.0132029,6135e006383e6ea6c3d06a28,61364913abe485af986c3726,"[""comma""]",0,[0.539600000023853],5,0,5,0,1
,,,,,,,5e67be06787413064d677ef9,,,,,,5e67be06787413064d677ef9,Mężczyzna,24,2021-09-06_19h00.30.713,rantool2,2021.1.4,Win32,60.0132029,6135e006383e6ea6c3d06a28,61364913abe485af986c3726,"[""comma""]",0,[0.6739999999999782],6,0,6,0,1
,,,,,,,5e67be06787413064d677ef9,,,,,,5e67be06787413064d677ef9,Mężczyzna,24,2021-09-06_19h00.30.713,rantool2,2021.1.4,Win32,60.0132029,6135e006383e6ea6c3d06a28,61364913abe485af986c3726,"[""period""]",0,[0.7445000000000164],7,0,7,0,1
,,,,,,,5e67be06787413064d677ef9,,,,,,5e67be06787413064d677ef9,Mężczyzna,24,2021-09-06_19h00.30.713,rantool2,2021.1.4,Win32,60.0132029,6135e006383e6ea6c3d06a28,61364913abe485af986c3726,"[""period""]",0,[0.3832000000476796],8,0,8,0,1
,,,,,,,5e67be06787413064d677ef9,,,,,,5e67be06787413064d677ef9,Mężczyzna,24,2021-09-06_19h00.30.713,rantool2,2021.1.4,Win32,60.0132029,6135e006383e6ea6c3d06a28,61364913abe485af986c3726,"[""period""]",0,[0.25180000007154035],9,0,9,0,1
,,,,,,,5e67be06787413064d677ef9,,,,,,5e67be06787413064d677ef9,Mężczyzna,24,2021-09-06_19h00.30.713,rantool2,2021.1.4,Win32,60.0132029,6135e006383e6ea6c3d06a28,61364913abe485af986c3726,"[""period""]",0,[0.301200000047686],10,0,10,0,1
,,,,,,,5e67be06787413064d677ef9,,,,,,5e67be06787413064d677ef9,Mężczyzna,24,2021-09-06_19h00.30.713,rantool2,2021.1.4,Win32,60.0132029,6135e006383e6ea6c3d06a28,61364913abe485af986c3726,"[""comma""]",0,[0.32099999999999795],11,0,11,0,1
,,,,,,,5e67be06787413064d677ef9,,,,,,5e67be06787413064d677ef9,Mężczyzna,24,2021-09-06_19h00.30.713,rantool2,2021.1.4,Win32,60.0132029,6135e006383e6ea6c3d06a28,61364913abe485af986c3726,"[""comma""]",0,[0.22749999999999204],12,0,12,0,1
,,,,,,,5e67be06787413064d677ef9,,,,,,5e67be06787413064d677ef9,Mężczyzna,24,2021-09-06_19h00.30.713,rantool2,2021.1.4,Win32,60.0132029,6135e006383e6ea6c3d06a28,61364913abe485af986c3726,"[""period""]",0,[0.24320000004769327],13,0,13,0,1
,,,,,,,5e67be06787413064d677ef9,,,,,,5e67be06787413064d677ef9,Mężczyzna,24,2021-09-06_19h00.30.713,rantool2,2021.1.4,Win32,60.0132029,6135e006383e6ea6c3d06a28,61364913abe485af986c3726,"[""period"",""comma""]",0,"[0.18919999992849057,1.938699999928474]",14,0,14,0,1
,,,,,,,5e67be06787413064d677ef9,,,,,,5e67be06787413064d677ef9,Mężczyzna,24,2021-09-06_19h00.30.713,rantool2,2021.1.4,Win32,60.0132029,6135e006383e6ea6c3d06a28,61364913abe485af986c3726,0,0,,15,0,15,0,1
,,,,,,,5e67be06787413064d677ef9,,,,,,5e67be06787413064d677ef9,Mężczyzna,24,2021-09-06_19h00.30.713,rantool2,2021.1.4,Win32,60.0132029,6135e006383e6ea6c3d06a28,61364913abe485af986c3726,"[""comma""]",0,[0.05610000002386073],16,0,16,0,1
,,,,,,,5e67be06787413064d677ef9,,,,,,5e67be06787413064d677ef9,Mężczyzna,24,2021-09-06_19h00.30.713,rantool2,2021.1.4,Win32,60.0132029,6135e006383e6ea6c3d06a28,61364913abe485af986c3726,"[""comma""]",0,[0.08899999999999864],17,0,17,0,1
,,,,,,,5e67be06787413064d677ef9,,,,,,5e67be06787413064d677ef9,Mężczyzna,24,2021-09-06_19h00.30.713,rantool2,2021.1.4,Win32,60.0132029,6135e006383e6ea6c3d06a28,61364913abe485af986c3726,"[""period""]",0,[0.25459999990462734],18,0,18,0,1
,,,,,,,5e67be06787413064d677ef9,,,,,,5e67be06787413064d677ef9,Mężczyzna,24,2021-09-06_19h00.30.713,rantool2,2021.1.4,Win32,60.0132029,6135e006383e6ea6c3d06a28,61364913abe485af986c3726,"[""comma""]",0,[0.23780000007150193],19,0,19,0,1
,,,,,,,5e67be06787413064d677ef9,,,,,,5e67be06787413064d677ef9,Mężczyzna,24,2021-09-06_19h00.30.713,rantool2,2021.1.4,Win32,60.0132029,6135e006383e6ea6c3d06a28,61364913abe485af986c3726,"[""period""]",0,[0.2669999999999959],20,0,20,0,1
,,,,,,,5e67be06787413064d677ef9,,,,,,5e67be06787413064d677ef9,Mężczyzna,24,2021-09-06_19h00.30.713,rantool2,2021.1.4,Win32,60.0132029,6135e006383e6ea6c3d06a28,61364913abe485af986c3726,"[""period""]",0,[0.20189999997614905],21,0,21,0,1
,,,,,,,5e67be06787413064d677ef9,,,,,,5e67be06787413064d677ef9,Mężczyzna,24,2021-09-06_19h00.30.713,rantool2,2021.1.4,Win32,60.0132029,6135e006383e6ea6c3d06a28,61364913abe485af986c3726,"[""comma""]",0,[0.27640000009535015],22,0,22,0,1
,,,,,,,5e67be06787413064d677ef9,,,,,,5e67be06787413064d677ef9,Mężczyzna,24,2021-09-06_19h00.30.713,rantool2,2021.1.4,Win32,60.0132029,6135e006383e6ea6c3d06a28,61364913abe485af986c3726,"[""comma""]",0,[0.21980000007152967],23,0,23,0,1
,,,,,,,5e67be06787413064d677ef9,,,,,,5e67be06787413064d677ef9,Mężczyzna,24,2021-09-06_19h00.30.713,rantool2,2021.1.4,Win32,60.0132029,6135e006383e6ea6c3d06a28,61364913abe485af986c3726,"[""comma"",""comma""]",0,"[0.09979999995232447,1.91729999995232]",24,0,24,0,1
,,,,,,,5e67be06787413064d677ef9,,,,,,5e67be06787413064d677ef9,Mężczyzna,24,2021-09-06_19h00.30.713,rantool2,2021.1.4,Win32,60.0132029,6135e006383e6ea6c3d06a28,61364913abe485af986c3726,0,0,,25,0,25,0,1
,,,,,,,5e67be06787413064d677ef9,,,,,,5e67be06787413064d677ef9,Mężczyzna,24,2021-09-06_19h00.30.713,rantool2,2021.1.4,Win32,60.0132029,6135e006383e6ea6c3d06a28,61364913abe485af986c3726,"[""comma""]",0,[0.3499999999999659],26,0,26,0,1
,,,,,,,5e67be06787413064d677ef9,,,,,,5e67be06787413064d677ef9,Mężczyzna,24,2021-09-06_19h00.30.713,rantool2,2021.1.4,Win32,60.0132029,6135e006383e6ea6c3d06a28,61364913abe485af986c3726,"[""period""]",0,[0.34570000004771373],27,0,27,0,1
,,,,,,,5e67be06787413064d677ef9,,,,,,5e67be06787413064d677ef9,Mężczyzna,24,2021-09-06_19h00.30.713,rantool2,2021.1.4,Win32,60.0132029,6135e006383e6ea6c3d06a28,61364913abe485af986c3726,"[""period""]",0,[0.29680000007152785],28,0,28,0,1
,,,,,,,5e67be06787413064d677ef9,,,,,,5e67be06787413064d677ef9,Mężczyzna,24,2021-09-06_19h00.30.713,rantool2,2021.1.4,Win32,60.0132029,6135e006383e6ea6c3d06a28,61364913abe485af986c3726,"[""period""]",0,[0.3236000000238164],29,0,29,0,1
,,,,,,,5e67be06787413064d677ef9,,,,,,5e67be06787413064d677ef9,Mężczyzna,24,2021-09-06_19h00.30.713,rantool2,2021.1.4,Win32,60.0132029,6135e006383e6ea6c3d06a28,61364913abe485af986c3726,"[""comma""]",0,[0.45010000002383777],30,0,30,0,1
,,,,,,,5e67be06787413064d677ef9,,,,,,5e67be06787413064d677ef9,Mężczyzna,24,2021-09-06_19h00.30.713,rantool2,2021.1.4,Win32,60.0132029,6135e006383e6ea6c3d06a28,61364913abe485af986c3726,"[""period""]",0,[0.367999999999995],31,0,31,0,1
,,,,,,,5e67be06787413064d677ef9,,,,,,5e67be06787413064d677ef9,Mężczyzna,24,2021-09-06_19h00.30.713,rantool2,2021.1.4,Win32,60.0132029,6135e006383e6ea6c3d06a28,61364913abe485af986c3726,"[""comma""]",0,[0.2383999999761386],32,0,32,0,1
,,,,,,,5e67be06787413064d677ef9,,,,,,5e67be06787413064d677ef9,Mężczyzna,24,2021-09-06_19h00.30.713,rantool2,2021.1.4,Win32,60.0132029,6135e006383e6ea6c3d06a28,61364913abe485af986c3726,"[""comma""]",0,[0.25839999997617724],33,0,33,0,1
,,,,,,,5e67be06787413064d677ef9,,,,,,5e67be06787413064d677ef9,Mężczyzna,24,2021-09-06_19h00.30.713,rantool2,2021.1.4,Win32,60.0132029,6135e006383e6ea6c3d06a28,61364913abe485af986c3726,"[""comma""]",0,[0.2711000000238073],34,0,34,0,1
,,,,,,,5e67be06787413064d677ef9,,,,,,5e67be06787413064d677ef9,Mężczyzna,24,2021-09-06_19h00.30.713,rantool2,2021.1.4,Win32,60.0132029,6135e006383e6ea6c3d06a28,61364913abe485af986c3726,"[""period""]",0,[0.21739999997618042],35,0,35,0,1
,,,,,,,5e67be06787413064d677ef9,,,,,,5e67be06787413064d677ef9,Mężczyzna,24,2021-09-06_19h00.30.713,rantool2,2021.1.4,Win32,60.0132029,6135e006383e6ea6c3d06a28,61364913abe485af986c3726,"[""period"",""comma""]",0,"[0.17349999999999,1.8262999999523117]",36,0,36,0,1
,,,,,,,5e67be06787413064d677ef9,,,,,,5e67be06787413064d677ef9,Mężczyzna,24,2021-09-06_19h00.30.713,rantool2,2021.1.4,Win32,60.0132029,6135e006383e6ea6c3d06a28,61364913abe485af986c3726,"[""comma""]",0,[0.6852999999522922],37,0,37,0,1
,,,,,,,5e67be06787413064d677ef9,,,,,,5e67be06787413064d677ef9,Mężczyzna,24,2021-09-06_19h00.30.713,rantool2,2021.1.4,Win32,60.0132029,6135e006383e6ea6c3d06a28,61364913abe485af986c3726,"[""period""]",0,[0.4916999999285281],38,0,38,0,1
,,,,,,,5e67be06787413064d677ef9,,,,,,5e67be06787413064d677ef9,Mężczyzna,24,2021-09-06_19h00.30.713,rantool2,2021.1.4,Win32,60.0132029,6135e006383e6ea6c3d06a28,61364913abe485af986c3726,"[""period""]",0,[0.3588999999761313],39,0,39,0,1
,,,,,,,5e67be06787413064d677ef9,,,,,,5e67be06787413064d677ef9,Mężczyzna,24,2021-09-06_19h00.30.713,rantool2,2021.1.4,Win32,60.0132029,6135e006383e6ea6c3d06a28,61364913abe485af986c3726,"[""period""]",0,[0.3410000000000082],40,0,40,0,1
,,,,,,,5e67be06787413064d677ef9,,,,,,5e67be06787413064d677ef9,Mężczyzna,24,2021-09-06_19h00.30.713,rantool2,2021.1.4,Win32,60.0132029,6135e006383e6ea6c3d06a28,61364913abe485af986c3726,"[""period""]",0,[0.3798999999761463],41,0,41,0,1
,,,,,,,5e67be06787413064d677ef9,,,,,,5e67be06787413064d677ef9,Mężczyzna,24,2021-09-06_19h00.30.713,rantool2,2021.1.4,Win32,60.0132029,6135e006383e6ea6c3d06a28,61364913abe485af986c3726,"[""period""]",0,[0.2676000000238332],42,0,42,0,1
,,,,,,,5e67be06787413064d677ef9,,,,,,5e67be06787413064d677ef9,Mężczyzna,24,2021-09-06_19h00.30.713,rantool2,2021.1.4,Win32,60.0132029,6135e006383e6ea6c3d06a28,61364913abe485af986c3726,"[""period""]",0,[0.25970000004764415],43,0,43,0,1
,,,,,,,5e67be06787413064d677ef9,,,,,,5e67be06787413064d677ef9,Mężczyzna,24,2021-09-06_19h00.30.713,rantool2,2021.1.4,Win32,60.0132029,6135e006383e6ea6c3d06a28,61364913abe485af986c3726,"[""period""]",0,[0.3708999999761886],44,0,44,0,1
,,,,,,,5e67be06787413064d677ef9,,,,,,5e67be06787413064d677ef9,Mężczyzna,24,2021-09-06_19h00.30.713,rantool2,2021.1.4,Win32,60.0132029,6135e006383e6ea6c3d06a28,61364913abe485af986c3726,"[""period""]",0,[0.3065000000000282],45,0,45,0,1
,,,,,,,5e67be06787413064d677ef9,,,,,,5e67be06787413064d677ef9,Mężczyzna,24,2021-09-06_19h00.30.713,rantool2,2021.1.4,Win32,60.0132029,6135e006383e6ea6c3d06a28,61364913abe485af986c3726,"[""comma""]",0,[0.36810000002384413],46,0,46,0,1
,,,,,,,5e67be06787413064d677ef9,,,,,,5e67be06787413064d677ef9,Mężczyzna,24,2021-09-06_19h00.30.713,rantool2,2021.1.4,Win32,60.0132029,6135e006383e6ea6c3d06a28,61364913abe485af986c3726,"[""comma""]",0,[0.2856000000238055],47,0,47,0,1
,,,,,,,5e67be06787413064d677ef9,,,,,,5e67be06787413064d677ef9,Mężczyzna,24,2021-09-06_19h00.30.713,rantool2,2021.1.4,Win32,60.0132029,6135e006383e6ea6c3d06a28,61364913abe485af986c3726,"[""period""]",0,[0.27549999999996544],48,0,48,0,1
,,,,,,,5e67be06787413064d677ef9,,,,,,5e67be06787413064d677ef9,Mężczyzna,24,2021-09-06_19h00.30.713,rantool2,2021.1.4,Win32,60.0132029,6135e006383e6ea6c3d06a28,61364913abe485af986c3726,"[""period""]",0,[0.2691000000238546],49,0,49,0,1
,,,,,,,5e67be06787413064d677ef9,,,,,,5e67be06787413064d677ef9,Mężczyzna,24,2021-09-06_19h00.30.713,rantool2,2021.1.4,Win32,60.0132029,6135e006383e6ea6c3d06a28,61364913abe485af986c3726,"[""period""]",0,[0.3343999999761422],50,0,50,0,1
,,,,,,,5e67be06787413064d677ef9,,,,,,5e67be06787413064d677ef9,Mężczyzna,24,2021-09-06_19h00.30.713,rantool2,2021.1.4,Win32,60.0132029,6135e006383e6ea6c3d06a28,61364913abe485af986c3726,"[""period""]",0,[0.3996000000238382],51,0,51,0,1
,,,,,,,5e67be06787413064d677ef9,,,,,,5e67be06787413064d677ef9,Mężczyzna,24,2021-09-06_19h00.30.713,rantool2,2021.1.4,Win32,60.0132029,6135e006383e6ea6c3d06a28,61364913abe485af986c3726,"[""comma""]",0,[0.36660000002382276],52,0,52,0,1
,,,,,,,5e67be06787413064d677ef9,,,,,,5e67be06787413064d677ef9,Mężczyzna,24,2021-09-06_19h00.30.713,rantool2,2021.1.4,Win32,60.0132029,6135e006383e6ea6c3d06a28,61364913abe485af986c3726,"[""period""]",0,[0.37589999997618406],53,0,53,0,1
,,,,,,,5e67be06787413064d677ef9,,,,,,5e67be06787413064d677ef9,Mężczyzna,24,2021-09-06_19h00.30.713,rantool2,2021.1.4,Win32,60.0132029,6135e006383e6ea6c3d06a28,61364913abe485af986c3726,"[""period""]",0,[0.32150000000001455],54,0,54,0,1
,,,,,,,5e67be06787413064d677ef9,,,,,,5e67be06787413064d677ef9,Mężczyzna,24,2021-09-06_19h00.30.713,rantool2,2021.1.4,Win32,60.0132029,6135e006383e6ea6c3d06a28,61364913abe485af986c3726,"[""comma""]",0,[0.2829999999999586],55,0,55,0,1
,,,,,,,5e67be06787413064d677ef9,,,,,,5e67be06787413064d677ef9,Mężczyzna,24,2021-09-06_19h00.30.713,rantool2,2021.1.4,Win32,60.0132029,6135e006383e6ea6c3d06a28,61364913abe485af986c3726,"[""comma""]",0,[0.4045000000000414],56,0,56,0,1
,,,,,,,5e67be06787413064d677ef9,,,,,,5e67be06787413064d677ef9,Mężczyzna,24,2021-09-06_19h00.30.713,rantool2,2021.1.4,Win32,60.0132029,6135e006383e6ea6c3d06a28,61364913abe485af986c3726,"[""period""]",0,[0.36980000007150693],57,0,57,0,1
,,,,,,,5e67be06787413064d677ef9,,,,,,5e67be06787413064d677ef9,Mężczyzna,24,2021-09-06_19h00.30.713,rantool2,2021.1.4,Win32,60.0132029,6135e006383e6ea6c3d06a28,61364913abe485af986c3726,"[""comma""]",0,[0.28600000000000136],58,0,58,0,1
,,,,,,,5e67be06787413064d677ef9,,,,,,5e67be06787413064d677ef9,Mężczyzna,24,2021-09-06_19h00.30.713,rantool2,2021.1.4,Win32,60.0132029,6135e006383e6ea6c3d06a28,61364913abe485af986c3726,"[""period""]",0,[0.4064999999999941],59,0,59,0,1
,,,,,,,5e67be06787413064d677ef9,,,,,,5e67be06787413064d677ef9,Mężczyzna,24,2021-09-06_19h00.30.713,rantool2,2021.1.4,Win32,60.0132029,6135e006383e6ea6c3d06a28,61364913abe485af986c3726,"[""comma""]",0,[0.45559999990462074],60,0,60,0,1
,,,,,,,5e67be06787413064d677ef9,,,,,,5e67be06787413064d677ef9,Mężczyzna,24,2021-09-06_19h00.30.713,rantool2,2021.1.4,Win32,60.0132029,6135e006383e6ea6c3d06a28,61364913abe485af986c3726,"[""comma""]",0,[0.39989999997618497],61,0,61,0,1
,,,,,,,5e67be06787413064d677ef9,,,,,,5e67be06787413064d677ef9,Mężczyzna,24,2021-09-06_19h00.30.713,rantool2,2021.1.4,Win32,60.0132029,6135e006383e6ea6c3d06a28,61364913abe485af986c3726,"[""comma""]",0,[0.3052000000477051],62,0,62,0,1
,,,,,,,5e67be06787413064d677ef9,,,,,,5e67be06787413064d677ef9,Mężczyzna,24,2021-09-06_19h00.30.713,rantool2,2021.1.4,Win32,60.0132029,6135e006383e6ea6c3d06a28,61364913abe485af986c3726,"[""period""]",0,[0.2546999999285049],63,0,63,0,1
,,,,,,,5e67be06787413064d677ef9,,,,,,5e67be06787413064d677ef9,Mężczyzna,24,2021-09-06_19h00.30.713,rantool2,2021.1.4,Win32,60.0132029,6135e006383e6ea6c3d06a28,61364913abe485af986c3726,"[""period""]",0,[0.2939999999999827],64,0,64,0,1
,,,,,,,5e67be06787413064d677ef9,,,,,,5e67be06787413064d677ef9,Mężczyzna,24,2021-09-06_19h00.30.713,rantool2,2021.1.4,Win32,60.0132029,6135e006383e6ea6c3d06a28,61364913abe485af986c3726,"[""period""]",0,[0.23599999999999],65,0,65,0,1
,,,,,,,5e67be06787413064d677ef9,,,,,,5e67be06787413064d677ef9,Mężczyzna,24,2021-09-06_19h00.30.713,rantool2,2021.1.4,Win32,60.0132029,6135e006383e6ea6c3d06a28,61364913abe485af986c3726,"[""period""]",0,[0.27329999995231447],66,0,66,0,1
,,,,,,,5e67be06787413064d677ef9,,,,,,5e67be06787413064d677ef9,Mężczyzna,24,2021-09-06_19h00.30.713,rantool2,2021.1.4,Win32,60.0132029,6135e006383e6ea6c3d06a28,61364913abe485af986c3726,"[""comma""]",0,[0.3543000000715324],67,0,67,0,1
,,,,,,,5e67be06787413064d677ef9,,,,,,5e67be06787413064d677ef9,Mężczyzna,24,2021-09-06_19h00.30.713,rantool2,2021.1.4,Win32,60.0132029,6135e006383e6ea6c3d06a28,61364913abe485af986c3726,"[""comma""]",0,[0.35170000004768553],68,0,68,0,1
,,,,,,,5e67be06787413064d677ef9,,,,,,5e67be06787413064d677ef9,Mężczyzna,24,2021-09-06_19h00.30.713,rantool2,2021.1.4,Win32,60.0132029,6135e006383e6ea6c3d06a28,61364913abe485af986c3726,"[""comma""]",0,[0.23439999997617633],69,0,69,0,1
,,,,,,,5e67be06787413064d677ef9,,,,,,5e67be06787413064d677ef9,Mężczyzna,24,2021-09-06_19h00.30.713,rantool2,2021.1.4,Win32,60.0132029,6135e006383e6ea6c3d06a28,61364913abe485af986c3726,"[""comma""]",0,[0.29920000004767644],70,0,70,0,1
,,,,,,,5e67be06787413064d677ef9,,,,,,5e67be06787413064d677ef9,Mężczyzna,24,2021-09-06_19h00.30.713,rantool2,2021.1.4,Win32,60.0132029,6135e006383e6ea6c3d06a28,61364913abe485af986c3726,"[""comma""]",0,[0.3018999999761718],71,0,71,0,1
,,,,,,,5e67be06787413064d677ef9,,,,,,5e67be06787413064d677ef9,Mężczyzna,24,2021-09-06_19h00.30.713,rantool2,2021.1.4,Win32,60.0132029,6135e006383e6ea6c3d06a28,61364913abe485af986c3726,"[""comma""]",0,[0.2604999999999791],72,0,72,0,1
,,,,,,,5e67be06787413064d677ef9,,,,,,5e67be06787413064d677ef9,Mężczyzna,24,2021-09-06_19h00.30.713,rantool2,2021.1.4,Win32,60.0132029,6135e006383e6ea6c3d06a28,61364913abe485af986c3726,"[""comma""]",0,[0.2708000000715174],73,0,73,0,1
,,,,,,,5e67be06787413064d677ef9,,,,,,5e67be06787413064d677ef9,Mężczyzna,24,2021-09-06_19h00.30.713,rantool2,2021.1.4,Win32,60.0132029,6135e006383e6ea6c3d06a28,61364913abe485af986c3726,"[""period""]",0,[0.24149999999997362],74,0,74,0,1
,,,,,,,5e67be06787413064d677ef9,,,,,,5e67be06787413064d677ef9,Mężczyzna,24,2021-09-06_19h00.30.713,rantool2,2021.1.4,Win32,60.0132029,6135e006383e6ea6c3d06a28,61364913abe485af986c3726,"[""comma""]",0,[0.24439999997616724],75,0,75,0,1
,,,,,,,5e67be06787413064d677ef9,,,,,,5e67be06787413064d677ef9,Mężczyzna,24,2021-09-06_19h00.30.713,rantool2,2021.1.4,Win32,60.0132029,6135e006383e6ea6c3d06a28,61364913abe485af986c3726,"[""period""]",0,[0.24919999992852127],76,0,76,0,1
,,,,,,,5e67be06787413064d677ef9,,,,,,5e67be06787413064d677ef9,Mężczyzna,24,2021-09-06_19h00.30.713,rantool2,2021.1.4,Win32,60.0132029,6135e006383e6ea6c3d06a28,61364913abe485af986c3726,"[""comma""]",0,[0.28640000009534106],77,0,77,0,1
,,,,,,,5e67be06787413064d677ef9,,,,,,5e67be06787413064d677ef9,Mężczyzna,24,2021-09-06_19h00.30.713,rantool2,2021.1.4,Win32,60.0132029,6135e006383e6ea6c3d06a28,61364913abe485af986c3726,"[""period""]",0,[0.43760000002384913],78,0,78,0,1
,,,,,,,5e67be06787413064d677ef9,,,,,,5e67be06787413064d677ef9,Mężczyzna,24,2021-09-06_19h00.30.713,rantool2,2021.1.4,Win32,60.0132029,6135e006383e6ea6c3d06a28,61364913abe485af986c3726,"[""comma""]",0,[0.3678999999762027],79,0,79,0,1
,,,,,,,5e67be06787413064d677ef9,,,,,,5e67be06787413064d677ef9,Mężczyzna,24,2021-09-06_19h00.30.713,rantool2,2021.1.4,Win32,60.0132029,6135e006383e6ea6c3d06a28,61364913abe485af986c3726,"[""period""]",0,[0.26310000002382594],80,0,80,0,1
,,,,,,,5e67be06787413064d677ef9,,,,,,5e67be06787413064d677ef9,Mężczyzna,24,2021-09-06_19h00.30.713,rantool2,2021.1.4,Win32,60.0132029,6135e006383e6ea6c3d06a28,61364913abe485af986c3726,"[""period""]",0,[0.26779999995233084],81,0,81,0,1
,,,,,,,5e67be06787413064d677ef9,,,,,,5e67be06787413064d677ef9,Mężczyzna,24,2021-09-06_19h00.30.713,rantool2,2021.1.4,Win32,60.0132029,6135e006383e6ea6c3d06a28,61364913abe485af986c3726,"[""comma""]",0,[0.2679000000953806],82,0,82,0,1
,,,,,,,5e67be06787413064d677ef9,,,,,,5e67be06787413064d677ef9,Mężczyzna,24,2021-09-06_19h00.30.713,rantool2,2021.1.4,Win32,60.0132029,6135e006383e6ea6c3d06a28,61364913abe485af986c3726,"[""comma""]",0,[0.26949999999999363],83,0,83,0,1
,,,,,,,5e67be06787413064d677ef9,,,,,,5e67be06787413064d677ef9,Mężczyzna,24,2021-09-06_19h00.30.713,rantool2,2021.1.4,Win32,60.0132029,6135e006383e6ea6c3d06a28,61364913abe485af986c3726,"[""comma""]",0,[0.24200000000001864],84,0,84,0,1
,,,,,,,5e67be06787413064d677ef9,,,,,,5e67be06787413064d677ef9,Mężczyzna,24,2021-09-06_19h00.30.713,rantool2,2021.1.4,Win32,60.0132029,6135e006383e6ea6c3d06a28,61364913abe485af986c3726,"[""comma""]",0,[0.28569999992845396],85,0,85,0,1
,,,,,,,5e67be06787413064d677ef9,,,,,,5e67be06787413064d677ef9,Mężczyzna,24,2021-09-06_19h00.30.713,rantool2,2021.1.4,Win32,60.0132029,6135e006383e6ea6c3d06a28,61364913abe485af986c3726,"[""period""]",0,[0.3086999999284217],86,0,86,0,1
,,,,,,,5e67be06787413064d677ef9,,,,,,5e67be06787413064d677ef9,Mężczyzna,24,2021-09-06_19h00.30.713,rantool2,2021.1.4,Win32,60.0132029,6135e006383e6ea6c3d06a28,61364913abe485af986c3726,"[""period""]",0,[0.3358999999761636],87,0,87,0,1
,,,,,,,5e67be06787413064d677ef9,,,,,,5e67be06787413064d677ef9,Mężczyzna,24,2021-09-06_19h00.30.713,rantool2,2021.1.4,Win32,60.0132029,6135e006383e6ea6c3d06a28,61364913abe485af986c3726,"[""period""]",0,[0.2703999999761777],88,0,88,0,1
,,,,,,,5e67be06787413064d677ef9,,,,,,5e67be06787413064d677ef9,Mężczyzna,24,2021-09-06_19h00.30.713,rantool2,2021.1.4,Win32,60.0132029,6135e006383e6ea6c3d06a28,61364913abe485af986c3726,"[""period""]",0,[0.5121000000238496],89,0,89,0,1
,,,,,,,5e67be06787413064d677ef9,,,,,,5e67be06787413064d677ef9,Mężczyzna,24,2021-09-06_19h00.30.713,rantool2,2021.1.4,Win32,60.0132029,6135e006383e6ea6c3d06a28,61364913abe485af986c3726,"[""period""]",0,[0.3720000000000141],90,0,90,0,1
,,,,,,,5e67be06787413064d677ef9,,,,,,5e67be06787413064d677ef9,Mężczyzna,24,2021-09-06_19h00.30.713,rantool2,2021.1.4,Win32,60.0132029,6135e006383e6ea6c3d06a28,61364913abe485af986c3726,"[""comma""]",0,[0.3433999999761568],91,0,91,0,1
,,,,,,,5e67be06787413064d677ef9,,,,,,5e67be06787413064d677ef9,Mężczyzna,24,2021-09-06_19h00.30.713,rantool2,2021.1.4,Win32,60.0132029,6135e006383e6ea6c3d06a28,61364913abe485af986c3726,"[""comma""]",0,[0.3575000000000159],92,0,92,0,1
,,,,,,,5e67be06787413064d677ef9,,,,,,5e67be06787413064d677ef9,Mężczyzna,24,2021-09-06_19h00.30.713,rantool2,2021.1.4,Win32,60.0132029,6135e006383e6ea6c3d06a28,61364913abe485af986c3726,"[""comma""]",0,[0.31089999997618634],93,0,93,0,1
,,,,,,,5e67be06787413064d677ef9,,,,,,5e67be06787413064d677ef9,Mężczyzna,24,2021-09-06_19h00.30.713,rantool2,2021.1.4,Win32,60.0132029,6135e006383e6ea6c3d06a28,61364913abe485af986c3726,"[""comma""]",0,[0.25679999995230673],94,0,94,0,1
,,,,,,,5e67be06787413064d677ef9,,,,,,5e67be06787413064d677ef9,Mężczyzna,24,2021-09-06_19h00.30.713,rantool2,2021.1.4,Win32,60.0132029,6135e006383e6ea6c3d06a28,61364913abe485af986c3726,"[""comma"",""comma""]",0,"[0.11710000002381094,1.9352000000477005]",95,0,95,0,1
,,,,,,,5e67be06787413064d677ef9,,,,,,5e67be06787413064d677ef9,Mężczyzna,24,2021-09-06_19h00.30.713,rantool2,2021.1.4,Win32,60.0132029,6135e006383e6ea6c3d06a28,61364913abe485af986c3726,0,0,,96,0,96,0,1
,,,,,,,5e67be06787413064d677ef9,,,,,,5e67be06787413064d677ef9,Mężczyzna,24,2021-09-06_19h00.30.713,rantool2,2021.1.4,Win32,60.0132029,6135e006383e6ea6c3d06a28,61364913abe485af986c3726,"[""period""]",0,[0.3365000000000009],97,0,97,0,1
,,,,,,,5e67be06787413064d677ef9,,,,,,5e67be06787413064d677ef9,Mężczyzna,24,2021-09-06_19h00.30.713,rantool2,2021.1.4,Win32,60.0132029,6135e006383e6ea6c3d06a28,61364913abe485af986c3726,"[""comma""]",0,[0.2950000000000159],98,0,98,0,1
,,,,,,,5e67be06787413064d677ef9,,,,,,5e67be06787413064d677ef9,Mężczyzna,24,2021-09-06_19h00.30.713,rantool2,2021.1.4,Win32,60.0132029,6135e006383e6ea6c3d06a28,61364913abe485af986c3726,"[""period""]",0,[0.2868999999761854],99,0,99,0,1
,,,,,,,5e67be06787413064d677ef9,,,,,,5e67be06787413064d677ef9,Mężczyzna,24,2021-09-06_19h00.30.713,rantool2,2021.1.4,Win32,60.0132029,6135e006383e6ea6c3d06a28,61364913abe485af986c3726,"[""comma""]",0,[0.2703999999761777],100,0,100,0,1
,,,,,,,5e67be06787413064d677ef9,,,,,,5e67be06787413064d677ef9,Mężczyzna,24,2021-09-06_19h00.30.713,rantool2,2021.1.4,Win32,60.0132029,6135e006383e6ea6c3d06a28,61364913abe485af986c3726,"[""comma""]",0,[0.27600000000001046],101,0,101,0,1
,,,,,,,5e67be06787413064d677ef9,,,,,,5e67be06787413064d677ef9,Mężczyzna,24,2021-09-06_19h00.30.713,rantool2,2021.1.4,Win32,60.0132029,6135e006383e6ea6c3d06a28,61364913abe485af986c3726,"[""comma""]",0,[0.24989999997615087],102,0,102,0,1
,,,,,,,5e67be06787413064d677ef9,,,,,,5e67be06787413064d677ef9,Mężczyzna,24,2021-09-06_19h00.30.713,rantool2,2021.1.4,Win32,60.0132029,6135e006383e6ea6c3d06a28,61364913abe485af986c3726,"[""comma""]",0,[0.23429999995227035],103,0,103,0,1
,,,,,,,5e67be06787413064d677ef9,,,,,,5e67be06787413064d677ef9,Mężczyzna,24,2021-09-06_19h00.30.713,rantool2,2021.1.4,Win32,60.0132029,6135e006383e6ea6c3d06a28,61364913abe485af986c3726,"[""period""]",0,[0.25119999992847397],104,0,104,0,1
,,,,,,,5e67be06787413064d677ef9,,,,,,5e67be06787413064d677ef9,Mężczyzna,24,2021-09-06_19h00.30.713,rantool2,2021.1.4,Win32,60.0132029,6135e006383e6ea6c3d06a28,61364913abe485af986c3726,"[""comma""]",0,[0.27770000004767326],105,0,105,0,1
,,,,,,,5e67be06787413064d677ef9,,,,,,5e67be06787413064d677ef9,Mężczyzna,24,2021-09-06_19h00.30.713,rantool2,2021.1.4,Win32,60.0132029,6135e006383e6ea6c3d06a28,61364913abe485af986c3726,"[""comma""]",0,[0.35449999999997317],106,0,106,0,1
,,,,,,,5e67be06787413064d677ef9,,,,,,5e67be06787413064d677ef9,Mężczyzna,24,2021-09-06_19h00.30.713,rantool2,2021.1.4,Win32,60.0132029,6135e006383e6ea6c3d06a28,61364913abe485af986c3726,"[""comma""]",0,[0.30389999997618133],107,0,107,0,1
,,,,,,,5e67be06787413064d677ef9,,,,,,5e67be06787413064d677ef9,Mężczyzna,24,2021-09-06_19h00.30.713,rantool2,2021.1.4,Win32,60.0132029,6135e006383e6ea6c3d06a28,61364913abe485af986c3726,"[""period""]",0,[0.26660000002385686],108,0,108,0,1
,,,,,,,5e67be06787413064d677ef9,,,,,,5e67be06787413064d677ef9,Mężczyzna,24,2021-09-06_19h00.30.713,rantool2,2021.1.4,Win32,60.0132029,6135e006383e6ea6c3d06a28,61364913abe485af986c3726,"[""period""]",0,[0.3207999999523281],109,0,109,0,1
,,,,,,,5e67be06787413064d677ef9,,,,,,5e67be06787413064d677ef9,Mężczyzna,24,2021-09-06_19h00.30.713,rantool2,2021.1.4,Win32,60.0132029,6135e006383e6ea6c3d06a28,61364913abe485af986c3726,"[""period""]",0,[0.2988000000715374],110,0,110,0,1
,,,,,,,5e67be06787413064d677ef9,,,,,,5e67be06787413064d677ef9,Mężczyzna,24,2021-09-06_19h00.30.713,rantool2,2021.1.4,Win32,60.0132029,6135e006383e6ea6c3d06a28,61364913abe485af986c3726,"[""period""]",0,[0.23649999999997817],111,0,111,0,1
,,,,,,,5e67be06787413064d677ef9,,,,,,5e67be06787413064d677ef9,Mężczyzna,24,2021-09-06_19h00.30.713,rantool2,2021.1.4,Win32,60.0132029,6135e006383e6ea6c3d06a28,61364913abe485af986c3726,"[""comma""]",0,[0.2207999999523622],112,0,112,0,1
,,,,,,,5e67be06787413064d677ef9,,,,,,5e67be06787413064d677ef9,Mężczyzna,24,2021-09-06_19h00.30.713,rantool2,2021.1.4,Win32,60.0132029,6135e006383e6ea6c3d06a28,61364913abe485af986c3726,"[""comma""]",0,[0.2383000000714901],113,0,113,0,1
,,,,,,,5e67be06787413064d677ef9,,,,,,5e67be06787413064d677ef9,Mężczyzna,24,2021-09-06_19h00.30.713,rantool2,2021.1.4,Win32,60.0132029,6135e006383e6ea6c3d06a28,61364913abe485af986c3726,"[""comma""]",0,[0.3197000000476464],114,0,114,0,1
,,,,,,,5e67be06787413064d677ef9,,,,,,5e67be06787413064d677ef9,Mężczyzna,24,2021-09-06_19h00.30.713,rantool2,2021.1.4,Win32,60.0132029,6135e006383e6ea6c3d06a28,61364913abe485af986c3726,"[""period""]",0,[0.40639999997614495],115,0,115,0,1
,,,,,,,5e67be06787413064d677ef9,,,,,,5e67be06787413064d677ef9,Mężczyzna,24,2021-09-06_19h00.30.713,rantool2,2021.1.4,Win32,60.0132029,6135e006383e6ea6c3d06a28,61364913abe485af986c3726,"[""comma""]",0,[0.3164000000953706],116,0,116,0,1
,,,,,,,5e67be06787413064d677ef9,,,,,,5e67be06787413064d677ef9,Mężczyzna,24,2021-09-06_19h00.30.713,rantool2,2021.1.4,Win32,60.0132029,6135e006383e6ea6c3d06a28,61364913abe485af986c3726,"[""comma""]",0,[0.45470000004763733],117,0,117,0,1
,,,,,,,5e67be06787413064d677ef9,,,,,,5e67be06787413064d677ef9,Mężczyzna,24,2021-09-06_19h00.30.713,rantool2,2021.1.4,Win32,60.0132029,6135e006383e6ea6c3d06a28,61364913abe485af986c3726,"[""comma""]",0,[0.34930000007153694],118,0,118,0,1
,,,,,,,5e67be06787413064d677ef9,,,,,,5e67be06787413064d677ef9,Mężczyzna,24,2021-09-06_19h00.30.713,rantool2,2021.1.4,Win32,60.0132029,6135e006383e6ea6c3d06a28,61364913abe485af986c3726,"[""comma""]",0,[0.3883999999761727],119,0,119,0,1
