key_resp_5.keys,key_resp_5.corr,key_resp_5.rt,trials.thisRepN,trials.thisTrialN,trials.thisN,trials.thisIndex,trials.ran,id*,Płeć*,Wiek*,date,expName,psychopyVersion,OS,frameRate,id,STUDY_ID,SESSION_ID,key_resp_7.keys,key_resp_7.rt,trials_2.thisRepN,trials_2.thisTrialN,trials_2.thisN,trials_2.thisIndex,trials_2.ran,series_0,series_1,acss_0,acss_1,comparison
"[""comma""]",0,[1.3359999999999985],0,0,0,0,1,60d998951d34faf31fa0f85d,Mężczyzna,23,2021-07-13_21h50.55.122,rantool2,2021.1.4,Win32,74.96251874,60d998951d34faf31fa0f85d,60d9d14f4a8a35a482e0d9bf,60edee8989e46a0fc67a28c8,,,,,,,,,,,,
"[""comma""]",0,[0.9399999999999977],1,0,1,0,1,60d998951d34faf31fa0f85d,Mężczyzna,23,2021-07-13_21h50.55.122,rantool2,2021.1.4,Win32,74.96251874,60d998951d34faf31fa0f85d,60d9d14f4a8a35a482e0d9bf,60edee8989e46a0fc67a28c8,,,,,,,,,,,,
"[""comma""]",0,[0.6479999999999961],2,0,2,0,1,60d998951d34faf31fa0f85d,Mężczyzna,23,2021-07-13_21h50.55.122,rantool2,2021.1.4,Win32,74.96251874,60d998951d34faf31fa0f85d,60d9d14f4a8a35a482e0d9bf,60edee8989e46a0fc67a28c8,,,,,,,,,,,,
"[""period""]",0,[0.27299999999999613],3,0,3,0,1,60d998951d34faf31fa0f85d,Mężczyzna,23,2021-07-13_21h50.55.122,rantool2,2021.1.4,Win32,74.96251874,60d998951d34faf31fa0f85d,60d9d14f4a8a35a482e0d9bf,60edee8989e46a0fc67a28c8,,,,,,,,,,,,
"[""comma""]",0,[0.29699999999999704],4,0,4,0,1,60d998951d34faf31fa0f85d,Mężczyzna,23,2021-07-13_21h50.55.122,rantool2,2021.1.4,Win32,74.96251874,60d998951d34faf31fa0f85d,60d9d14f4a8a35a482e0d9bf,60edee8989e46a0fc67a28c8,,,,,,,,,,,,
"[""period""]",0,[0.32499999999998863],5,0,5,0,1,60d998951d34faf31fa0f85d,Mężczyzna,23,2021-07-13_21h50.55.122,rantool2,2021.1.4,Win32,74.96251874,60d998951d34faf31fa0f85d,60d9d14f4a8a35a482e0d9bf,60edee8989e46a0fc67a28c8,,,,,,,,,,,,
"[""period""]",0,[0.24099999999999966],6,0,6,0,1,60d998951d34faf31fa0f85d,Mężczyzna,23,2021-07-13_21h50.55.122,rantool2,2021.1.4,Win32,74.96251874,60d998951d34faf31fa0f85d,60d9d14f4a8a35a482e0d9bf,60edee8989e46a0fc67a28c8,,,,,,,,,,,,
"[""comma""]",0,[0.21399999999999864],7,0,7,0,1,60d998951d34faf31fa0f85d,Mężczyzna,23,2021-07-13_21h50.55.122,rantool2,2021.1.4,Win32,74.96251874,60d998951d34faf31fa0f85d,60d9d14f4a8a35a482e0d9bf,60edee8989e46a0fc67a28c8,,,,,,,,,,,,
"[""comma"",""period""]",0,"[0.2709999999999866,1.8589999999999947]",8,0,8,0,1,60d998951d34faf31fa0f85d,Mężczyzna,23,2021-07-13_21h50.55.122,rantool2,2021.1.4,Win32,74.96251874,60d998951d34faf31fa0f85d,60d9d14f4a8a35a482e0d9bf,60edee8989e46a0fc67a28c8,,,,,,,,,,,,
0,0,,9,0,9,0,1,60d998951d34faf31fa0f85d,Mężczyzna,23,2021-07-13_21h50.55.122,rantool2,2021.1.4,Win32,74.96251874,60d998951d34faf31fa0f85d,60d9d14f4a8a35a482e0d9bf,60edee8989e46a0fc67a28c8,,,,,,,,,,,,
"[""comma""]",0,[0.2530000000000001],10,0,10,0,1,60d998951d34faf31fa0f85d,Mężczyzna,23,2021-07-13_21h50.55.122,rantool2,2021.1.4,Win32,74.96251874,60d998951d34faf31fa0f85d,60d9d14f4a8a35a482e0d9bf,60edee8989e46a0fc67a28c8,,,,,,,,,,,,
"[""comma""]",0,[0.2459999999999951],11,0,11,0,1,60d998951d34faf31fa0f85d,Mężczyzna,23,2021-07-13_21h50.55.122,rantool2,2021.1.4,Win32,74.96251874,60d998951d34faf31fa0f85d,60d9d14f4a8a35a482e0d9bf,60edee8989e46a0fc67a28c8,,,,,,,,,,,,
"[""comma"",""comma""]",0,"[0.15099999999999625,1.882000000000005]",12,0,12,0,1,60d998951d34faf31fa0f85d,Mężczyzna,23,2021-07-13_21h50.55.122,rantool2,2021.1.4,Win32,74.96251874,60d998951d34faf31fa0f85d,60d9d14f4a8a35a482e0d9bf,60edee8989e46a0fc67a28c8,,,,,,,,,,,,
"[""period""]",0,[1.6180000000000092],13,0,13,0,1,60d998951d34faf31fa0f85d,Mężczyzna,23,2021-07-13_21h50.55.122,rantool2,2021.1.4,Win32,74.96251874,60d998951d34faf31fa0f85d,60d9d14f4a8a35a482e0d9bf,60edee8989e46a0fc67a28c8,,,,,,,,,,,,
0,0,,14,0,14,0,1,60d998951d34faf31fa0f85d,Mężczyzna,23,2021-07-13_21h50.55.122,rantool2,2021.1.4,Win32,74.96251874,60d998951d34faf31fa0f85d,60d9d14f4a8a35a482e0d9bf,60edee8989e46a0fc67a28c8,,,,,,,,,,,,
"[""period""]",0,[0.31099999999999284],15,0,15,0,1,60d998951d34faf31fa0f85d,Mężczyzna,23,2021-07-13_21h50.55.122,rantool2,2021.1.4,Win32,74.96251874,60d998951d34faf31fa0f85d,60d9d14f4a8a35a482e0d9bf,60edee8989e46a0fc67a28c8,,,,,,,,,,,,
"[""period"",""comma""]",0,"[0.3149999999999977,1.9559999999999889]",16,0,16,0,1,60d998951d34faf31fa0f85d,Mężczyzna,23,2021-07-13_21h50.55.122,rantool2,2021.1.4,Win32,74.96251874,60d998951d34faf31fa0f85d,60d9d14f4a8a35a482e0d9bf,60edee8989e46a0fc67a28c8,,,,,,,,,,,,
0,0,,17,0,17,0,1,60d998951d34faf31fa0f85d,Mężczyzna,23,2021-07-13_21h50.55.122,rantool2,2021.1.4,Win32,74.96251874,60d998951d34faf31fa0f85d,60d9d14f4a8a35a482e0d9bf,60edee8989e46a0fc67a28c8,,,,,,,,,,,,
"[""comma""]",0,[0.41399999999998727],18,0,18,0,1,60d998951d34faf31fa0f85d,Mężczyzna,23,2021-07-13_21h50.55.122,rantool2,2021.1.4,Win32,74.96251874,60d998951d34faf31fa0f85d,60d9d14f4a8a35a482e0d9bf,60edee8989e46a0fc67a28c8,,,,,,,,,,,,
"[""comma""]",0,[0.28700000000000614],19,0,19,0,1,60d998951d34faf31fa0f85d,Mężczyzna,23,2021-07-13_21h50.55.122,rantool2,2021.1.4,Win32,74.96251874,60d998951d34faf31fa0f85d,60d9d14f4a8a35a482e0d9bf,60edee8989e46a0fc67a28c8,,,,,,,,,,,,
"[""period""]",0,[0.29999999999999716],20,0,20,0,1,60d998951d34faf31fa0f85d,Mężczyzna,23,2021-07-13_21h50.55.122,rantool2,2021.1.4,Win32,74.96251874,60d998951d34faf31fa0f85d,60d9d14f4a8a35a482e0d9bf,60edee8989e46a0fc67a28c8,,,,,,,,,,,,
"[""comma""]",0,[0.2539999999999907],21,0,21,0,1,60d998951d34faf31fa0f85d,Mężczyzna,23,2021-07-13_21h50.55.122,rantool2,2021.1.4,Win32,74.96251874,60d998951d34faf31fa0f85d,60d9d14f4a8a35a482e0d9bf,60edee8989e46a0fc67a28c8,,,,,,,,,,,,
"[""period""]",0,[0.2540000000000049],22,0,22,0,1,60d998951d34faf31fa0f85d,Mężczyzna,23,2021-07-13_21h50.55.122,rantool2,2021.1.4,Win32,74.96251874,60d998951d34faf31fa0f85d,60d9d14f4a8a35a482e0d9bf,60edee8989e46a0fc67a28c8,,,,,,,,,,,,
"[""comma""]",0,[0.22800000000000864],23,0,23,0,1,60d998951d34faf31fa0f85d,Mężczyzna,23,2021-07-13_21h50.55.122,rantool2,2021.1.4,Win32,74.96251874,60d998951d34faf31fa0f85d,60d9d14f4a8a35a482e0d9bf,60edee8989e46a0fc67a28c8,,,,,,,,,,,,
"[""period""]",0,[0.11299999999999955],24,0,24,0,1,60d998951d34faf31fa0f85d,Mężczyzna,23,2021-07-13_21h50.55.122,rantool2,2021.1.4,Win32,74.96251874,60d998951d34faf31fa0f85d,60d9d14f4a8a35a482e0d9bf,60edee8989e46a0fc67a28c8,,,,,,,,,,,,
"[""comma""]",0,[0.24800000000000466],25,0,25,0,1,60d998951d34faf31fa0f85d,Mężczyzna,23,2021-07-13_21h50.55.122,rantool2,2021.1.4,Win32,74.96251874,60d998951d34faf31fa0f85d,60d9d14f4a8a35a482e0d9bf,60edee8989e46a0fc67a28c8,,,,,,,,,,,,
"[""period""]",0,[0.1770000000000067],26,0,26,0,1,60d998951d34faf31fa0f85d,Mężczyzna,23,2021-07-13_21h50.55.122,rantool2,2021.1.4,Win32,74.96251874,60d998951d34faf31fa0f85d,60d9d14f4a8a35a482e0d9bf,60edee8989e46a0fc67a28c8,,,,,,,,,,,,
"[""comma""]",0,[0.21399999999999864],27,0,27,0,1,60d998951d34faf31fa0f85d,Mężczyzna,23,2021-07-13_21h50.55.122,rantool2,2021.1.4,Win32,74.96251874,60d998951d34faf31fa0f85d,60d9d14f4a8a35a482e0d9bf,60edee8989e46a0fc67a28c8,,,,,,,,,,,,
"[""period""]",0,[0.06900000000001683],28,0,28,0,1,60d998951d34faf31fa0f85d,Mężczyzna,23,2021-07-13_21h50.55.122,rantool2,2021.1.4,Win32,74.96251874,60d998951d34faf31fa0f85d,60d9d14f4a8a35a482e0d9bf,60edee8989e46a0fc67a28c8,,,,,,,,,,,,
"[""comma""]",0,[0.242999999999995],29,0,29,0,1,60d998951d34faf31fa0f85d,Mężczyzna,23,2021-07-13_21h50.55.122,rantool2,2021.1.4,Win32,74.96251874,60d998951d34faf31fa0f85d,60d9d14f4a8a35a482e0d9bf,60edee8989e46a0fc67a28c8,,,,,,,,,,,,
"[""comma""]",0,[0.24100000000001387],30,0,30,0,1,60d998951d34faf31fa0f85d,Mężczyzna,23,2021-07-13_21h50.55.122,rantool2,2021.1.4,Win32,74.96251874,60d998951d34faf31fa0f85d,60d9d14f4a8a35a482e0d9bf,60edee8989e46a0fc67a28c8,,,,,,,,,,,,
"[""comma"",""period""]",0,"[0.17300000000000182,1.9749999999999943]",31,0,31,0,1,60d998951d34faf31fa0f85d,Mężczyzna,23,2021-07-13_21h50.55.122,rantool2,2021.1.4,Win32,74.96251874,60d998951d34faf31fa0f85d,60d9d14f4a8a35a482e0d9bf,60edee8989e46a0fc67a28c8,,,,,,,,,,,,
0,0,,32,0,32,0,1,60d998951d34faf31fa0f85d,Mężczyzna,23,2021-07-13_21h50.55.122,rantool2,2021.1.4,Win32,74.96251874,60d998951d34faf31fa0f85d,60d9d14f4a8a35a482e0d9bf,60edee8989e46a0fc67a28c8,,,,,,,,,,,,
"[""period""]",0,[0.228999999999985],33,0,33,0,1,60d998951d34faf31fa0f85d,Mężczyzna,23,2021-07-13_21h50.55.122,rantool2,2021.1.4,Win32,74.96251874,60d998951d34faf31fa0f85d,60d9d14f4a8a35a482e0d9bf,60edee8989e46a0fc67a28c8,,,,,,,,,,,,
"[""comma""]",0,[0.2580000000000098],34,0,34,0,1,60d998951d34faf31fa0f85d,Mężczyzna,23,2021-07-13_21h50.55.122,rantool2,2021.1.4,Win32,74.96251874,60d998951d34faf31fa0f85d,60d9d14f4a8a35a482e0d9bf,60edee8989e46a0fc67a28c8,,,,,,,,,,,,
"[""comma""]",0,[0.15000000000000568],35,0,35,0,1,60d998951d34faf31fa0f85d,Mężczyzna,23,2021-07-13_21h50.55.122,rantool2,2021.1.4,Win32,74.96251874,60d998951d34faf31fa0f85d,60d9d14f4a8a35a482e0d9bf,60edee8989e46a0fc67a28c8,,,,,,,,,,,,
"[""period""]",0,[0.2680000000000007],36,0,36,0,1,60d998951d34faf31fa0f85d,Mężczyzna,23,2021-07-13_21h50.55.122,rantool2,2021.1.4,Win32,74.96251874,60d998951d34faf31fa0f85d,60d9d14f4a8a35a482e0d9bf,60edee8989e46a0fc67a28c8,,,,,,,,,,,,
"[""period""]",0,[0.31399999999999295],37,0,37,0,1,60d998951d34faf31fa0f85d,Mężczyzna,23,2021-07-13_21h50.55.122,rantool2,2021.1.4,Win32,74.96251874,60d998951d34faf31fa0f85d,60d9d14f4a8a35a482e0d9bf,60edee8989e46a0fc67a28c8,,,,,,,,,,,,
"[""comma""]",0,[0.32900000000000773],38,0,38,0,1,60d998951d34faf31fa0f85d,Mężczyzna,23,2021-07-13_21h50.55.122,rantool2,2021.1.4,Win32,74.96251874,60d998951d34faf31fa0f85d,60d9d14f4a8a35a482e0d9bf,60edee8989e46a0fc67a28c8,,,,,,,,,,,,
"[""period""]",0,[0.21600000000000819],39,0,39,0,1,60d998951d34faf31fa0f85d,Mężczyzna,23,2021-07-13_21h50.55.122,rantool2,2021.1.4,Win32,74.96251874,60d998951d34faf31fa0f85d,60d9d14f4a8a35a482e0d9bf,60edee8989e46a0fc67a28c8,,,,,,,,,,,,
"[""period"",""comma""]",0,"[0.22700000000000387,1.88900000000001]",40,0,40,0,1,60d998951d34faf31fa0f85d,Mężczyzna,23,2021-07-13_21h50.55.122,rantool2,2021.1.4,Win32,74.96251874,60d998951d34faf31fa0f85d,60d9d14f4a8a35a482e0d9bf,60edee8989e46a0fc67a28c8,,,,,,,,,,,,
"[""comma""]",0,[1.1750000000000114],41,0,41,0,1,60d998951d34faf31fa0f85d,Mężczyzna,23,2021-07-13_21h50.55.122,rantool2,2021.1.4,Win32,74.96251874,60d998951d34faf31fa0f85d,60d9d14f4a8a35a482e0d9bf,60edee8989e46a0fc67a28c8,,,,,,,,,,,,
0,0,,42,0,42,0,1,60d998951d34faf31fa0f85d,Mężczyzna,23,2021-07-13_21h50.55.122,rantool2,2021.1.4,Win32,74.96251874,60d998951d34faf31fa0f85d,60d9d14f4a8a35a482e0d9bf,60edee8989e46a0fc67a28c8,,,,,,,,,,,,
"[""comma""]",0,[0.23999999999998067],43,0,43,0,1,60d998951d34faf31fa0f85d,Mężczyzna,23,2021-07-13_21h50.55.122,rantool2,2021.1.4,Win32,74.96251874,60d998951d34faf31fa0f85d,60d9d14f4a8a35a482e0d9bf,60edee8989e46a0fc67a28c8,,,,,,,,,,,,
"[""period"",""period""]",0,"[0.14999999999997726,1.9410000000000025]",44,0,44,0,1,60d998951d34faf31fa0f85d,Mężczyzna,23,2021-07-13_21h50.55.122,rantool2,2021.1.4,Win32,74.96251874,60d998951d34faf31fa0f85d,60d9d14f4a8a35a482e0d9bf,60edee8989e46a0fc67a28c8,,,,,,,,,,,,
0,0,,45,0,45,0,1,60d998951d34faf31fa0f85d,Mężczyzna,23,2021-07-13_21h50.55.122,rantool2,2021.1.4,Win32,74.96251874,60d998951d34faf31fa0f85d,60d9d14f4a8a35a482e0d9bf,60edee8989e46a0fc67a28c8,,,,,,,,,,,,
"[""period""]",0,[0.21700000000001296],46,0,46,0,1,60d998951d34faf31fa0f85d,Mężczyzna,23,2021-07-13_21h50.55.122,rantool2,2021.1.4,Win32,74.96251874,60d998951d34faf31fa0f85d,60d9d14f4a8a35a482e0d9bf,60edee8989e46a0fc67a28c8,,,,,,,,,,,,
"[""period""]",0,[0.18000000000000682],47,0,47,0,1,60d998951d34faf31fa0f85d,Mężczyzna,23,2021-07-13_21h50.55.122,rantool2,2021.1.4,Win32,74.96251874,60d998951d34faf31fa0f85d,60d9d14f4a8a35a482e0d9bf,60edee8989e46a0fc67a28c8,,,,,,,,,,,,
"[""period""]",0,[0.21999999999999886],48,0,48,0,1,60d998951d34faf31fa0f85d,Mężczyzna,23,2021-07-13_21h50.55.122,rantool2,2021.1.4,Win32,74.96251874,60d998951d34faf31fa0f85d,60d9d14f4a8a35a482e0d9bf,60edee8989e46a0fc67a28c8,,,,,,,,,,,,
"[""comma""]",0,[0.41900000000001114],49,0,49,0,1,60d998951d34faf31fa0f85d,Mężczyzna,23,2021-07-13_21h50.55.122,rantool2,2021.1.4,Win32,74.96251874,60d998951d34faf31fa0f85d,60d9d14f4a8a35a482e0d9bf,60edee8989e46a0fc67a28c8,,,,,,,,,,,,
"[""comma""]",0,[0.22800000000000864],50,0,50,0,1,60d998951d34faf31fa0f85d,Mężczyzna,23,2021-07-13_21h50.55.122,rantool2,2021.1.4,Win32,74.96251874,60d998951d34faf31fa0f85d,60d9d14f4a8a35a482e0d9bf,60edee8989e46a0fc67a28c8,,,,,,,,,,,,
"[""period""]",0,[0.1599999999999966],51,0,51,0,1,60d998951d34faf31fa0f85d,Mężczyzna,23,2021-07-13_21h50.55.122,rantool2,2021.1.4,Win32,74.96251874,60d998951d34faf31fa0f85d,60d9d14f4a8a35a482e0d9bf,60edee8989e46a0fc67a28c8,,,,,,,,,,,,
"[""comma""]",0,[0.2539999999999907],52,0,52,0,1,60d998951d34faf31fa0f85d,Mężczyzna,23,2021-07-13_21h50.55.122,rantool2,2021.1.4,Win32,74.96251874,60d998951d34faf31fa0f85d,60d9d14f4a8a35a482e0d9bf,60edee8989e46a0fc67a28c8,,,,,,,,,,,,
"[""period"",""comma""]",0,"[0.2669999999999959,1.921999999999997]",53,0,53,0,1,60d998951d34faf31fa0f85d,Mężczyzna,23,2021-07-13_21h50.55.122,rantool2,2021.1.4,Win32,74.96251874,60d998951d34faf31fa0f85d,60d9d14f4a8a35a482e0d9bf,60edee8989e46a0fc67a28c8,,,,,,,,,,,,
0,0,,54,0,54,0,1,60d998951d34faf31fa0f85d,Mężczyzna,23,2021-07-13_21h50.55.122,rantool2,2021.1.4,Win32,74.96251874,60d998951d34faf31fa0f85d,60d9d14f4a8a35a482e0d9bf,60edee8989e46a0fc67a28c8,,,,,,,,,,,,
"[""comma""]",0,[0.2230000000000132],55,0,55,0,1,60d998951d34faf31fa0f85d,Mężczyzna,23,2021-07-13_21h50.55.122,rantool2,2021.1.4,Win32,74.96251874,60d998951d34faf31fa0f85d,60d9d14f4a8a35a482e0d9bf,60edee8989e46a0fc67a28c8,,,,,,,,,,,,
"[""comma""]",0,[0.24200000000001864],56,0,56,0,1,60d998951d34faf31fa0f85d,Mężczyzna,23,2021-07-13_21h50.55.122,rantool2,2021.1.4,Win32,74.96251874,60d998951d34faf31fa0f85d,60d9d14f4a8a35a482e0d9bf,60edee8989e46a0fc67a28c8,,,,,,,,,,,,
"[""comma""]",0,[0.2609999999999957],57,0,57,0,1,60d998951d34faf31fa0f85d,Mężczyzna,23,2021-07-13_21h50.55.122,rantool2,2021.1.4,Win32,74.96251874,60d998951d34faf31fa0f85d,60d9d14f4a8a35a482e0d9bf,60edee8989e46a0fc67a28c8,,,,,,,,,,,,
"[""period""]",0,[0.24799999999999045],58,0,58,0,1,60d998951d34faf31fa0f85d,Mężczyzna,23,2021-07-13_21h50.55.122,rantool2,2021.1.4,Win32,74.96251874,60d998951d34faf31fa0f85d,60d9d14f4a8a35a482e0d9bf,60edee8989e46a0fc67a28c8,,,,,,,,,,,,
"[""comma""]",0,[0.2539999999999907],59,0,59,0,1,60d998951d34faf31fa0f85d,Mężczyzna,23,2021-07-13_21h50.55.122,rantool2,2021.1.4,Win32,74.96251874,60d998951d34faf31fa0f85d,60d9d14f4a8a35a482e0d9bf,60edee8989e46a0fc67a28c8,,,,,,,,,,,,
"[""comma""]",0,[0.2680000000000007],60,0,60,0,1,60d998951d34faf31fa0f85d,Mężczyzna,23,2021-07-13_21h50.55.122,rantool2,2021.1.4,Win32,74.96251874,60d998951d34faf31fa0f85d,60d9d14f4a8a35a482e0d9bf,60edee8989e46a0fc67a28c8,,,,,,,,,,,,
"[""period""]",0,[0.049000000000006594],61,0,61,0,1,60d998951d34faf31fa0f85d,Mężczyzna,23,2021-07-13_21h50.55.122,rantool2,2021.1.4,Win32,74.96251874,60d998951d34faf31fa0f85d,60d9d14f4a8a35a482e0d9bf,60edee8989e46a0fc67a28c8,,,,,,,,,,,,
"[""comma""]",0,[0.20999999999997954],62,0,62,0,1,60d998951d34faf31fa0f85d,Mężczyzna,23,2021-07-13_21h50.55.122,rantool2,2021.1.4,Win32,74.96251874,60d998951d34faf31fa0f85d,60d9d14f4a8a35a482e0d9bf,60edee8989e46a0fc67a28c8,,,,,,,,,,,,
"[""period""]",0,[0.2330000000000041],63,0,63,0,1,60d998951d34faf31fa0f85d,Mężczyzna,23,2021-07-13_21h50.55.122,rantool2,2021.1.4,Win32,74.96251874,60d998951d34faf31fa0f85d,60d9d14f4a8a35a482e0d9bf,60edee8989e46a0fc67a28c8,,,,,,,,,,,,
"[""period""]",0,[0.23199999999999932],64,0,64,0,1,60d998951d34faf31fa0f85d,Mężczyzna,23,2021-07-13_21h50.55.122,rantool2,2021.1.4,Win32,74.96251874,60d998951d34faf31fa0f85d,60d9d14f4a8a35a482e0d9bf,60edee8989e46a0fc67a28c8,,,,,,,,,,,,
"[""period""]",0,[0.28999999999999204],65,0,65,0,1,60d998951d34faf31fa0f85d,Mężczyzna,23,2021-07-13_21h50.55.122,rantool2,2021.1.4,Win32,74.96251874,60d998951d34faf31fa0f85d,60d9d14f4a8a35a482e0d9bf,60edee8989e46a0fc67a28c8,,,,,,,,,,,,
"[""comma""]",0,[0.22700000000000387],66,0,66,0,1,60d998951d34faf31fa0f85d,Mężczyzna,23,2021-07-13_21h50.55.122,rantool2,2021.1.4,Win32,74.96251874,60d998951d34faf31fa0f85d,60d9d14f4a8a35a482e0d9bf,60edee8989e46a0fc67a28c8,,,,,,,,,,,,
"[""period""]",0,[0.2459999999999809],67,0,67,0,1,60d998951d34faf31fa0f85d,Mężczyzna,23,2021-07-13_21h50.55.122,rantool2,2021.1.4,Win32,74.96251874,60d998951d34faf31fa0f85d,60d9d14f4a8a35a482e0d9bf,60edee8989e46a0fc67a28c8,,,,,,,,,,,,
"[""period"",""comma""]",0,"[0.18799999999998818,1.7150000000000034]",68,0,68,0,1,60d998951d34faf31fa0f85d,Mężczyzna,23,2021-07-13_21h50.55.122,rantool2,2021.1.4,Win32,74.96251874,60d998951d34faf31fa0f85d,60d9d14f4a8a35a482e0d9bf,60edee8989e46a0fc67a28c8,,,,,,,,,,,,
"[""comma""]",0,[1.6330000000000098],69,0,69,0,1,60d998951d34faf31fa0f85d,Mężczyzna,23,2021-07-13_21h50.55.122,rantool2,2021.1.4,Win32,74.96251874,60d998951d34faf31fa0f85d,60d9d14f4a8a35a482e0d9bf,60edee8989e46a0fc67a28c8,,,,,,,,,,,,
0,0,,70,0,70,0,1,60d998951d34faf31fa0f85d,Mężczyzna,23,2021-07-13_21h50.55.122,rantool2,2021.1.4,Win32,74.96251874,60d998951d34faf31fa0f85d,60d9d14f4a8a35a482e0d9bf,60edee8989e46a0fc67a28c8,,,,,,,,,,,,
"[""comma""]",0,[0.3879999999999768],71,0,71,0,1,60d998951d34faf31fa0f85d,Mężczyzna,23,2021-07-13_21h50.55.122,rantool2,2021.1.4,Win32,74.96251874,60d998951d34faf31fa0f85d,60d9d14f4a8a35a482e0d9bf,60edee8989e46a0fc67a28c8,,,,,,,,,,,,
"[""comma""]",0,[0.47500000000002274],72,0,72,0,1,60d998951d34faf31fa0f85d,Mężczyzna,23,2021-07-13_21h50.55.122,rantool2,2021.1.4,Win32,74.96251874,60d998951d34faf31fa0f85d,60d9d14f4a8a35a482e0d9bf,60edee8989e46a0fc67a28c8,,,,,,,,,,,,
"[""comma""]",0,[0.9090000000000202],73,0,73,0,1,60d998951d34faf31fa0f85d,Mężczyzna,23,2021-07-13_21h50.55.122,rantool2,2021.1.4,Win32,74.96251874,60d998951d34faf31fa0f85d,60d9d14f4a8a35a482e0d9bf,60edee8989e46a0fc67a28c8,,,,,,,,,,,,
"[""period""]",0,[1.563999999999993],74,0,74,0,1,60d998951d34faf31fa0f85d,Mężczyzna,23,2021-07-13_21h50.55.122,rantool2,2021.1.4,Win32,74.96251874,60d998951d34faf31fa0f85d,60d9d14f4a8a35a482e0d9bf,60edee8989e46a0fc67a28c8,,,,,,,,,,,,
"[""period""]",0,[0.9089999999999918],75,0,75,0,1,60d998951d34faf31fa0f85d,Mężczyzna,23,2021-07-13_21h50.55.122,rantool2,2021.1.4,Win32,74.96251874,60d998951d34faf31fa0f85d,60d9d14f4a8a35a482e0d9bf,60edee8989e46a0fc67a28c8,,,,,,,,,,,,
"[""comma""]",0,[0.27299999999999613],76,0,76,0,1,60d998951d34faf31fa0f85d,Mężczyzna,23,2021-07-13_21h50.55.122,rantool2,2021.1.4,Win32,74.96251874,60d998951d34faf31fa0f85d,60d9d14f4a8a35a482e0d9bf,60edee8989e46a0fc67a28c8,,,,,,,,,,,,
"[""comma""]",0,[0.2769999999999868],77,0,77,0,1,60d998951d34faf31fa0f85d,Mężczyzna,23,2021-07-13_21h50.55.122,rantool2,2021.1.4,Win32,74.96251874,60d998951d34faf31fa0f85d,60d9d14f4a8a35a482e0d9bf,60edee8989e46a0fc67a28c8,,,,,,,,,,,,
"[""period""]",0,[0.1699999999999875],78,0,78,0,1,60d998951d34faf31fa0f85d,Mężczyzna,23,2021-07-13_21h50.55.122,rantool2,2021.1.4,Win32,74.96251874,60d998951d34faf31fa0f85d,60d9d14f4a8a35a482e0d9bf,60edee8989e46a0fc67a28c8,,,,,,,,,,,,
"[""period"",""period""]",0,"[0.10699999999999932,1.9309999999999832]",79,0,79,0,1,60d998951d34faf31fa0f85d,Mężczyzna,23,2021-07-13_21h50.55.122,rantool2,2021.1.4,Win32,74.96251874,60d998951d34faf31fa0f85d,60d9d14f4a8a35a482e0d9bf,60edee8989e46a0fc67a28c8,,,,,,,,,,,,
0,0,,80,0,80,0,1,60d998951d34faf31fa0f85d,Mężczyzna,23,2021-07-13_21h50.55.122,rantool2,2021.1.4,Win32,74.96251874,60d998951d34faf31fa0f85d,60d9d14f4a8a35a482e0d9bf,60edee8989e46a0fc67a28c8,,,,,,,,,,,,
"[""period""]",0,[0.1290000000000191],81,0,81,0,1,60d998951d34faf31fa0f85d,Mężczyzna,23,2021-07-13_21h50.55.122,rantool2,2021.1.4,Win32,74.96251874,60d998951d34faf31fa0f85d,60d9d14f4a8a35a482e0d9bf,60edee8989e46a0fc67a28c8,,,,,,,,,,,,
"[""comma""]",0,[0.23599999999999],82,0,82,0,1,60d998951d34faf31fa0f85d,Mężczyzna,23,2021-07-13_21h50.55.122,rantool2,2021.1.4,Win32,74.96251874,60d998951d34faf31fa0f85d,60d9d14f4a8a35a482e0d9bf,60edee8989e46a0fc67a28c8,,,,,,,,,,,,
"[""comma""]",0,[0.4449999999999932],83,0,83,0,1,60d998951d34faf31fa0f85d,Mężczyzna,23,2021-07-13_21h50.55.122,rantool2,2021.1.4,Win32,74.96251874,60d998951d34faf31fa0f85d,60d9d14f4a8a35a482e0d9bf,60edee8989e46a0fc67a28c8,,,,,,,,,,,,
"[""comma""]",0,[0.5999999999999943],84,0,84,0,1,60d998951d34faf31fa0f85d,Mężczyzna,23,2021-07-13_21h50.55.122,rantool2,2021.1.4,Win32,74.96251874,60d998951d34faf31fa0f85d,60d9d14f4a8a35a482e0d9bf,60edee8989e46a0fc67a28c8,,,,,,,,,,,,
"[""period""]",0,[0.6009999999999991],85,0,85,0,1,60d998951d34faf31fa0f85d,Mężczyzna,23,2021-07-13_21h50.55.122,rantool2,2021.1.4,Win32,74.96251874,60d998951d34faf31fa0f85d,60d9d14f4a8a35a482e0d9bf,60edee8989e46a0fc67a28c8,,,,,,,,,,,,
"[""period""]",0,[0.7529999999999859],86,0,86,0,1,60d998951d34faf31fa0f85d,Mężczyzna,23,2021-07-13_21h50.55.122,rantool2,2021.1.4,Win32,74.96251874,60d998951d34faf31fa0f85d,60d9d14f4a8a35a482e0d9bf,60edee8989e46a0fc67a28c8,,,,,,,,,,,,
"[""period""]",0,[0.921999999999997],87,0,87,0,1,60d998951d34faf31fa0f85d,Mężczyzna,23,2021-07-13_21h50.55.122,rantool2,2021.1.4,Win32,74.96251874,60d998951d34faf31fa0f85d,60d9d14f4a8a35a482e0d9bf,60edee8989e46a0fc67a28c8,,,,,,,,,,,,
"[""period""]",0,[0.7159999999999798],88,0,88,0,1,60d998951d34faf31fa0f85d,Mężczyzna,23,2021-07-13_21h50.55.122,rantool2,2021.1.4,Win32,74.96251874,60d998951d34faf31fa0f85d,60d9d14f4a8a35a482e0d9bf,60edee8989e46a0fc67a28c8,,,,,,,,,,,,
"[""comma""]",0,[0.3470000000000084],89,0,89,0,1,60d998951d34faf31fa0f85d,Mężczyzna,23,2021-07-13_21h50.55.122,rantool2,2021.1.4,Win32,74.96251874,60d998951d34faf31fa0f85d,60d9d14f4a8a35a482e0d9bf,60edee8989e46a0fc67a28c8,,,,,,,,,,,,
"[""comma""]",0,[0.23199999999999932],90,0,90,0,1,60d998951d34faf31fa0f85d,Mężczyzna,23,2021-07-13_21h50.55.122,rantool2,2021.1.4,Win32,74.96251874,60d998951d34faf31fa0f85d,60d9d14f4a8a35a482e0d9bf,60edee8989e46a0fc67a28c8,,,,,,,,,,,,
"[""period""]",0,[0.26799999999997226],91,0,91,0,1,60d998951d34faf31fa0f85d,Mężczyzna,23,2021-07-13_21h50.55.122,rantool2,2021.1.4,Win32,74.96251874,60d998951d34faf31fa0f85d,60d9d14f4a8a35a482e0d9bf,60edee8989e46a0fc67a28c8,,,,,,,,,,,,
"[""period""]",0,[0.242999999999995],92,0,92,0,1,60d998951d34faf31fa0f85d,Mężczyzna,23,2021-07-13_21h50.55.122,rantool2,2021.1.4,Win32,74.96251874,60d998951d34faf31fa0f85d,60d9d14f4a8a35a482e0d9bf,60edee8989e46a0fc67a28c8,,,,,,,,,,,,
"[""period""]",0,[0.2680000000000291],93,0,93,0,1,60d998951d34faf31fa0f85d,Mężczyzna,23,2021-07-13_21h50.55.122,rantool2,2021.1.4,Win32,74.96251874,60d998951d34faf31fa0f85d,60d9d14f4a8a35a482e0d9bf,60edee8989e46a0fc67a28c8,,,,,,,,,,,,
"[""comma""]",0,[0.18700000000001182],94,0,94,0,1,60d998951d34faf31fa0f85d,Mężczyzna,23,2021-07-13_21h50.55.122,rantool2,2021.1.4,Win32,74.96251874,60d998951d34faf31fa0f85d,60d9d14f4a8a35a482e0d9bf,60edee8989e46a0fc67a28c8,,,,,,,,,,,,
"[""comma""]",0,[0.20299999999997453],95,0,95,0,1,60d998951d34faf31fa0f85d,Mężczyzna,23,2021-07-13_21h50.55.122,rantool2,2021.1.4,Win32,74.96251874,60d998951d34faf31fa0f85d,60d9d14f4a8a35a482e0d9bf,60edee8989e46a0fc67a28c8,,,,,,,,,,,,
"[""comma""]",0,[0.25900000000001455],96,0,96,0,1,60d998951d34faf31fa0f85d,Mężczyzna,23,2021-07-13_21h50.55.122,rantool2,2021.1.4,Win32,74.96251874,60d998951d34faf31fa0f85d,60d9d14f4a8a35a482e0d9bf,60edee8989e46a0fc67a28c8,,,,,,,,,,,,
"[""period""]",0,[0.28499999999996817],97,0,97,0,1,60d998951d34faf31fa0f85d,Mężczyzna,23,2021-07-13_21h50.55.122,rantool2,2021.1.4,Win32,74.96251874,60d998951d34faf31fa0f85d,60d9d14f4a8a35a482e0d9bf,60edee8989e46a0fc67a28c8,,,,,,,,,,,,
"[""period""]",0,[0.36000000000001364],98,0,98,0,1,60d998951d34faf31fa0f85d,Mężczyzna,23,2021-07-13_21h50.55.122,rantool2,2021.1.4,Win32,74.96251874,60d998951d34faf31fa0f85d,60d9d14f4a8a35a482e0d9bf,60edee8989e46a0fc67a28c8,,,,,,,,,,,,
"[""period""]",0,[0.27300000000002456],99,0,99,0,1,60d998951d34faf31fa0f85d,Mężczyzna,23,2021-07-13_21h50.55.122,rantool2,2021.1.4,Win32,74.96251874,60d998951d34faf31fa0f85d,60d9d14f4a8a35a482e0d9bf,60edee8989e46a0fc67a28c8,,,,,,,,,,,,
"[""comma""]",0,[0.24799999999999045],100,0,100,0,1,60d998951d34faf31fa0f85d,Mężczyzna,23,2021-07-13_21h50.55.122,rantool2,2021.1.4,Win32,74.96251874,60d998951d34faf31fa0f85d,60d9d14f4a8a35a482e0d9bf,60edee8989e46a0fc67a28c8,,,,,,,,,,,,
"[""comma""]",0,[0.2540000000000191],101,0,101,0,1,60d998951d34faf31fa0f85d,Mężczyzna,23,2021-07-13_21h50.55.122,rantool2,2021.1.4,Win32,74.96251874,60d998951d34faf31fa0f85d,60d9d14f4a8a35a482e0d9bf,60edee8989e46a0fc67a28c8,,,,,,,,,,,,
"[""period""]",0,[0.1349999999999909],102,0,102,0,1,60d998951d34faf31fa0f85d,Mężczyzna,23,2021-07-13_21h50.55.122,rantool2,2021.1.4,Win32,74.96251874,60d998951d34faf31fa0f85d,60d9d14f4a8a35a482e0d9bf,60edee8989e46a0fc67a28c8,,,,,,,,,,,,
"[""comma""]",0,[0.09500000000002728],103,0,103,0,1,60d998951d34faf31fa0f85d,Mężczyzna,23,2021-07-13_21h50.55.122,rantool2,2021.1.4,Win32,74.96251874,60d998951d34faf31fa0f85d,60d9d14f4a8a35a482e0d9bf,60edee8989e46a0fc67a28c8,,,,,,,,,,,,
"[""period""]",0,[0.2720000000000482],104,0,104,0,1,60d998951d34faf31fa0f85d,Mężczyzna,23,2021-07-13_21h50.55.122,rantool2,2021.1.4,Win32,74.96251874,60d998951d34faf31fa0f85d,60d9d14f4a8a35a482e0d9bf,60edee8989e46a0fc67a28c8,,,,,,,,,,,,
"[""comma""]",0,[0.3300000000000409],105,0,105,0,1,60d998951d34faf31fa0f85d,Mężczyzna,23,2021-07-13_21h50.55.122,rantool2,2021.1.4,Win32,74.96251874,60d998951d34faf31fa0f85d,60d9d14f4a8a35a482e0d9bf,60edee8989e46a0fc67a28c8,,,,,,,,,,,,
"[""comma""]",0,[0.33600000000001273],106,0,106,0,1,60d998951d34faf31fa0f85d,Mężczyzna,23,2021-07-13_21h50.55.122,rantool2,2021.1.4,Win32,74.96251874,60d998951d34faf31fa0f85d,60d9d14f4a8a35a482e0d9bf,60edee8989e46a0fc67a28c8,,,,,,,,,,,,
"[""period""]",0,[0.3120000000000118],107,0,107,0,1,60d998951d34faf31fa0f85d,Mężczyzna,23,2021-07-13_21h50.55.122,rantool2,2021.1.4,Win32,74.96251874,60d998951d34faf31fa0f85d,60d9d14f4a8a35a482e0d9bf,60edee8989e46a0fc67a28c8,,,,,,,,,,,,
"[""comma""]",0,[0.9809999999999945],108,0,108,0,1,60d998951d34faf31fa0f85d,Mężczyzna,23,2021-07-13_21h50.55.122,rantool2,2021.1.4,Win32,74.96251874,60d998951d34faf31fa0f85d,60d9d14f4a8a35a482e0d9bf,60edee8989e46a0fc67a28c8,,,,,,,,,,,,
"[""period""]",0,[0.5380000000000109],109,0,109,0,1,60d998951d34faf31fa0f85d,Mężczyzna,23,2021-07-13_21h50.55.122,rantool2,2021.1.4,Win32,74.96251874,60d998951d34faf31fa0f85d,60d9d14f4a8a35a482e0d9bf,60edee8989e46a0fc67a28c8,,,,,,,,,,,,
"[""period"",""period""]",0,"[0.2330000000000041,1.8910000000000196]",110,0,110,0,1,60d998951d34faf31fa0f85d,Mężczyzna,23,2021-07-13_21h50.55.122,rantool2,2021.1.4,Win32,74.96251874,60d998951d34faf31fa0f85d,60d9d14f4a8a35a482e0d9bf,60edee8989e46a0fc67a28c8,,,,,,,,,,,,
0,0,,111,0,111,0,1,60d998951d34faf31fa0f85d,Mężczyzna,23,2021-07-13_21h50.55.122,rantool2,2021.1.4,Win32,74.96251874,60d998951d34faf31fa0f85d,60d9d14f4a8a35a482e0d9bf,60edee8989e46a0fc67a28c8,,,,,,,,,,,,
"[""comma""]",0,[0.16199999999997772],112,0,112,0,1,60d998951d34faf31fa0f85d,Mężczyzna,23,2021-07-13_21h50.55.122,rantool2,2021.1.4,Win32,74.96251874,60d998951d34faf31fa0f85d,60d9d14f4a8a35a482e0d9bf,60edee8989e46a0fc67a28c8,,,,,,,,,,,,
"[""comma""]",0,[0.2669999999999959],113,0,113,0,1,60d998951d34faf31fa0f85d,Mężczyzna,23,2021-07-13_21h50.55.122,rantool2,2021.1.4,Win32,74.96251874,60d998951d34faf31fa0f85d,60d9d14f4a8a35a482e0d9bf,60edee8989e46a0fc67a28c8,,,,,,,,,,,,
"[""comma""]",0,[0.26900000000000546],114,0,114,0,1,60d998951d34faf31fa0f85d,Mężczyzna,23,2021-07-13_21h50.55.122,rantool2,2021.1.4,Win32,74.96251874,60d998951d34faf31fa0f85d,60d9d14f4a8a35a482e0d9bf,60edee8989e46a0fc67a28c8,,,,,,,,,,,,
"[""period""]",0,[0.25499999999999545],115,0,115,0,1,60d998951d34faf31fa0f85d,Mężczyzna,23,2021-07-13_21h50.55.122,rantool2,2021.1.4,Win32,74.96251874,60d998951d34faf31fa0f85d,60d9d14f4a8a35a482e0d9bf,60edee8989e46a0fc67a28c8,,,,,,,,,,,,
"[""period""]",0,[0.2750000000000341],116,0,116,0,1,60d998951d34faf31fa0f85d,Mężczyzna,23,2021-07-13_21h50.55.122,rantool2,2021.1.4,Win32,74.96251874,60d998951d34faf31fa0f85d,60d9d14f4a8a35a482e0d9bf,60edee8989e46a0fc67a28c8,,,,,,,,,,,,
"[""period""]",0,[0.34300000000001774],117,0,117,0,1,60d998951d34faf31fa0f85d,Mężczyzna,23,2021-07-13_21h50.55.122,rantool2,2021.1.4,Win32,74.96251874,60d998951d34faf31fa0f85d,60d9d14f4a8a35a482e0d9bf,60edee8989e46a0fc67a28c8,,,,,,,,,,,,
"[""comma""]",0,[0.9249999999999545],118,0,118,0,1,60d998951d34faf31fa0f85d,Mężczyzna,23,2021-07-13_21h50.55.122,rantool2,2021.1.4,Win32,74.96251874,60d998951d34faf31fa0f85d,60d9d14f4a8a35a482e0d9bf,60edee8989e46a0fc67a28c8,,,,,,,,,,,,
"[""comma""]",0,[1.18100000000004],119,0,119,0,1,60d998951d34faf31fa0f85d,Mężczyzna,23,2021-07-13_21h50.55.122,rantool2,2021.1.4,Win32,74.96251874,60d998951d34faf31fa0f85d,60d9d14f4a8a35a482e0d9bf,60edee8989e46a0fc67a28c8,,,,,,,,,,,,
,,,,,,,,60d998951d34faf31fa0f85d,Mężczyzna,23,2021-07-13_21h50.55.122,rantool2,2021.1.4,Win32,74.96251874,60d998951d34faf31fa0f85d,60d9d14f4a8a35a482e0d9bf,60edee8989e46a0fc67a28c8,f,2.385,0,0,0,19,1,OROORRO,OROORRR,21.73568164,22.11181017,series_1
,,,,,,,,60d998951d34faf31fa0f85d,Mężczyzna,23,2021-07-13_21h50.55.122,rantool2,2021.1.4,Win32,74.96251874,60d998951d34faf31fa0f85d,60d9d14f4a8a35a482e0d9bf,60edee8989e46a0fc67a28c8,f,4.718,0,1,1,23,1,ORORRRO,ORORRRR,22.1285618,21.9921709,series_0
,,,,,,,,60d998951d34faf31fa0f85d,Mężczyzna,23,2021-07-13_21h50.55.122,rantool2,2021.1.4,Win32,74.96251874,60d998951d34faf31fa0f85d,60d9d14f4a8a35a482e0d9bf,60edee8989e46a0fc67a28c8,j,3.614,0,2,2,18,1,OROOROO,OROOROR,20.84860893,21.22513037,series_1
,,,,,,,,60d998951d34faf31fa0f85d,Mężczyzna,23,2021-07-13_21h50.55.122,rantool2,2021.1.4,Win32,74.96251874,60d998951d34faf31fa0f85d,60d9d14f4a8a35a482e0d9bf,60edee8989e46a0fc67a28c8,f,2.421,0,3,3,43,1,RORORRO,RORORRR,20.71309134,21.07490964,series_1
,,,,,,,,60d998951d34faf31fa0f85d,Mężczyzna,23,2021-07-13_21h50.55.122,rantool2,2021.1.4,Win32,74.96251874,60d998951d34faf31fa0f85d,60d9d14f4a8a35a482e0d9bf,60edee8989e46a0fc67a28c8,j,3.562,0,4,4,17,1,OROOORO,OROOORR,21.03750787,22.12173012,series_1
,,,,,,,,60d998951d34faf31fa0f85d,Mężczyzna,23,2021-07-13_21h50.55.122,rantool2,2021.1.4,Win32,74.96251874,60d998951d34faf31fa0f85d,60d9d14f4a8a35a482e0d9bf,60edee8989e46a0fc67a28c8,f,2.374,0,5,5,53,1,RRORORO,RRORORR,20.71309134,21.90565814,series_1
,,,,,,,,60d998951d34faf31fa0f85d,Mężczyzna,23,2021-07-13_21h50.55.122,rantool2,2021.1.4,Win32,74.96251874,60d998951d34faf31fa0f85d,60d9d14f4a8a35a482e0d9bf,60edee8989e46a0fc67a28c8,j,2.832,0,6,6,60,1,RRRROOO,RRRROOR,22.10108823,22.15934078,series_1
,,,,,,,,60d998951d34faf31fa0f85d,Mężczyzna,23,2021-07-13_21h50.55.122,rantool2,2021.1.4,Win32,74.96251874,60d998951d34faf31fa0f85d,60d9d14f4a8a35a482e0d9bf,60edee8989e46a0fc67a28c8,j,4.38,0,7,7,28,1,ORRROOO,ORRROOR,22.24142883,22.53364006,series_1
,,,,,,,,60d998951d34faf31fa0f85d,Mężczyzna,23,2021-07-13_21h50.55.122,rantool2,2021.1.4,Win32,74.96251874,60d998951d34faf31fa0f85d,60d9d14f4a8a35a482e0d9bf,60edee8989e46a0fc67a28c8,f,2.269,0,8,8,44,1,RORROOO,RORROOR,21.66733484,22.02566557,series_1
,,,,,,,,60d998951d34faf31fa0f85d,Mężczyzna,23,2021-07-13_21h50.55.122,rantool2,2021.1.4,Win32,74.96251874,60d998951d34faf31fa0f85d,60d9d14f4a8a35a482e0d9bf,60edee8989e46a0fc67a28c8,f,3.782,0,9,9,50,1,RROOROO,RROOROR,21.73568164,22.02566557,series_1
,,,,,,,,60d998951d34faf31fa0f85d,Mężczyzna,23,2021-07-13_21h50.55.122,rantool2,2021.1.4,Win32,74.96251874,60d998951d34faf31fa0f85d,60d9d14f4a8a35a482e0d9bf,60edee8989e46a0fc67a28c8,f,2.337,0,10,10,46,1,RORRROO,RORRROR,22.00300695,21.24781509,series_0
,,,,,,,,60d998951d34faf31fa0f85d,Mężczyzna,23,2021-07-13_21h50.55.122,rantool2,2021.1.4,Win32,74.96251874,60d998951d34faf31fa0f85d,60d9d14f4a8a35a482e0d9bf,60edee8989e46a0fc67a28c8,f,2.763,0,11,11,35,1,ROOORRO,ROOORRR,21.76276513,22.16977179,series_1
,,,,,,,,60d998951d34faf31fa0f85d,Mężczyzna,23,2021-07-13_21h50.55.122,rantool2,2021.1.4,Win32,74.96251874,60d998951d34faf31fa0f85d,60d9d14f4a8a35a482e0d9bf,60edee8989e46a0fc67a28c8,f,2.912,0,12,12,4,1,OOOROOO,OOOROOR,19.91402015,21.21223021,series_1
,,,,,,,,60d998951d34faf31fa0f85d,Mężczyzna,23,2021-07-13_21h50.55.122,rantool2,2021.1.4,Win32,74.96251874,60d998951d34faf31fa0f85d,60d9d14f4a8a35a482e0d9bf,60edee8989e46a0fc67a28c8,j,1.443,0,13,13,11,1,OORORRO,OORORRR,22.18365867,22.6797523,series_1
,,,,,,,,60d998951d34faf31fa0f85d,Mężczyzna,23,2021-07-13_21h50.55.122,rantool2,2021.1.4,Win32,74.96251874,60d998951d34faf31fa0f85d,60d9d14f4a8a35a482e0d9bf,60edee8989e46a0fc67a28c8,j,2.941,0,14,14,62,1,RRRRROO,RRRRROR,22.16413392,21.27974287,series_0
,,,,,,,,60d998951d34faf31fa0f85d,Mężczyzna,23,2021-07-13_21h50.55.122,rantool2,2021.1.4,Win32,74.96251874,60d998951d34faf31fa0f85d,60d9d14f4a8a35a482e0d9bf,60edee8989e46a0fc67a28c8,j,1.727,0,15,15,34,1,ROOOROO,ROOOROR,21.03750787,21.24781509,series_1
,,,,,,,,60d998951d34faf31fa0f85d,Mężczyzna,23,2021-07-13_21h50.55.122,rantool2,2021.1.4,Win32,74.96251874,60d998951d34faf31fa0f85d,60d9d14f4a8a35a482e0d9bf,60edee8989e46a0fc67a28c8,j,2.109,0,16,16,2,1,OOOOROO,OOOOROR,20.43051175,21.02936224,series_1
,,,,,,,,60d998951d34faf31fa0f85d,Mężczyzna,23,2021-07-13_21h50.55.122,rantool2,2021.1.4,Win32,74.96251874,60d998951d34faf31fa0f85d,60d9d14f4a8a35a482e0d9bf,60edee8989e46a0fc67a28c8,f,3.986,0,17,17,21,1,ORORORO,ORORORR,20.39515459,22.06781359,series_1
,,,,,,,,60d998951d34faf31fa0f85d,Mężczyzna,23,2021-07-13_21h50.55.122,rantool2,2021.1.4,Win32,74.96251874,60d998951d34faf31fa0f85d,60d9d14f4a8a35a482e0d9bf,60edee8989e46a0fc67a28c8,f,2.783,0,18,18,48,1,RROOOOO,RROOOOR,20.90986523,22.15934078,series_1
,,,,,,,,60d998951d34faf31fa0f85d,Mężczyzna,23,2021-07-13_21h50.55.122,rantool2,2021.1.4,Win32,74.96251874,60d998951d34faf31fa0f85d,60d9d14f4a8a35a482e0d9bf,60edee8989e46a0fc67a28c8,f,2.521,0,19,19,12,1,OORROOO,OORROOR,21.30250474,22.02786418,series_1
,,,,,,,,60d998951d34faf31fa0f85d,Mężczyzna,23,2021-07-13_21h50.55.122,rantool2,2021.1.4,Win32,74.96251874,60d998951d34faf31fa0f85d,60d9d14f4a8a35a482e0d9bf,60edee8989e46a0fc67a28c8,j,4.747,0,20,20,25,1,ORROORO,ORROORR,21.79500819,22.61624387,series_1
,,,,,,,,60d998951d34faf31fa0f85d,Mężczyzna,23,2021-07-13_21h50.55.122,rantool2,2021.1.4,Win32,74.96251874,60d998951d34faf31fa0f85d,60d9d14f4a8a35a482e0d9bf,60edee8989e46a0fc67a28c8,j,2.182,0,21,21,42,1,ROROROO,ROROROR,20.39515459,19.8361834,series_0
,,,,,,,,60d998951d34faf31fa0f85d,Mężczyzna,23,2021-07-13_21h50.55.122,rantool2,2021.1.4,Win32,74.96251874,60d998951d34faf31fa0f85d,60d9d14f4a8a35a482e0d9bf,60edee8989e46a0fc67a28c8,j,2.241,0,22,22,54,1,RRORROO,RRORROR,21.55250791,20.9984461,series_0
,,,,,,,,60d998951d34faf31fa0f85d,Mężczyzna,23,2021-07-13_21h50.55.122,rantool2,2021.1.4,Win32,74.96251874,60d998951d34faf31fa0f85d,60d9d14f4a8a35a482e0d9bf,60edee8989e46a0fc67a28c8,j,1.99,0,23,23,20,1,OROROOO,OROROOR,21.31236711,21.90565814,series_1
,,,,,,,,60d998951d34faf31fa0f85d,Mężczyzna,23,2021-07-13_21h50.55.122,rantool2,2021.1.4,Win32,74.96251874,60d998951d34faf31fa0f85d,60d9d14f4a8a35a482e0d9bf,60edee8989e46a0fc67a28c8,f,3.242,0,24,24,26,1,ORROROO,ORROROR,22.02732763,21.71443381,series_0
,,,,,,,,60d998951d34faf31fa0f85d,Mężczyzna,23,2021-07-13_21h50.55.122,rantool2,2021.1.4,Win32,74.96251874,60d998951d34faf31fa0f85d,60d9d14f4a8a35a482e0d9bf,60edee8989e46a0fc67a28c8,j,2.435,0,25,25,32,1,ROOOOOO,ROOOOOR,19.92253567,21.27974287,series_1
,,,,,,,,60d998951d34faf31fa0f85d,Mężczyzna,23,2021-07-13_21h50.55.122,rantool2,2021.1.4,Win32,74.96251874,60d998951d34faf31fa0f85d,60d9d14f4a8a35a482e0d9bf,60edee8989e46a0fc67a28c8,f,3.406,0,26,26,38,1,ROORROO,ROORROR,21.79500819,21.36812781,series_0
,,,,,,,,60d998951d34faf31fa0f85d,Mężczyzna,23,2021-07-13_21h50.55.122,rantool2,2021.1.4,Win32,74.96251874,60d998951d34faf31fa0f85d,60d9d14f4a8a35a482e0d9bf,60edee8989e46a0fc67a28c8,f,2.702,0,27,27,6,1,OOORROO,OOORROR,21.12383932,21.38562617,series_1
,,,,,,,,60d998951d34faf31fa0f85d,Mężczyzna,23,2021-07-13_21h50.55.122,rantool2,2021.1.4,Win32,74.96251874,60d998951d34faf31fa0f85d,60d9d14f4a8a35a482e0d9bf,60edee8989e46a0fc67a28c8,f,1.655,0,28,28,29,1,ORRRORO,ORRRORR,22.00300695,22.12173012,series_1
,,,,,,,,60d998951d34faf31fa0f85d,Mężczyzna,23,2021-07-13_21h50.55.122,rantool2,2021.1.4,Win32,74.96251874,60d998951d34faf31fa0f85d,60d9d14f4a8a35a482e0d9bf,60edee8989e46a0fc67a28c8,f,2.095,0,29,29,30,1,ORRRROO,ORRRROR,22.46748491,22.03072203,series_0
,,,,,,,,60d998951d34faf31fa0f85d,Mężczyzna,23,2021-07-13_21h50.55.122,rantool2,2021.1.4,Win32,74.96251874,60d998951d34faf31fa0f85d,60d9d14f4a8a35a482e0d9bf,60edee8989e46a0fc67a28c8,j,2.822,0,30,30,37,1,ROORORO,ROORORR,20.42602454,21.57657071,series_1
,,,,,,,,60d998951d34faf31fa0f85d,Mężczyzna,23,2021-07-13_21h50.55.122,rantool2,2021.1.4,Win32,74.96251874,60d998951d34faf31fa0f85d,60d9d14f4a8a35a482e0d9bf,60edee8989e46a0fc67a28c8,f,1.668,0,31,31,8,1,OOROOOO,OOROOOR,19.91402015,20.89823192,series_1
,,,,,,,,60d998951d34faf31fa0f85d,Mężczyzna,23,2021-07-13_21h50.55.122,rantool2,2021.1.4,Win32,74.96251874,60d998951d34faf31fa0f85d,60d9d14f4a8a35a482e0d9bf,60edee8989e46a0fc67a28c8,j,2.032,0,32,32,59,1,RRRORRO,RRRORRR,21.56657303,20.89823192,series_0
,,,,,,,,60d998951d34faf31fa0f85d,Mężczyzna,23,2021-07-13_21h50.55.122,rantool2,2021.1.4,Win32,74.96251874,60d998951d34faf31fa0f85d,60d9d14f4a8a35a482e0d9bf,60edee8989e46a0fc67a28c8,j,2.662,0,33,33,39,1,ROORRRO,ROORRRR,21.82425538,21.38562617,series_0
,,,,,,,,60d998951d34faf31fa0f85d,Mężczyzna,23,2021-07-13_21h50.55.122,rantool2,2021.1.4,Win32,74.96251874,60d998951d34faf31fa0f85d,60d9d14f4a8a35a482e0d9bf,60edee8989e46a0fc67a28c8,j,2.363,0,34,34,57,1,RRROORO,RRROORR,21.82425538,22.07102821,series_1
,,,,,,,,60d998951d34faf31fa0f85d,Mężczyzna,23,2021-07-13_21h50.55.122,rantool2,2021.1.4,Win32,74.96251874,60d998951d34faf31fa0f85d,60d9d14f4a8a35a482e0d9bf,60edee8989e46a0fc67a28c8,f,2.658,0,35,35,14,1,OORRROO,OORRROR,22.24142883,22.16977179,series_0
,,,,,,,,60d998951d34faf31fa0f85d,Mężczyzna,23,2021-07-13_21h50.55.122,rantool2,2021.1.4,Win32,74.96251874,60d998951d34faf31fa0f85d,60d9d14f4a8a35a482e0d9bf,60edee8989e46a0fc67a28c8,j,1.941,0,36,36,0,1,OOOOOOO,OOOOOOR,18.52739004,19.62521613,series_1
,,,,,,,,60d998951d34faf31fa0f85d,Mężczyzna,23,2021-07-13_21h50.55.122,rantool2,2021.1.4,Win32,74.96251874,60d998951d34faf31fa0f85d,60d9d14f4a8a35a482e0d9bf,60edee8989e46a0fc67a28c8,j,3.766,0,37,37,22,1,ORORROO,ORORROR,22.02732763,21.57657071,series_0
,,,,,,,,60d998951d34faf31fa0f85d,Mężczyzna,23,2021-07-13_21h50.55.122,rantool2,2021.1.4,Win32,74.96251874,60d998951d34faf31fa0f85d,60d9d14f4a8a35a482e0d9bf,60edee8989e46a0fc67a28c8,f,2.541,0,38,38,41,1,ROROORO,ROROORR,20.42602454,21.71443381,series_1
,,,,,,,,60d998951d34faf31fa0f85d,Mężczyzna,23,2021-07-13_21h50.55.122,rantool2,2021.1.4,Win32,74.96251874,60d998951d34faf31fa0f85d,60d9d14f4a8a35a482e0d9bf,60edee8989e46a0fc67a28c8,f,2.139,0,39,39,31,1,ORRRRRO,ORRRRRR,22.16413392,20.74050628,series_0
,,,,,,,,60d998951d34faf31fa0f85d,Mężczyzna,23,2021-07-13_21h50.55.122,rantool2,2021.1.4,Win32,74.96251874,60d998951d34faf31fa0f85d,60d9d14f4a8a35a482e0d9bf,60edee8989e46a0fc67a28c8,j,3.29,0,40,40,24,1,ORROOOO,ORROOOR,21.12383932,22.07102821,series_1
,,,,,,,,60d998951d34faf31fa0f85d,Mężczyzna,23,2021-07-13_21h50.55.122,rantool2,2021.1.4,Win32,74.96251874,60d998951d34faf31fa0f85d,60d9d14f4a8a35a482e0d9bf,60edee8989e46a0fc67a28c8,f,1.562,0,41,41,56,1,RRROOOO,RRROOOR,21.6194508,22.31681875,series_1
,,,,,,,,60d998951d34faf31fa0f85d,Mężczyzna,23,2021-07-13_21h50.55.122,rantool2,2021.1.4,Win32,74.96251874,60d998951d34faf31fa0f85d,60d9d14f4a8a35a482e0d9bf,60edee8989e46a0fc67a28c8,f,1.328,0,42,42,5,1,OOORORO,OOORORR,20.87963819,21.9921709,series_1
,,,,,,,,60d998951d34faf31fa0f85d,Mężczyzna,23,2021-07-13_21h50.55.122,rantool2,2021.1.4,Win32,74.96251874,60d998951d34faf31fa0f85d,60d9d14f4a8a35a482e0d9bf,60edee8989e46a0fc67a28c8,j,1.402,0,43,43,45,1,RORRORO,RORRORR,20.78182524,21.22513037,series_1
,,,,,,,,60d998951d34faf31fa0f85d,Mężczyzna,23,2021-07-13_21h50.55.122,rantool2,2021.1.4,Win32,74.96251874,60d998951d34faf31fa0f85d,60d9d14f4a8a35a482e0d9bf,60edee8989e46a0fc67a28c8,f,2.663,0,44,44,1,1,OOOOORO,OOOOORR,19.92253567,20.74050628,series_1
,,,,,,,,60d998951d34faf31fa0f85d,Mężczyzna,23,2021-07-13_21h50.55.122,rantool2,2021.1.4,Win32,74.96251874,60d998951d34faf31fa0f85d,60d9d14f4a8a35a482e0d9bf,60edee8989e46a0fc67a28c8,f,2.815,0,45,45,10,1,OOROROO,OOROROR,21.31236711,21.07490964,series_0
,,,,,,,,60d998951d34faf31fa0f85d,Mężczyzna,23,2021-07-13_21h50.55.122,rantool2,2021.1.4,Win32,74.96251874,60d998951d34faf31fa0f85d,60d9d14f4a8a35a482e0d9bf,60edee8989e46a0fc67a28c8,j,1.858,0,46,46,61,1,RRRRORO,RRRRORR,21.81333602,21.17347734,series_0
,,,,,,,,60d998951d34faf31fa0f85d,Mężczyzna,23,2021-07-13_21h50.55.122,rantool2,2021.1.4,Win32,74.96251874,60d998951d34faf31fa0f85d,60d9d14f4a8a35a482e0d9bf,60edee8989e46a0fc67a28c8,f,1.956,0,47,47,36,1,ROOROOO,ROOROOR,21.07991943,20.9984461,series_0
,,,,,,,,60d998951d34faf31fa0f85d,Mężczyzna,23,2021-07-13_21h50.55.122,rantool2,2021.1.4,Win32,74.96251874,60d998951d34faf31fa0f85d,60d9d14f4a8a35a482e0d9bf,60edee8989e46a0fc67a28c8,f,1.461,0,48,48,33,1,ROOOORO,ROOOORR,20.83779602,22.03072203,series_1
,,,,,,,,60d998951d34faf31fa0f85d,Mężczyzna,23,2021-07-13_21h50.55.122,rantool2,2021.1.4,Win32,74.96251874,60d998951d34faf31fa0f85d,60d9d14f4a8a35a482e0d9bf,60edee8989e46a0fc67a28c8,f,2.576,0,49,49,49,1,RROOORO,RROOORR,21.76276513,22.53364006,series_1
,,,,,,,,60d998951d34faf31fa0f85d,Mężczyzna,23,2021-07-13_21h50.55.122,rantool2,2021.1.4,Win32,74.96251874,60d998951d34faf31fa0f85d,60d9d14f4a8a35a482e0d9bf,60edee8989e46a0fc67a28c8,f,1.669,0,50,50,7,1,OOORRRO,OOORRRR,21.6194508,21.899017,series_1
,,,,,,,,60d998951d34faf31fa0f85d,Mężczyzna,23,2021-07-13_21h50.55.122,rantool2,2021.1.4,Win32,74.96251874,60d998951d34faf31fa0f85d,60d9d14f4a8a35a482e0d9bf,60edee8989e46a0fc67a28c8,j,3.003,0,51,51,51,1,RROORRO,RROORRR,21.89852628,22.02786418,series_1
,,,,,,,,60d998951d34faf31fa0f85d,Mężczyzna,23,2021-07-13_21h50.55.122,rantool2,2021.1.4,Win32,74.96251874,60d998951d34faf31fa0f85d,60d9d14f4a8a35a482e0d9bf,60edee8989e46a0fc67a28c8,j,3.259,0,52,52,40,1,ROROOOO,ROROOOR,20.87963819,21.37121559,series_1
,,,,,,,,60d998951d34faf31fa0f85d,Mężczyzna,23,2021-07-13_21h50.55.122,rantool2,2021.1.4,Win32,74.96251874,60d998951d34faf31fa0f85d,60d9d14f4a8a35a482e0d9bf,60edee8989e46a0fc67a28c8,f,1.258,0,53,53,47,1,RORRRRO,RORRRRR,21.81333602,21.02936224,series_0
,,,,,,,,60d998951d34faf31fa0f85d,Mężczyzna,23,2021-07-13_21h50.55.122,rantool2,2021.1.4,Win32,74.96251874,60d998951d34faf31fa0f85d,60d9d14f4a8a35a482e0d9bf,60edee8989e46a0fc67a28c8,f,1.261,0,54,54,3,1,OOOORRO,OOOORRR,20.90986523,21.74922619,series_1
,,,,,,,,60d998951d34faf31fa0f85d,Mężczyzna,23,2021-07-13_21h50.55.122,rantool2,2021.1.4,Win32,74.96251874,60d998951d34faf31fa0f85d,60d9d14f4a8a35a482e0d9bf,60edee8989e46a0fc67a28c8,f,1.784,0,55,55,52,1,RROROOO,RROROOR,22.18365867,22.11097995,series_0
,,,,,,,,60d998951d34faf31fa0f85d,Mężczyzna,23,2021-07-13_21h50.55.122,rantool2,2021.1.4,Win32,74.96251874,60d998951d34faf31fa0f85d,60d9d14f4a8a35a482e0d9bf,60edee8989e46a0fc67a28c8,j,1.859,0,56,56,63,1,RRRRRRO,RRRRRRR,21.35278725,19.62521613,series_0
,,,,,,,,60d998951d34faf31fa0f85d,Mężczyzna,23,2021-07-13_21h50.55.122,rantool2,2021.1.4,Win32,74.96251874,60d998951d34faf31fa0f85d,60d9d14f4a8a35a482e0d9bf,60edee8989e46a0fc67a28c8,f,1.709,0,57,57,58,1,RRROROO,RRROROR,22.1285618,21.37121559,series_0
,,,,,,,,60d998951d34faf31fa0f85d,Mężczyzna,23,2021-07-13_21h50.55.122,rantool2,2021.1.4,Win32,74.96251874,60d998951d34faf31fa0f85d,60d9d14f4a8a35a482e0d9bf,60edee8989e46a0fc67a28c8,j,1.482,0,58,58,13,1,OORRORO,OORRORR,21.66733484,22.11181017,series_1
,,,,,,,,60d998951d34faf31fa0f85d,Mężczyzna,23,2021-07-13_21h50.55.122,rantool2,2021.1.4,Win32,74.96251874,60d998951d34faf31fa0f85d,60d9d14f4a8a35a482e0d9bf,60edee8989e46a0fc67a28c8,f,1.921,0,59,59,55,1,RRORRRO,RRORRRR,21.56657303,21.21223021,series_0
,,,,,,,,60d998951d34faf31fa0f85d,Mężczyzna,23,2021-07-13_21h50.55.122,rantool2,2021.1.4,Win32,74.96251874,60d998951d34faf31fa0f85d,60d9d14f4a8a35a482e0d9bf,60edee8989e46a0fc67a28c8,f,2.058,0,60,60,15,1,OORRRRO,OORRRRR,22.10108823,21.74922619,series_0
,,,,,,,,60d998951d34faf31fa0f85d,Mężczyzna,23,2021-07-13_21h50.55.122,rantool2,2021.1.4,Win32,74.96251874,60d998951d34faf31fa0f85d,60d9d14f4a8a35a482e0d9bf,60edee8989e46a0fc67a28c8,f,1.764,0,61,61,27,1,ORRORRO,ORRORRR,21.55250791,22.2428857,series_1
,,,,,,,,60d998951d34faf31fa0f85d,Mężczyzna,23,2021-07-13_21h50.55.122,rantool2,2021.1.4,Win32,74.96251874,60d998951d34faf31fa0f85d,60d9d14f4a8a35a482e0d9bf,60edee8989e46a0fc67a28c8,j,1.523,0,62,62,16,1,OROOOOO,OROOOOR,20.43051175,21.17347734,series_1
,,,,,,,,60d998951d34faf31fa0f85d,Mężczyzna,23,2021-07-13_21h50.55.122,rantool2,2021.1.4,Win32,74.96251874,60d998951d34faf31fa0f85d,60d9d14f4a8a35a482e0d9bf,60edee8989e46a0fc67a28c8,j,3.312,0,63,63,9,1,OOROORO,OOROORR,21.07991943,22.2428857,series_1
