key_resp_7.keys,key_resp_7.rt,trials_2.thisRepN,trials_2.thisTrialN,trials_2.thisN,trials_2.thisIndex,trials_2.ran,id,series_0,series_1,acss_0,acss_1,comparison,id*,Płeć*,Wiek*,date,expName,psychopyVersion,OS,frameRate,STUDY_ID,SESSION_ID,key_resp_5.keys,key_resp_5.corr,key_resp_5.rt,trials.thisRepN,trials.thisTrialN,trials.thisN,trials.thisIndex,trials.ran
f,2.2743,0,0,0,29,1,6107d55f3aa95291f0ff52bd,ORRRORO,ORRRORR,22.00300695,22.12173012,series_1,6107d55f3aa95291f0ff52bd,Kobieta,20,2021-09-06_19h21.04.414,rantool2,2021.1.4,Win32,59.64807635,6135e006383e6ea6c3d06a28,61364d7cbf1dba42454202a8,,,,,,,,
f,1.1578,0,1,1,27,1,6107d55f3aa95291f0ff52bd,ORRORRO,ORRORRR,21.55250791,22.2428857,series_1,6107d55f3aa95291f0ff52bd,Kobieta,20,2021-09-06_19h21.04.414,rantool2,2021.1.4,Win32,59.64807635,6135e006383e6ea6c3d06a28,61364d7cbf1dba42454202a8,,,,,,,,
j,1.0854,0,2,2,26,1,6107d55f3aa95291f0ff52bd,ORROROO,ORROROR,22.02732763,21.71443381,series_0,6107d55f3aa95291f0ff52bd,Kobieta,20,2021-09-06_19h21.04.414,rantool2,2021.1.4,Win32,59.64807635,6135e006383e6ea6c3d06a28,61364d7cbf1dba42454202a8,,,,,,,,
j,1.0644,0,3,3,37,1,6107d55f3aa95291f0ff52bd,ROORORO,ROORORR,20.42602454,21.57657071,series_1,6107d55f3aa95291f0ff52bd,Kobieta,20,2021-09-06_19h21.04.414,rantool2,2021.1.4,Win32,59.64807635,6135e006383e6ea6c3d06a28,61364d7cbf1dba42454202a8,,,,,,,,
j,1.2706,0,4,4,36,1,6107d55f3aa95291f0ff52bd,ROOROOO,ROOROOR,21.07991943,20.9984461,series_0,6107d55f3aa95291f0ff52bd,Kobieta,20,2021-09-06_19h21.04.414,rantool2,2021.1.4,Win32,59.64807635,6135e006383e6ea6c3d06a28,61364d7cbf1dba42454202a8,,,,,,,,
f,1.4438,0,5,5,54,1,6107d55f3aa95291f0ff52bd,RRORROO,RRORROR,21.55250791,20.9984461,series_0,6107d55f3aa95291f0ff52bd,Kobieta,20,2021-09-06_19h21.04.414,rantool2,2021.1.4,Win32,59.64807635,6135e006383e6ea6c3d06a28,61364d7cbf1dba42454202a8,,,,,,,,
f,3.3742,0,6,6,60,1,6107d55f3aa95291f0ff52bd,RRRROOO,RRRROOR,22.10108823,22.15934078,series_1,6107d55f3aa95291f0ff52bd,Kobieta,20,2021-09-06_19h21.04.414,rantool2,2021.1.4,Win32,59.64807635,6135e006383e6ea6c3d06a28,61364d7cbf1dba42454202a8,,,,,,,,
j,3.972,0,7,7,5,1,6107d55f3aa95291f0ff52bd,OOORORO,OOORORR,20.87963819,21.9921709,series_1,6107d55f3aa95291f0ff52bd,Kobieta,20,2021-09-06_19h21.04.414,rantool2,2021.1.4,Win32,59.64807635,6135e006383e6ea6c3d06a28,61364d7cbf1dba42454202a8,,,,,,,,
j,1.2436,0,8,8,0,1,6107d55f3aa95291f0ff52bd,OOOOOOO,OOOOOOR,18.52739004,19.62521613,series_1,6107d55f3aa95291f0ff52bd,Kobieta,20,2021-09-06_19h21.04.414,rantool2,2021.1.4,Win32,59.64807635,6135e006383e6ea6c3d06a28,61364d7cbf1dba42454202a8,,,,,,,,
f,3.2434,0,9,9,50,1,6107d55f3aa95291f0ff52bd,RROOROO,RROOROR,21.73568164,22.02566557,series_1,6107d55f3aa95291f0ff52bd,Kobieta,20,2021-09-06_19h21.04.414,rantool2,2021.1.4,Win32,59.64807635,6135e006383e6ea6c3d06a28,61364d7cbf1dba42454202a8,,,,,,,,
j,3.3389,0,10,10,42,1,6107d55f3aa95291f0ff52bd,ROROROO,ROROROR,20.39515459,19.8361834,series_0,6107d55f3aa95291f0ff52bd,Kobieta,20,2021-09-06_19h21.04.414,rantool2,2021.1.4,Win32,59.64807635,6135e006383e6ea6c3d06a28,61364d7cbf1dba42454202a8,,,,,,,,
f,1.7608,0,11,11,63,1,6107d55f3aa95291f0ff52bd,RRRRRRO,RRRRRRR,21.35278725,19.62521613,series_0,6107d55f3aa95291f0ff52bd,Kobieta,20,2021-09-06_19h21.04.414,rantool2,2021.1.4,Win32,59.64807635,6135e006383e6ea6c3d06a28,61364d7cbf1dba42454202a8,,,,,,,,
j,1.7388,0,12,12,28,1,6107d55f3aa95291f0ff52bd,ORRROOO,ORRROOR,22.24142883,22.53364006,series_1,6107d55f3aa95291f0ff52bd,Kobieta,20,2021-09-06_19h21.04.414,rantool2,2021.1.4,Win32,59.64807635,6135e006383e6ea6c3d06a28,61364d7cbf1dba42454202a8,,,,,,,,
f,1.5538,0,13,13,14,1,6107d55f3aa95291f0ff52bd,OORRROO,OORRROR,22.24142883,22.16977179,series_0,6107d55f3aa95291f0ff52bd,Kobieta,20,2021-09-06_19h21.04.414,rantool2,2021.1.4,Win32,59.64807635,6135e006383e6ea6c3d06a28,61364d7cbf1dba42454202a8,,,,,,,,
f,1.9645,0,14,14,53,1,6107d55f3aa95291f0ff52bd,RRORORO,RRORORR,20.71309134,21.90565814,series_1,6107d55f3aa95291f0ff52bd,Kobieta,20,2021-09-06_19h21.04.414,rantool2,2021.1.4,Win32,59.64807635,6135e006383e6ea6c3d06a28,61364d7cbf1dba42454202a8,,,,,,,,
f,2.0962,0,15,15,15,1,6107d55f3aa95291f0ff52bd,OORRRRO,OORRRRR,22.10108823,21.74922619,series_0,6107d55f3aa95291f0ff52bd,Kobieta,20,2021-09-06_19h21.04.414,rantool2,2021.1.4,Win32,59.64807635,6135e006383e6ea6c3d06a28,61364d7cbf1dba42454202a8,,,,,,,,
f,2.8965,0,16,16,41,1,6107d55f3aa95291f0ff52bd,ROROORO,ROROORR,20.42602454,21.71443381,series_1,6107d55f3aa95291f0ff52bd,Kobieta,20,2021-09-06_19h21.04.414,rantool2,2021.1.4,Win32,59.64807635,6135e006383e6ea6c3d06a28,61364d7cbf1dba42454202a8,,,,,,,,
f,1.5102,0,17,17,34,1,6107d55f3aa95291f0ff52bd,ROOOROO,ROOOROR,21.03750787,21.24781509,series_1,6107d55f3aa95291f0ff52bd,Kobieta,20,2021-09-06_19h21.04.414,rantool2,2021.1.4,Win32,59.64807635,6135e006383e6ea6c3d06a28,61364d7cbf1dba42454202a8,,,,,,,,
j,1.5633,0,18,18,19,1,6107d55f3aa95291f0ff52bd,OROORRO,OROORRR,21.73568164,22.11181017,series_1,6107d55f3aa95291f0ff52bd,Kobieta,20,2021-09-06_19h21.04.414,rantool2,2021.1.4,Win32,59.64807635,6135e006383e6ea6c3d06a28,61364d7cbf1dba42454202a8,,,,,,,,
f,1.297,0,19,19,23,1,6107d55f3aa95291f0ff52bd,ORORRRO,ORORRRR,22.1285618,21.9921709,series_0,6107d55f3aa95291f0ff52bd,Kobieta,20,2021-09-06_19h21.04.414,rantool2,2021.1.4,Win32,59.64807635,6135e006383e6ea6c3d06a28,61364d7cbf1dba42454202a8,,,,,,,,
f,2.4552,0,20,20,39,1,6107d55f3aa95291f0ff52bd,ROORRRO,ROORRRR,21.82425538,21.38562617,series_0,6107d55f3aa95291f0ff52bd,Kobieta,20,2021-09-06_19h21.04.414,rantool2,2021.1.4,Win32,59.64807635,6135e006383e6ea6c3d06a28,61364d7cbf1dba42454202a8,,,,,,,,
f,2.9087,0,21,21,3,1,6107d55f3aa95291f0ff52bd,OOOORRO,OOOORRR,20.90986523,21.74922619,series_1,6107d55f3aa95291f0ff52bd,Kobieta,20,2021-09-06_19h21.04.414,rantool2,2021.1.4,Win32,59.64807635,6135e006383e6ea6c3d06a28,61364d7cbf1dba42454202a8,,,,,,,,
j,2.4548,0,22,22,55,1,6107d55f3aa95291f0ff52bd,RRORRRO,RRORRRR,21.56657303,21.21223021,series_0,6107d55f3aa95291f0ff52bd,Kobieta,20,2021-09-06_19h21.04.414,rantool2,2021.1.4,Win32,59.64807635,6135e006383e6ea6c3d06a28,61364d7cbf1dba42454202a8,,,,,,,,
f,1.2706,0,23,23,4,1,6107d55f3aa95291f0ff52bd,OOOROOO,OOOROOR,19.91402015,21.21223021,series_1,6107d55f3aa95291f0ff52bd,Kobieta,20,2021-09-06_19h21.04.414,rantool2,2021.1.4,Win32,59.64807635,6135e006383e6ea6c3d06a28,61364d7cbf1dba42454202a8,,,,,,,,
j,1.5976,0,24,24,18,1,6107d55f3aa95291f0ff52bd,OROOROO,OROOROR,20.84860893,21.22513037,series_1,6107d55f3aa95291f0ff52bd,Kobieta,20,2021-09-06_19h21.04.414,rantool2,2021.1.4,Win32,59.64807635,6135e006383e6ea6c3d06a28,61364d7cbf1dba42454202a8,,,,,,,,
f,2.7057,0,25,25,7,1,6107d55f3aa95291f0ff52bd,OOORRRO,OOORRRR,21.6194508,21.899017,series_1,6107d55f3aa95291f0ff52bd,Kobieta,20,2021-09-06_19h21.04.414,rantool2,2021.1.4,Win32,59.64807635,6135e006383e6ea6c3d06a28,61364d7cbf1dba42454202a8,,,,,,,,
j,3.1569,0,26,26,8,1,6107d55f3aa95291f0ff52bd,OOROOOO,OOROOOR,19.91402015,20.89823192,series_1,6107d55f3aa95291f0ff52bd,Kobieta,20,2021-09-06_19h21.04.414,rantool2,2021.1.4,Win32,59.64807635,6135e006383e6ea6c3d06a28,61364d7cbf1dba42454202a8,,,,,,,,
f,1.7629,0,27,27,48,1,6107d55f3aa95291f0ff52bd,RROOOOO,RROOOOR,20.90986523,22.15934078,series_1,6107d55f3aa95291f0ff52bd,Kobieta,20,2021-09-06_19h21.04.414,rantool2,2021.1.4,Win32,59.64807635,6135e006383e6ea6c3d06a28,61364d7cbf1dba42454202a8,,,,,,,,
j,1.5068,0,28,28,13,1,6107d55f3aa95291f0ff52bd,OORRORO,OORRORR,21.66733484,22.11181017,series_1,6107d55f3aa95291f0ff52bd,Kobieta,20,2021-09-06_19h21.04.414,rantool2,2021.1.4,Win32,59.64807635,6135e006383e6ea6c3d06a28,61364d7cbf1dba42454202a8,,,,,,,,
f,2.0922,0,29,29,45,1,6107d55f3aa95291f0ff52bd,RORRORO,RORRORR,20.78182524,21.22513037,series_1,6107d55f3aa95291f0ff52bd,Kobieta,20,2021-09-06_19h21.04.414,rantool2,2021.1.4,Win32,59.64807635,6135e006383e6ea6c3d06a28,61364d7cbf1dba42454202a8,,,,,,,,
j,3.6881,0,30,30,43,1,6107d55f3aa95291f0ff52bd,RORORRO,RORORRR,20.71309134,21.07490964,series_1,6107d55f3aa95291f0ff52bd,Kobieta,20,2021-09-06_19h21.04.414,rantool2,2021.1.4,Win32,59.64807635,6135e006383e6ea6c3d06a28,61364d7cbf1dba42454202a8,,,,,,,,
f,1.9274,0,31,31,16,1,6107d55f3aa95291f0ff52bd,OROOOOO,OROOOOR,20.43051175,21.17347734,series_1,6107d55f3aa95291f0ff52bd,Kobieta,20,2021-09-06_19h21.04.414,rantool2,2021.1.4,Win32,59.64807635,6135e006383e6ea6c3d06a28,61364d7cbf1dba42454202a8,,,,,,,,
j,1.5898,0,32,32,44,1,6107d55f3aa95291f0ff52bd,RORROOO,RORROOR,21.66733484,22.02566557,series_1,6107d55f3aa95291f0ff52bd,Kobieta,20,2021-09-06_19h21.04.414,rantool2,2021.1.4,Win32,59.64807635,6135e006383e6ea6c3d06a28,61364d7cbf1dba42454202a8,,,,,,,,
f,1.658,0,33,33,12,1,6107d55f3aa95291f0ff52bd,OORROOO,OORROOR,21.30250474,22.02786418,series_1,6107d55f3aa95291f0ff52bd,Kobieta,20,2021-09-06_19h21.04.414,rantool2,2021.1.4,Win32,59.64807635,6135e006383e6ea6c3d06a28,61364d7cbf1dba42454202a8,,,,,,,,
f,1.4916,0,34,34,61,1,6107d55f3aa95291f0ff52bd,RRRRORO,RRRRORR,21.81333602,21.17347734,series_0,6107d55f3aa95291f0ff52bd,Kobieta,20,2021-09-06_19h21.04.414,rantool2,2021.1.4,Win32,59.64807635,6135e006383e6ea6c3d06a28,61364d7cbf1dba42454202a8,,,,,,,,
j,1.804,0,35,35,62,1,6107d55f3aa95291f0ff52bd,RRRRROO,RRRRROR,22.16413392,21.27974287,series_0,6107d55f3aa95291f0ff52bd,Kobieta,20,2021-09-06_19h21.04.414,rantool2,2021.1.4,Win32,59.64807635,6135e006383e6ea6c3d06a28,61364d7cbf1dba42454202a8,,,,,,,,
j,3.089,0,36,36,2,1,6107d55f3aa95291f0ff52bd,OOOOROO,OOOOROR,20.43051175,21.02936224,series_1,6107d55f3aa95291f0ff52bd,Kobieta,20,2021-09-06_19h21.04.414,rantool2,2021.1.4,Win32,59.64807635,6135e006383e6ea6c3d06a28,61364d7cbf1dba42454202a8,,,,,,,,
j,1.5886,0,37,37,17,1,6107d55f3aa95291f0ff52bd,OROOORO,OROOORR,21.03750787,22.12173012,series_1,6107d55f3aa95291f0ff52bd,Kobieta,20,2021-09-06_19h21.04.414,rantool2,2021.1.4,Win32,59.64807635,6135e006383e6ea6c3d06a28,61364d7cbf1dba42454202a8,,,,,,,,
j,1.1705,0,38,38,40,1,6107d55f3aa95291f0ff52bd,ROROOOO,ROROOOR,20.87963819,21.37121559,series_1,6107d55f3aa95291f0ff52bd,Kobieta,20,2021-09-06_19h21.04.414,rantool2,2021.1.4,Win32,59.64807635,6135e006383e6ea6c3d06a28,61364d7cbf1dba42454202a8,,,,,,,,
f,1.7396,0,39,39,31,1,6107d55f3aa95291f0ff52bd,ORRRRRO,ORRRRRR,22.16413392,20.74050628,series_0,6107d55f3aa95291f0ff52bd,Kobieta,20,2021-09-06_19h21.04.414,rantool2,2021.1.4,Win32,59.64807635,6135e006383e6ea6c3d06a28,61364d7cbf1dba42454202a8,,,,,,,,
j,3.1077,0,40,40,51,1,6107d55f3aa95291f0ff52bd,RROORRO,RROORRR,21.89852628,22.02786418,series_1,6107d55f3aa95291f0ff52bd,Kobieta,20,2021-09-06_19h21.04.414,rantool2,2021.1.4,Win32,59.64807635,6135e006383e6ea6c3d06a28,61364d7cbf1dba42454202a8,,,,,,,,
f,1.2905,0,41,41,32,1,6107d55f3aa95291f0ff52bd,ROOOOOO,ROOOOOR,19.92253567,21.27974287,series_1,6107d55f3aa95291f0ff52bd,Kobieta,20,2021-09-06_19h21.04.414,rantool2,2021.1.4,Win32,59.64807635,6135e006383e6ea6c3d06a28,61364d7cbf1dba42454202a8,,,,,,,,
j,3.3608,0,42,42,35,1,6107d55f3aa95291f0ff52bd,ROOORRO,ROOORRR,21.76276513,22.16977179,series_1,6107d55f3aa95291f0ff52bd,Kobieta,20,2021-09-06_19h21.04.414,rantool2,2021.1.4,Win32,59.64807635,6135e006383e6ea6c3d06a28,61364d7cbf1dba42454202a8,,,,,,,,
f,1.5705,0,43,43,47,1,6107d55f3aa95291f0ff52bd,RORRRRO,RORRRRR,21.81333602,21.02936224,series_0,6107d55f3aa95291f0ff52bd,Kobieta,20,2021-09-06_19h21.04.414,rantool2,2021.1.4,Win32,59.64807635,6135e006383e6ea6c3d06a28,61364d7cbf1dba42454202a8,,,,,,,,
j,1.848,0,44,44,20,1,6107d55f3aa95291f0ff52bd,OROROOO,OROROOR,21.31236711,21.90565814,series_1,6107d55f3aa95291f0ff52bd,Kobieta,20,2021-09-06_19h21.04.414,rantool2,2021.1.4,Win32,59.64807635,6135e006383e6ea6c3d06a28,61364d7cbf1dba42454202a8,,,,,,,,
f,1.5939,0,45,45,57,1,6107d55f3aa95291f0ff52bd,RRROORO,RRROORR,21.82425538,22.07102821,series_1,6107d55f3aa95291f0ff52bd,Kobieta,20,2021-09-06_19h21.04.414,rantool2,2021.1.4,Win32,59.64807635,6135e006383e6ea6c3d06a28,61364d7cbf1dba42454202a8,,,,,,,,
j,1.3425,0,46,46,59,1,6107d55f3aa95291f0ff52bd,RRRORRO,RRRORRR,21.56657303,20.89823192,series_0,6107d55f3aa95291f0ff52bd,Kobieta,20,2021-09-06_19h21.04.414,rantool2,2021.1.4,Win32,59.64807635,6135e006383e6ea6c3d06a28,61364d7cbf1dba42454202a8,,,,,,,,
j,1.7623,0,47,47,25,1,6107d55f3aa95291f0ff52bd,ORROORO,ORROORR,21.79500819,22.61624387,series_1,6107d55f3aa95291f0ff52bd,Kobieta,20,2021-09-06_19h21.04.414,rantool2,2021.1.4,Win32,59.64807635,6135e006383e6ea6c3d06a28,61364d7cbf1dba42454202a8,,,,,,,,
j,1.6902,0,48,48,22,1,6107d55f3aa95291f0ff52bd,ORORROO,ORORROR,22.02732763,21.57657071,series_0,6107d55f3aa95291f0ff52bd,Kobieta,20,2021-09-06_19h21.04.414,rantool2,2021.1.4,Win32,59.64807635,6135e006383e6ea6c3d06a28,61364d7cbf1dba42454202a8,,,,,,,,
f,1.4033,0,49,49,56,1,6107d55f3aa95291f0ff52bd,RRROOOO,RRROOOR,21.6194508,22.31681875,series_1,6107d55f3aa95291f0ff52bd,Kobieta,20,2021-09-06_19h21.04.414,rantool2,2021.1.4,Win32,59.64807635,6135e006383e6ea6c3d06a28,61364d7cbf1dba42454202a8,,,,,,,,
f,2.0607,0,50,50,46,1,6107d55f3aa95291f0ff52bd,RORRROO,RORRROR,22.00300695,21.24781509,series_0,6107d55f3aa95291f0ff52bd,Kobieta,20,2021-09-06_19h21.04.414,rantool2,2021.1.4,Win32,59.64807635,6135e006383e6ea6c3d06a28,61364d7cbf1dba42454202a8,,,,,,,,
f,1.3742,0,51,51,6,1,6107d55f3aa95291f0ff52bd,OOORROO,OOORROR,21.12383932,21.38562617,series_1,6107d55f3aa95291f0ff52bd,Kobieta,20,2021-09-06_19h21.04.414,rantool2,2021.1.4,Win32,59.64807635,6135e006383e6ea6c3d06a28,61364d7cbf1dba42454202a8,,,,,,,,
j,1.7209,0,52,52,10,1,6107d55f3aa95291f0ff52bd,OOROROO,OOROROR,21.31236711,21.07490964,series_0,6107d55f3aa95291f0ff52bd,Kobieta,20,2021-09-06_19h21.04.414,rantool2,2021.1.4,Win32,59.64807635,6135e006383e6ea6c3d06a28,61364d7cbf1dba42454202a8,,,,,,,,
j,1.8306,0,53,53,58,1,6107d55f3aa95291f0ff52bd,RRROROO,RRROROR,22.1285618,21.37121559,series_0,6107d55f3aa95291f0ff52bd,Kobieta,20,2021-09-06_19h21.04.414,rantool2,2021.1.4,Win32,59.64807635,6135e006383e6ea6c3d06a28,61364d7cbf1dba42454202a8,,,,,,,,
f,1.3378,0,54,54,33,1,6107d55f3aa95291f0ff52bd,ROOOORO,ROOOORR,20.83779602,22.03072203,series_1,6107d55f3aa95291f0ff52bd,Kobieta,20,2021-09-06_19h21.04.414,rantool2,2021.1.4,Win32,59.64807635,6135e006383e6ea6c3d06a28,61364d7cbf1dba42454202a8,,,,,,,,
f,2.9925,0,55,55,21,1,6107d55f3aa95291f0ff52bd,ORORORO,ORORORR,20.39515459,22.06781359,series_1,6107d55f3aa95291f0ff52bd,Kobieta,20,2021-09-06_19h21.04.414,rantool2,2021.1.4,Win32,59.64807635,6135e006383e6ea6c3d06a28,61364d7cbf1dba42454202a8,,,,,,,,
f,1.6031,0,56,56,30,1,6107d55f3aa95291f0ff52bd,ORRRROO,ORRRROR,22.46748491,22.03072203,series_0,6107d55f3aa95291f0ff52bd,Kobieta,20,2021-09-06_19h21.04.414,rantool2,2021.1.4,Win32,59.64807635,6135e006383e6ea6c3d06a28,61364d7cbf1dba42454202a8,,,,,,,,
j,1.3048,0,57,57,9,1,6107d55f3aa95291f0ff52bd,OOROORO,OOROORR,21.07991943,22.2428857,series_1,6107d55f3aa95291f0ff52bd,Kobieta,20,2021-09-06_19h21.04.414,rantool2,2021.1.4,Win32,59.64807635,6135e006383e6ea6c3d06a28,61364d7cbf1dba42454202a8,,,,,,,,
j,1.8728,0,58,58,24,1,6107d55f3aa95291f0ff52bd,ORROOOO,ORROOOR,21.12383932,22.07102821,series_1,6107d55f3aa95291f0ff52bd,Kobieta,20,2021-09-06_19h21.04.414,rantool2,2021.1.4,Win32,59.64807635,6135e006383e6ea6c3d06a28,61364d7cbf1dba42454202a8,,,,,,,,
f,1.6977,0,59,59,52,1,6107d55f3aa95291f0ff52bd,RROROOO,RROROOR,22.18365867,22.11097995,series_0,6107d55f3aa95291f0ff52bd,Kobieta,20,2021-09-06_19h21.04.414,rantool2,2021.1.4,Win32,59.64807635,6135e006383e6ea6c3d06a28,61364d7cbf1dba42454202a8,,,,,,,,
j,1.5731,0,60,60,11,1,6107d55f3aa95291f0ff52bd,OORORRO,OORORRR,22.18365867,22.6797523,series_1,6107d55f3aa95291f0ff52bd,Kobieta,20,2021-09-06_19h21.04.414,rantool2,2021.1.4,Win32,59.64807635,6135e006383e6ea6c3d06a28,61364d7cbf1dba42454202a8,,,,,,,,
j,1.6881,0,61,61,49,1,6107d55f3aa95291f0ff52bd,RROOORO,RROOORR,21.76276513,22.53364006,series_1,6107d55f3aa95291f0ff52bd,Kobieta,20,2021-09-06_19h21.04.414,rantool2,2021.1.4,Win32,59.64807635,6135e006383e6ea6c3d06a28,61364d7cbf1dba42454202a8,,,,,,,,
f,2.1216,0,62,62,1,1,6107d55f3aa95291f0ff52bd,OOOOORO,OOOOORR,19.92253567,20.74050628,series_1,6107d55f3aa95291f0ff52bd,Kobieta,20,2021-09-06_19h21.04.414,rantool2,2021.1.4,Win32,59.64807635,6135e006383e6ea6c3d06a28,61364d7cbf1dba42454202a8,,,,,,,,
j,1.3085,0,63,63,38,1,6107d55f3aa95291f0ff52bd,ROORROO,ROORROR,21.79500819,21.36812781,series_0,6107d55f3aa95291f0ff52bd,Kobieta,20,2021-09-06_19h21.04.414,rantool2,2021.1.4,Win32,59.64807635,6135e006383e6ea6c3d06a28,61364d7cbf1dba42454202a8,,,,,,,,
,,,,,,,6107d55f3aa95291f0ff52bd,,,,,,6107d55f3aa95291f0ff52bd,Kobieta,20,2021-09-06_19h21.04.414,rantool2,2021.1.4,Win32,59.64807635,6135e006383e6ea6c3d06a28,61364d7cbf1dba42454202a8,"[""comma""]",0,[0.7144000000953952],0,0,0,0,1
,,,,,,,6107d55f3aa95291f0ff52bd,,,,,,6107d55f3aa95291f0ff52bd,Kobieta,20,2021-09-06_19h21.04.414,rantool2,2021.1.4,Win32,59.64807635,6135e006383e6ea6c3d06a28,61364d7cbf1dba42454202a8,"[""comma""]",0,[0.3550000000000182],1,0,1,0,1
,,,,,,,6107d55f3aa95291f0ff52bd,,,,,,6107d55f3aa95291f0ff52bd,Kobieta,20,2021-09-06_19h21.04.414,rantool2,2021.1.4,Win32,59.64807635,6135e006383e6ea6c3d06a28,61364d7cbf1dba42454202a8,"[""period""]",0,[0.29430000019073077],2,0,2,0,1
,,,,,,,6107d55f3aa95291f0ff52bd,,,,,,6107d55f3aa95291f0ff52bd,Kobieta,20,2021-09-06_19h21.04.414,rantool2,2021.1.4,Win32,59.64807635,6135e006383e6ea6c3d06a28,61364d7cbf1dba42454202a8,"[""comma""]",0,[0.2909000000954052],3,0,3,0,1
,,,,,,,6107d55f3aa95291f0ff52bd,,,,,,6107d55f3aa95291f0ff52bd,Kobieta,20,2021-09-06_19h21.04.414,rantool2,2021.1.4,Win32,59.64807635,6135e006383e6ea6c3d06a28,61364d7cbf1dba42454202a8,"[""period""]",0,[0.2723000001907394],4,0,4,0,1
,,,,,,,6107d55f3aa95291f0ff52bd,,,,,,6107d55f3aa95291f0ff52bd,Kobieta,20,2021-09-06_19h21.04.414,rantool2,2021.1.4,Win32,59.64807635,6135e006383e6ea6c3d06a28,61364d7cbf1dba42454202a8,"[""period""]",0,[0.23869999980922785],5,0,5,0,1
,,,,,,,6107d55f3aa95291f0ff52bd,,,,,,6107d55f3aa95291f0ff52bd,Kobieta,20,2021-09-06_19h21.04.414,rantool2,2021.1.4,Win32,59.64807635,6135e006383e6ea6c3d06a28,61364d7cbf1dba42454202a8,"[""period""]",0,[0.2799000000953811],6,0,6,0,1
,,,,,,,6107d55f3aa95291f0ff52bd,,,,,,6107d55f3aa95291f0ff52bd,Kobieta,20,2021-09-06_19h21.04.414,rantool2,2021.1.4,Win32,59.64807635,6135e006383e6ea6c3d06a28,61364d7cbf1dba42454202a8,"[""comma""]",0,[0.2738000001907608],7,0,7,0,1
,,,,,,,6107d55f3aa95291f0ff52bd,,,,,,6107d55f3aa95291f0ff52bd,Kobieta,20,2021-09-06_19h21.04.414,rantool2,2021.1.4,Win32,59.64807635,6135e006383e6ea6c3d06a28,61364d7cbf1dba42454202a8,"[""period""]",0,[0.2561999998092688],8,0,8,0,1
,,,,,,,6107d55f3aa95291f0ff52bd,,,,,,6107d55f3aa95291f0ff52bd,Kobieta,20,2021-09-06_19h21.04.414,rantool2,2021.1.4,Win32,59.64807635,6135e006383e6ea6c3d06a28,61364d7cbf1dba42454202a8,"[""comma""]",0,[0.21480000019073486],9,0,9,0,1
,,,,,,,6107d55f3aa95291f0ff52bd,,,,,,6107d55f3aa95291f0ff52bd,Kobieta,20,2021-09-06_19h21.04.414,rantool2,2021.1.4,Win32,59.64807635,6135e006383e6ea6c3d06a28,61364d7cbf1dba42454202a8,"[""comma""]",0,[0.2459999999999809],10,0,10,0,1
,,,,,,,6107d55f3aa95291f0ff52bd,,,,,,6107d55f3aa95291f0ff52bd,Kobieta,20,2021-09-06_19h21.04.414,rantool2,2021.1.4,Win32,59.64807635,6135e006383e6ea6c3d06a28,61364d7cbf1dba42454202a8,"[""comma""]",0,[0.2751000003814852],11,0,11,0,1
,,,,,,,6107d55f3aa95291f0ff52bd,,,,,,6107d55f3aa95291f0ff52bd,Kobieta,20,2021-09-06_19h21.04.414,rantool2,2021.1.4,Win32,59.64807635,6135e006383e6ea6c3d06a28,61364d7cbf1dba42454202a8,"[""period""]",0,[0.23969999980926104],12,0,12,0,1
,,,,,,,6107d55f3aa95291f0ff52bd,,,,,,6107d55f3aa95291f0ff52bd,Kobieta,20,2021-09-06_19h21.04.414,rantool2,2021.1.4,Win32,59.64807635,6135e006383e6ea6c3d06a28,61364d7cbf1dba42454202a8,"[""period""]",0,[0.22609999990459073],13,0,13,0,1
,,,,,,,6107d55f3aa95291f0ff52bd,,,,,,6107d55f3aa95291f0ff52bd,Kobieta,20,2021-09-06_19h21.04.414,rantool2,2021.1.4,Win32,59.64807635,6135e006383e6ea6c3d06a28,61364d7cbf1dba42454202a8,"[""comma""]",0,[0.21009999990462802],14,0,14,0,1
,,,,,,,6107d55f3aa95291f0ff52bd,,,,,,6107d55f3aa95291f0ff52bd,Kobieta,20,2021-09-06_19h21.04.414,rantool2,2021.1.4,Win32,59.64807635,6135e006383e6ea6c3d06a28,61364d7cbf1dba42454202a8,"[""period""]",0,[0.24809999990463893],15,0,15,0,1
,,,,,,,6107d55f3aa95291f0ff52bd,,,,,,6107d55f3aa95291f0ff52bd,Kobieta,20,2021-09-06_19h21.04.414,rantool2,2021.1.4,Win32,59.64807635,6135e006383e6ea6c3d06a28,61364d7cbf1dba42454202a8,"[""period""]",0,[0.2105999999046162],16,0,16,0,1
,,,,,,,6107d55f3aa95291f0ff52bd,,,,,,6107d55f3aa95291f0ff52bd,Kobieta,20,2021-09-06_19h21.04.414,rantool2,2021.1.4,Win32,59.64807635,6135e006383e6ea6c3d06a28,61364d7cbf1dba42454202a8,"[""period""]",0,[0.17430000019072622],17,0,17,0,1
,,,,,,,6107d55f3aa95291f0ff52bd,,,,,,6107d55f3aa95291f0ff52bd,Kobieta,20,2021-09-06_19h21.04.414,rantool2,2021.1.4,Win32,59.64807635,6135e006383e6ea6c3d06a28,61364d7cbf1dba42454202a8,"[""comma""]",0,[0.19799999999997908],18,0,18,0,1
,,,,,,,6107d55f3aa95291f0ff52bd,,,,,,6107d55f3aa95291f0ff52bd,Kobieta,20,2021-09-06_19h21.04.414,rantool2,2021.1.4,Win32,59.64807635,6135e006383e6ea6c3d06a28,61364d7cbf1dba42454202a8,"[""comma""]",0,[0.2229000000953647],19,0,19,0,1
,,,,,,,6107d55f3aa95291f0ff52bd,,,,,,6107d55f3aa95291f0ff52bd,Kobieta,20,2021-09-06_19h21.04.414,rantool2,2021.1.4,Win32,59.64807635,6135e006383e6ea6c3d06a28,61364d7cbf1dba42454202a8,"[""period""]",0,[0.22920000028608456],20,0,20,0,1
,,,,,,,6107d55f3aa95291f0ff52bd,,,,,,6107d55f3aa95291f0ff52bd,Kobieta,20,2021-09-06_19h21.04.414,rantool2,2021.1.4,Win32,59.64807635,6135e006383e6ea6c3d06a28,61364d7cbf1dba42454202a8,"[""comma""]",0,[0.18909999990466986],21,0,21,0,1
,,,,,,,6107d55f3aa95291f0ff52bd,,,,,,6107d55f3aa95291f0ff52bd,Kobieta,20,2021-09-06_19h21.04.414,rantool2,2021.1.4,Win32,59.64807635,6135e006383e6ea6c3d06a28,61364d7cbf1dba42454202a8,"[""comma""]",0,[0.1607000002860559],22,0,22,0,1
,,,,,,,6107d55f3aa95291f0ff52bd,,,,,,6107d55f3aa95291f0ff52bd,Kobieta,20,2021-09-06_19h21.04.414,rantool2,2021.1.4,Win32,59.64807635,6135e006383e6ea6c3d06a28,61364d7cbf1dba42454202a8,"[""period""]",0,[0.0631999998092283],23,0,23,0,1
,,,,,,,6107d55f3aa95291f0ff52bd,,,,,,6107d55f3aa95291f0ff52bd,Kobieta,20,2021-09-06_19h21.04.414,rantool2,2021.1.4,Win32,59.64807635,6135e006383e6ea6c3d06a28,61364d7cbf1dba42454202a8,"[""period""]",0,[0.25669999980925695],24,0,24,0,1
,,,,,,,6107d55f3aa95291f0ff52bd,,,,,,6107d55f3aa95291f0ff52bd,Kobieta,20,2021-09-06_19h21.04.414,rantool2,2021.1.4,Win32,59.64807635,6135e006383e6ea6c3d06a28,61364d7cbf1dba42454202a8,"[""period""]",0,[0.23090000009534606],25,0,25,0,1
,,,,,,,6107d55f3aa95291f0ff52bd,,,,,,6107d55f3aa95291f0ff52bd,Kobieta,20,2021-09-06_19h21.04.414,rantool2,2021.1.4,Win32,59.64807635,6135e006383e6ea6c3d06a28,61364d7cbf1dba42454202a8,"[""comma""]",0,[0.2558000001907317],26,0,26,0,1
,,,,,,,6107d55f3aa95291f0ff52bd,,,,,,6107d55f3aa95291f0ff52bd,Kobieta,20,2021-09-06_19h21.04.414,rantool2,2021.1.4,Win32,59.64807635,6135e006383e6ea6c3d06a28,61364d7cbf1dba42454202a8,"[""comma""]",0,[0.2934000000954029],27,0,27,0,1
,,,,,,,6107d55f3aa95291f0ff52bd,,,,,,6107d55f3aa95291f0ff52bd,Kobieta,20,2021-09-06_19h21.04.414,rantool2,2021.1.4,Win32,59.64807635,6135e006383e6ea6c3d06a28,61364d7cbf1dba42454202a8,"[""period""]",0,[0.2653000001907344],28,0,28,0,1
,,,,,,,6107d55f3aa95291f0ff52bd,,,,,,6107d55f3aa95291f0ff52bd,Kobieta,20,2021-09-06_19h21.04.414,rantool2,2021.1.4,Win32,59.64807635,6135e006383e6ea6c3d06a28,61364d7cbf1dba42454202a8,"[""comma""]",0,[0.258799999713915],29,0,29,0,1
,,,,,,,6107d55f3aa95291f0ff52bd,,,,,,6107d55f3aa95291f0ff52bd,Kobieta,20,2021-09-06_19h21.04.414,rantool2,2021.1.4,Win32,59.64807635,6135e006383e6ea6c3d06a28,61364d7cbf1dba42454202a8,"[""period""]",0,[0.22559999990460256],30,0,30,0,1
,,,,,,,6107d55f3aa95291f0ff52bd,,,,,,6107d55f3aa95291f0ff52bd,Kobieta,20,2021-09-06_19h21.04.414,rantool2,2021.1.4,Win32,59.64807635,6135e006383e6ea6c3d06a28,61364d7cbf1dba42454202a8,"[""period""]",0,[0.2392000002861323],31,0,31,0,1
,,,,,,,6107d55f3aa95291f0ff52bd,,,,,,6107d55f3aa95291f0ff52bd,Kobieta,20,2021-09-06_19h21.04.414,rantool2,2021.1.4,Win32,59.64807635,6135e006383e6ea6c3d06a28,61364d7cbf1dba42454202a8,"[""comma""]",0,[0.2215999999046403],32,0,32,0,1
,,,,,,,6107d55f3aa95291f0ff52bd,,,,,,6107d55f3aa95291f0ff52bd,Kobieta,20,2021-09-06_19h21.04.414,rantool2,2021.1.4,Win32,59.64807635,6135e006383e6ea6c3d06a28,61364d7cbf1dba42454202a8,"[""comma""]",0,[0.29040000009536016],33,0,33,0,1
,,,,,,,6107d55f3aa95291f0ff52bd,,,,,,6107d55f3aa95291f0ff52bd,Kobieta,20,2021-09-06_19h21.04.414,rantool2,2021.1.4,Win32,59.64807635,6135e006383e6ea6c3d06a28,61364d7cbf1dba42454202a8,"[""period""]",0,[0.3132999997138768],34,0,34,0,1
,,,,,,,6107d55f3aa95291f0ff52bd,,,,,,6107d55f3aa95291f0ff52bd,Kobieta,20,2021-09-06_19h21.04.414,rantool2,2021.1.4,Win32,59.64807635,6135e006383e6ea6c3d06a28,61364d7cbf1dba42454202a8,"[""comma""]",0,[0.3069000000953679],35,0,35,0,1
,,,,,,,6107d55f3aa95291f0ff52bd,,,,,,6107d55f3aa95291f0ff52bd,Kobieta,20,2021-09-06_19h21.04.414,rantool2,2021.1.4,Win32,59.64807635,6135e006383e6ea6c3d06a28,61364d7cbf1dba42454202a8,"[""period""]",0,[0.19539999961853027],36,0,36,0,1
,,,,,,,6107d55f3aa95291f0ff52bd,,,,,,6107d55f3aa95291f0ff52bd,Kobieta,20,2021-09-06_19h21.04.414,rantool2,2021.1.4,Win32,59.64807635,6135e006383e6ea6c3d06a28,61364d7cbf1dba42454202a8,"[""period""]",0,[0.2587000002860691],37,0,37,0,1
,,,,,,,6107d55f3aa95291f0ff52bd,,,,,,6107d55f3aa95291f0ff52bd,Kobieta,20,2021-09-06_19h21.04.414,rantool2,2021.1.4,Win32,59.64807635,6135e006383e6ea6c3d06a28,61364d7cbf1dba42454202a8,"[""comma""]",0,[0.38209999990459664],38,0,38,0,1
,,,,,,,6107d55f3aa95291f0ff52bd,,,,,,6107d55f3aa95291f0ff52bd,Kobieta,20,2021-09-06_19h21.04.414,rantool2,2021.1.4,Win32,59.64807635,6135e006383e6ea6c3d06a28,61364d7cbf1dba42454202a8,"[""comma""]",0,[0.2939000000953911],39,0,39,0,1
,,,,,,,6107d55f3aa95291f0ff52bd,,,,,,6107d55f3aa95291f0ff52bd,Kobieta,20,2021-09-06_19h21.04.414,rantool2,2021.1.4,Win32,59.64807635,6135e006383e6ea6c3d06a28,61364d7cbf1dba42454202a8,"[""comma""]",0,[0.39269999980928105],40,0,40,0,1
,,,,,,,6107d55f3aa95291f0ff52bd,,,,,,6107d55f3aa95291f0ff52bd,Kobieta,20,2021-09-06_19h21.04.414,rantool2,2021.1.4,Win32,59.64807635,6135e006383e6ea6c3d06a28,61364d7cbf1dba42454202a8,"[""period""]",0,[0.3596999998092656],41,0,41,0,1
,,,,,,,6107d55f3aa95291f0ff52bd,,,,,,6107d55f3aa95291f0ff52bd,Kobieta,20,2021-09-06_19h21.04.414,rantool2,2021.1.4,Win32,59.64807635,6135e006383e6ea6c3d06a28,61364d7cbf1dba42454202a8,"[""comma""]",0,[0.2545000000000073],42,0,42,0,1
,,,,,,,6107d55f3aa95291f0ff52bd,,,,,,6107d55f3aa95291f0ff52bd,Kobieta,20,2021-09-06_19h21.04.414,rantool2,2021.1.4,Win32,59.64807635,6135e006383e6ea6c3d06a28,61364d7cbf1dba42454202a8,"[""comma""]",0,[0.3224999999999909],43,0,43,0,1
,,,,,,,6107d55f3aa95291f0ff52bd,,,,,,6107d55f3aa95291f0ff52bd,Kobieta,20,2021-09-06_19h21.04.414,rantool2,2021.1.4,Win32,59.64807635,6135e006383e6ea6c3d06a28,61364d7cbf1dba42454202a8,"[""period""]",0,[0.272599999904628],44,0,44,0,1
,,,,,,,6107d55f3aa95291f0ff52bd,,,,,,6107d55f3aa95291f0ff52bd,Kobieta,20,2021-09-06_19h21.04.414,rantool2,2021.1.4,Win32,59.64807635,6135e006383e6ea6c3d06a28,61364d7cbf1dba42454202a8,"[""comma""]",0,[0.26330000019072486],45,0,45,0,1
,,,,,,,6107d55f3aa95291f0ff52bd,,,,,,6107d55f3aa95291f0ff52bd,Kobieta,20,2021-09-06_19h21.04.414,rantool2,2021.1.4,Win32,59.64807635,6135e006383e6ea6c3d06a28,61364d7cbf1dba42454202a8,"[""period""]",0,[0.2725000000000364],46,0,46,0,1
,,,,,,,6107d55f3aa95291f0ff52bd,,,,,,6107d55f3aa95291f0ff52bd,Kobieta,20,2021-09-06_19h21.04.414,rantool2,2021.1.4,Win32,59.64807635,6135e006383e6ea6c3d06a28,61364d7cbf1dba42454202a8,"[""comma""]",0,[0.27199999999999136],47,0,47,0,1
,,,,,,,6107d55f3aa95291f0ff52bd,,,,,,6107d55f3aa95291f0ff52bd,Kobieta,20,2021-09-06_19h21.04.414,rantool2,2021.1.4,Win32,59.64807635,6135e006383e6ea6c3d06a28,61364d7cbf1dba42454202a8,"[""period""]",0,[0.25600000000002865],48,0,48,0,1
,,,,,,,6107d55f3aa95291f0ff52bd,,,,,,6107d55f3aa95291f0ff52bd,Kobieta,20,2021-09-06_19h21.04.414,rantool2,2021.1.4,Win32,59.64807635,6135e006383e6ea6c3d06a28,61364d7cbf1dba42454202a8,"[""period""]",0,[0.22350000000000136],49,0,49,0,1
,,,,,,,6107d55f3aa95291f0ff52bd,,,,,,6107d55f3aa95291f0ff52bd,Kobieta,20,2021-09-06_19h21.04.414,rantool2,2021.1.4,Win32,59.64807635,6135e006383e6ea6c3d06a28,61364d7cbf1dba42454202a8,"[""comma""]",0,[0.27199999999999136],50,0,50,0,1
,,,,,,,6107d55f3aa95291f0ff52bd,,,,,,6107d55f3aa95291f0ff52bd,Kobieta,20,2021-09-06_19h21.04.414,rantool2,2021.1.4,Win32,59.64807635,6135e006383e6ea6c3d06a28,61364d7cbf1dba42454202a8,"[""period""]",0,[0.2231999998092533],51,0,51,0,1
,,,,,,,6107d55f3aa95291f0ff52bd,,,,,,6107d55f3aa95291f0ff52bd,Kobieta,20,2021-09-06_19h21.04.414,rantool2,2021.1.4,Win32,59.64807635,6135e006383e6ea6c3d06a28,61364d7cbf1dba42454202a8,"[""period""]",0,[0.18790000009539654],52,0,52,0,1
,,,,,,,6107d55f3aa95291f0ff52bd,,,,,,6107d55f3aa95291f0ff52bd,Kobieta,20,2021-09-06_19h21.04.414,rantool2,2021.1.4,Win32,59.64807635,6135e006383e6ea6c3d06a28,61364d7cbf1dba42454202a8,"[""comma""]",0,[0.23209999990461938],53,0,53,0,1
,,,,,,,6107d55f3aa95291f0ff52bd,,,,,,6107d55f3aa95291f0ff52bd,Kobieta,20,2021-09-06_19h21.04.414,rantool2,2021.1.4,Win32,59.64807635,6135e006383e6ea6c3d06a28,61364d7cbf1dba42454202a8,"[""comma""]",0,[0.25529999971388406],54,0,54,0,1
,,,,,,,6107d55f3aa95291f0ff52bd,,,,,,6107d55f3aa95291f0ff52bd,Kobieta,20,2021-09-06_19h21.04.414,rantool2,2021.1.4,Win32,59.64807635,6135e006383e6ea6c3d06a28,61364d7cbf1dba42454202a8,"[""comma""]",0,[0.19209999990465576],55,0,55,0,1
,,,,,,,6107d55f3aa95291f0ff52bd,,,,,,6107d55f3aa95291f0ff52bd,Kobieta,20,2021-09-06_19h21.04.414,rantool2,2021.1.4,Win32,59.64807635,6135e006383e6ea6c3d06a28,61364d7cbf1dba42454202a8,"[""comma""]",0,[0.27419999980924104],56,0,56,0,1
,,,,,,,6107d55f3aa95291f0ff52bd,,,,,,6107d55f3aa95291f0ff52bd,Kobieta,20,2021-09-06_19h21.04.414,rantool2,2021.1.4,Win32,59.64807635,6135e006383e6ea6c3d06a28,61364d7cbf1dba42454202a8,"[""period""]",0,[0.23829999971388816],57,0,57,0,1
,,,,,,,6107d55f3aa95291f0ff52bd,,,,,,6107d55f3aa95291f0ff52bd,Kobieta,20,2021-09-06_19h21.04.414,rantool2,2021.1.4,Win32,59.64807635,6135e006383e6ea6c3d06a28,61364d7cbf1dba42454202a8,"[""comma""]",0,[0.29050000000000864],58,0,58,0,1
,,,,,,,6107d55f3aa95291f0ff52bd,,,,,,6107d55f3aa95291f0ff52bd,Kobieta,20,2021-09-06_19h21.04.414,rantool2,2021.1.4,Win32,59.64807635,6135e006383e6ea6c3d06a28,61364d7cbf1dba42454202a8,"[""period""]",0,[0.2944999999999709],59,0,59,0,1
,,,,,,,6107d55f3aa95291f0ff52bd,,,,,,6107d55f3aa95291f0ff52bd,Kobieta,20,2021-09-06_19h21.04.414,rantool2,2021.1.4,Win32,59.64807635,6135e006383e6ea6c3d06a28,61364d7cbf1dba42454202a8,"[""period""]",0,[0.30579999971394045],60,0,60,0,1
,,,,,,,6107d55f3aa95291f0ff52bd,,,,,,6107d55f3aa95291f0ff52bd,Kobieta,20,2021-09-06_19h21.04.414,rantool2,2021.1.4,Win32,59.64807635,6135e006383e6ea6c3d06a28,61364d7cbf1dba42454202a8,"[""period""]",0,[0.3217000002860573],61,0,61,0,1
,,,,,,,6107d55f3aa95291f0ff52bd,,,,,,6107d55f3aa95291f0ff52bd,Kobieta,20,2021-09-06_19h21.04.414,rantool2,2021.1.4,Win32,59.64807635,6135e006383e6ea6c3d06a28,61364d7cbf1dba42454202a8,"[""comma""]",0,[0.2410000000000423],62,0,62,0,1
,,,,,,,6107d55f3aa95291f0ff52bd,,,,,,6107d55f3aa95291f0ff52bd,Kobieta,20,2021-09-06_19h21.04.414,rantool2,2021.1.4,Win32,59.64807635,6135e006383e6ea6c3d06a28,61364d7cbf1dba42454202a8,"[""comma""]",0,[0.2472999997139027],63,0,63,0,1
,,,,,,,6107d55f3aa95291f0ff52bd,,,,,,6107d55f3aa95291f0ff52bd,Kobieta,20,2021-09-06_19h21.04.414,rantool2,2021.1.4,Win32,59.64807635,6135e006383e6ea6c3d06a28,61364d7cbf1dba42454202a8,"[""period""]",0,[0.23099999999999454],64,0,64,0,1
,,,,,,,6107d55f3aa95291f0ff52bd,,,,,,6107d55f3aa95291f0ff52bd,Kobieta,20,2021-09-06_19h21.04.414,rantool2,2021.1.4,Win32,59.64807635,6135e006383e6ea6c3d06a28,61364d7cbf1dba42454202a8,"[""comma""]",0,[0.29979999971385496],65,0,65,0,1
,,,,,,,6107d55f3aa95291f0ff52bd,,,,,,6107d55f3aa95291f0ff52bd,Kobieta,20,2021-09-06_19h21.04.414,rantool2,2021.1.4,Win32,59.64807635,6135e006383e6ea6c3d06a28,61364d7cbf1dba42454202a8,"[""period""]",0,[0.32290000009538744],66,0,66,0,1
,,,,,,,6107d55f3aa95291f0ff52bd,,,,,,6107d55f3aa95291f0ff52bd,Kobieta,20,2021-09-06_19h21.04.414,rantool2,2021.1.4,Win32,59.64807635,6135e006383e6ea6c3d06a28,61364d7cbf1dba42454202a8,"[""comma""]",0,[0.33990000009538335],67,0,67,0,1
,,,,,,,6107d55f3aa95291f0ff52bd,,,,,,6107d55f3aa95291f0ff52bd,Kobieta,20,2021-09-06_19h21.04.414,rantool2,2021.1.4,Win32,59.64807635,6135e006383e6ea6c3d06a28,61364d7cbf1dba42454202a8,"[""comma""]",0,[0.3236000003814752],68,0,68,0,1
,,,,,,,6107d55f3aa95291f0ff52bd,,,,,,6107d55f3aa95291f0ff52bd,Kobieta,20,2021-09-06_19h21.04.414,rantool2,2021.1.4,Win32,59.64807635,6135e006383e6ea6c3d06a28,61364d7cbf1dba42454202a8,"[""period""]",0,[0.25669999980925695],69,0,69,0,1
,,,,,,,6107d55f3aa95291f0ff52bd,,,,,,6107d55f3aa95291f0ff52bd,Kobieta,20,2021-09-06_19h21.04.414,rantool2,2021.1.4,Win32,59.64807635,6135e006383e6ea6c3d06a28,61364d7cbf1dba42454202a8,"[""comma""]",0,[0.23140000009539108],70,0,70,0,1
,,,,,,,6107d55f3aa95291f0ff52bd,,,,,,6107d55f3aa95291f0ff52bd,Kobieta,20,2021-09-06_19h21.04.414,rantool2,2021.1.4,Win32,59.64807635,6135e006383e6ea6c3d06a28,61364d7cbf1dba42454202a8,"[""period""]",0,[0.275900000095362],71,0,71,0,1
,,,,,,,6107d55f3aa95291f0ff52bd,,,,,,6107d55f3aa95291f0ff52bd,Kobieta,20,2021-09-06_19h21.04.414,rantool2,2021.1.4,Win32,59.64807635,6135e006383e6ea6c3d06a28,61364d7cbf1dba42454202a8,"[""comma""]",0,[0.45809999990461847],72,0,72,0,1
,,,,,,,6107d55f3aa95291f0ff52bd,,,,,,6107d55f3aa95291f0ff52bd,Kobieta,20,2021-09-06_19h21.04.414,rantool2,2021.1.4,Win32,59.64807635,6135e006383e6ea6c3d06a28,61364d7cbf1dba42454202a8,"[""comma""]",0,[0.4231000003814529],73,0,73,0,1
,,,,,,,6107d55f3aa95291f0ff52bd,,,,,,6107d55f3aa95291f0ff52bd,Kobieta,20,2021-09-06_19h21.04.414,rantool2,2021.1.4,Win32,59.64807635,6135e006383e6ea6c3d06a28,61364d7cbf1dba42454202a8,"[""period""]",0,[0.4143000001907353],74,0,74,0,1
,,,,,,,6107d55f3aa95291f0ff52bd,,,,,,6107d55f3aa95291f0ff52bd,Kobieta,20,2021-09-06_19h21.04.414,rantool2,2021.1.4,Win32,59.64807635,6135e006383e6ea6c3d06a28,61364d7cbf1dba42454202a8,"[""period""]",0,[0.34680000019073987],75,0,75,0,1
,,,,,,,6107d55f3aa95291f0ff52bd,,,,,,6107d55f3aa95291f0ff52bd,Kobieta,20,2021-09-06_19h21.04.414,rantool2,2021.1.4,Win32,59.64807635,6135e006383e6ea6c3d06a28,61364d7cbf1dba42454202a8,"[""period""]",0,[0.37209999990460574],76,0,76,0,1
,,,,,,,6107d55f3aa95291f0ff52bd,,,,,,6107d55f3aa95291f0ff52bd,Kobieta,20,2021-09-06_19h21.04.414,rantool2,2021.1.4,Win32,59.64807635,6135e006383e6ea6c3d06a28,61364d7cbf1dba42454202a8,"[""comma""]",0,[0.4399999999999977],77,0,77,0,1
,,,,,,,6107d55f3aa95291f0ff52bd,,,,,,6107d55f3aa95291f0ff52bd,Kobieta,20,2021-09-06_19h21.04.414,rantool2,2021.1.4,Win32,59.64807635,6135e006383e6ea6c3d06a28,61364d7cbf1dba42454202a8,"[""comma""]",0,[0.5229999999999677],78,0,78,0,1
,,,,,,,6107d55f3aa95291f0ff52bd,,,,,,6107d55f3aa95291f0ff52bd,Kobieta,20,2021-09-06_19h21.04.414,rantool2,2021.1.4,Win32,59.64807635,6135e006383e6ea6c3d06a28,61364d7cbf1dba42454202a8,"[""comma"",""comma""]",0,"[0.7138000001907585,0.9274000000953606]",79,0,79,0,1
,,,,,,,6107d55f3aa95291f0ff52bd,,,,,,6107d55f3aa95291f0ff52bd,Kobieta,20,2021-09-06_19h21.04.414,rantool2,2021.1.4,Win32,59.64807635,6135e006383e6ea6c3d06a28,61364d7cbf1dba42454202a8,"[""period""]",0,[0.5721000003815107],80,0,80,0,1
,,,,,,,6107d55f3aa95291f0ff52bd,,,,,,6107d55f3aa95291f0ff52bd,Kobieta,20,2021-09-06_19h21.04.414,rantool2,2021.1.4,Win32,59.64807635,6135e006383e6ea6c3d06a28,61364d7cbf1dba42454202a8,"[""comma""]",0,[0.4400999999046462],81,0,81,0,1
,,,,,,,6107d55f3aa95291f0ff52bd,,,,,,6107d55f3aa95291f0ff52bd,Kobieta,20,2021-09-06_19h21.04.414,rantool2,2021.1.4,Win32,59.64807635,6135e006383e6ea6c3d06a28,61364d7cbf1dba42454202a8,"[""period""]",0,[0.26630000019071076],82,0,82,0,1
,,,,,,,6107d55f3aa95291f0ff52bd,,,,,,6107d55f3aa95291f0ff52bd,Kobieta,20,2021-09-06_19h21.04.414,rantool2,2021.1.4,Win32,59.64807635,6135e006383e6ea6c3d06a28,61364d7cbf1dba42454202a8,"[""period""]",0,[0.2425999999046553],83,0,83,0,1
,,,,,,,6107d55f3aa95291f0ff52bd,,,,,,6107d55f3aa95291f0ff52bd,Kobieta,20,2021-09-06_19h21.04.414,rantool2,2021.1.4,Win32,59.64807635,6135e006383e6ea6c3d06a28,61364d7cbf1dba42454202a8,"[""period""]",0,[0.30609999990463166],84,0,84,0,1
,,,,,,,6107d55f3aa95291f0ff52bd,,,,,,6107d55f3aa95291f0ff52bd,Kobieta,20,2021-09-06_19h21.04.414,rantool2,2021.1.4,Win32,59.64807635,6135e006383e6ea6c3d06a28,61364d7cbf1dba42454202a8,"[""comma""]",0,[0.258799999713915],85,0,85,0,1
,,,,,,,6107d55f3aa95291f0ff52bd,,,,,,6107d55f3aa95291f0ff52bd,Kobieta,20,2021-09-06_19h21.04.414,rantool2,2021.1.4,Win32,59.64807635,6135e006383e6ea6c3d06a28,61364d7cbf1dba42454202a8,"[""comma""]",0,[0.27570000028612185],86,0,86,0,1
,,,,,,,6107d55f3aa95291f0ff52bd,,,,,,6107d55f3aa95291f0ff52bd,Kobieta,20,2021-09-06_19h21.04.414,rantool2,2021.1.4,Win32,59.64807635,6135e006383e6ea6c3d06a28,61364d7cbf1dba42454202a8,"[""comma""]",0,[0.2898000001907235],87,0,87,0,1
,,,,,,,6107d55f3aa95291f0ff52bd,,,,,,6107d55f3aa95291f0ff52bd,Kobieta,20,2021-09-06_19h21.04.414,rantool2,2021.1.4,Win32,59.64807635,6135e006383e6ea6c3d06a28,61364d7cbf1dba42454202a8,"[""period""]",0,[0.2396999998093179],88,0,88,0,1
,,,,,,,6107d55f3aa95291f0ff52bd,,,,,,6107d55f3aa95291f0ff52bd,Kobieta,20,2021-09-06_19h21.04.414,rantool2,2021.1.4,Win32,59.64807635,6135e006383e6ea6c3d06a28,61364d7cbf1dba42454202a8,"[""comma""]",0,[0.2735999999046612],89,0,89,0,1
,,,,,,,6107d55f3aa95291f0ff52bd,,,,,,6107d55f3aa95291f0ff52bd,Kobieta,20,2021-09-06_19h21.04.414,rantool2,2021.1.4,Win32,59.64807635,6135e006383e6ea6c3d06a28,61364d7cbf1dba42454202a8,"[""comma""]",0,[0.27450000000004593],90,0,90,0,1
,,,,,,,6107d55f3aa95291f0ff52bd,,,,,,6107d55f3aa95291f0ff52bd,Kobieta,20,2021-09-06_19h21.04.414,rantool2,2021.1.4,Win32,59.64807635,6135e006383e6ea6c3d06a28,61364d7cbf1dba42454202a8,"[""period""]",0,[0.23930000019072395],91,0,91,0,1
,,,,,,,6107d55f3aa95291f0ff52bd,,,,,,6107d55f3aa95291f0ff52bd,Kobieta,20,2021-09-06_19h21.04.414,rantool2,2021.1.4,Win32,59.64807635,6135e006383e6ea6c3d06a28,61364d7cbf1dba42454202a8,"[""comma""]",0,[0.24179999971386223],92,0,92,0,1
,,,,,,,6107d55f3aa95291f0ff52bd,,,,,,6107d55f3aa95291f0ff52bd,Kobieta,20,2021-09-06_19h21.04.414,rantool2,2021.1.4,Win32,59.64807635,6135e006383e6ea6c3d06a28,61364d7cbf1dba42454202a8,"[""period""]",0,[0.2750000000000341],93,0,93,0,1
,,,,,,,6107d55f3aa95291f0ff52bd,,,,,,6107d55f3aa95291f0ff52bd,Kobieta,20,2021-09-06_19h21.04.414,rantool2,2021.1.4,Win32,59.64807635,6135e006383e6ea6c3d06a28,61364d7cbf1dba42454202a8,"[""period""]",0,[0.24010000038151702],94,0,94,0,1
,,,,,,,6107d55f3aa95291f0ff52bd,,,,,,6107d55f3aa95291f0ff52bd,Kobieta,20,2021-09-06_19h21.04.414,rantool2,2021.1.4,Win32,59.64807635,6135e006383e6ea6c3d06a28,61364d7cbf1dba42454202a8,"[""period""]",0,[0.3054000000953465],95,0,95,0,1
,,,,,,,6107d55f3aa95291f0ff52bd,,,,,,6107d55f3aa95291f0ff52bd,Kobieta,20,2021-09-06_19h21.04.414,rantool2,2021.1.4,Win32,59.64807635,6135e006383e6ea6c3d06a28,61364d7cbf1dba42454202a8,"[""comma""]",0,[0.30479999971390725],96,0,96,0,1
,,,,,,,6107d55f3aa95291f0ff52bd,,,,,,6107d55f3aa95291f0ff52bd,Kobieta,20,2021-09-06_19h21.04.414,rantool2,2021.1.4,Win32,59.64807635,6135e006383e6ea6c3d06a28,61364d7cbf1dba42454202a8,"[""comma""]",0,[0.2630999999046253],97,0,97,0,1
,,,,,,,6107d55f3aa95291f0ff52bd,,,,,,6107d55f3aa95291f0ff52bd,Kobieta,20,2021-09-06_19h21.04.414,rantool2,2021.1.4,Win32,59.64807635,6135e006383e6ea6c3d06a28,61364d7cbf1dba42454202a8,"[""period""]",0,[0.27209999990463984],98,0,98,0,1
,,,,,,,6107d55f3aa95291f0ff52bd,,,,,,6107d55f3aa95291f0ff52bd,Kobieta,20,2021-09-06_19h21.04.414,rantool2,2021.1.4,Win32,59.64807635,6135e006383e6ea6c3d06a28,61364d7cbf1dba42454202a8,"[""comma""]",0,[0.2800999999046212],99,0,99,0,1
,,,,,,,6107d55f3aa95291f0ff52bd,,,,,,6107d55f3aa95291f0ff52bd,Kobieta,20,2021-09-06_19h21.04.414,rantool2,2021.1.4,Win32,59.64807635,6135e006383e6ea6c3d06a28,61364d7cbf1dba42454202a8,"[""period""]",0,[0.18970000028610912],100,0,100,0,1
,,,,,,,6107d55f3aa95291f0ff52bd,,,,,,6107d55f3aa95291f0ff52bd,Kobieta,20,2021-09-06_19h21.04.414,rantool2,2021.1.4,Win32,59.64807635,6135e006383e6ea6c3d06a28,61364d7cbf1dba42454202a8,"[""period""]",0,[0.24179999971386223],101,0,101,0,1
,,,,,,,6107d55f3aa95291f0ff52bd,,,,,,6107d55f3aa95291f0ff52bd,Kobieta,20,2021-09-06_19h21.04.414,rantool2,2021.1.4,Win32,59.64807635,6135e006383e6ea6c3d06a28,61364d7cbf1dba42454202a8,"[""comma""]",0,[0.3985999999046044],102,0,102,0,1
,,,,,,,6107d55f3aa95291f0ff52bd,,,,,,6107d55f3aa95291f0ff52bd,Kobieta,20,2021-09-06_19h21.04.414,rantool2,2021.1.4,Win32,59.64807635,6135e006383e6ea6c3d06a28,61364d7cbf1dba42454202a8,"[""period""]",0,[0.25539999961853255],103,0,103,0,1
,,,,,,,6107d55f3aa95291f0ff52bd,,,,,,6107d55f3aa95291f0ff52bd,Kobieta,20,2021-09-06_19h21.04.414,rantool2,2021.1.4,Win32,59.64807635,6135e006383e6ea6c3d06a28,61364d7cbf1dba42454202a8,"[""comma""]",0,[0.27499999999997726],104,0,104,0,1
,,,,,,,6107d55f3aa95291f0ff52bd,,,,,,6107d55f3aa95291f0ff52bd,Kobieta,20,2021-09-06_19h21.04.414,rantool2,2021.1.4,Win32,59.64807635,6135e006383e6ea6c3d06a28,61364d7cbf1dba42454202a8,"[""period""]",0,[0.2713999996185521],105,0,105,0,1
,,,,,,,6107d55f3aa95291f0ff52bd,,,,,,6107d55f3aa95291f0ff52bd,Kobieta,20,2021-09-06_19h21.04.414,rantool2,2021.1.4,Win32,59.64807635,6135e006383e6ea6c3d06a28,61364d7cbf1dba42454202a8,"[""comma""]",0,[0.24620000028608047],106,0,106,0,1
,,,,,,,6107d55f3aa95291f0ff52bd,,,,,,6107d55f3aa95291f0ff52bd,Kobieta,20,2021-09-06_19h21.04.414,rantool2,2021.1.4,Win32,59.64807635,6135e006383e6ea6c3d06a28,61364d7cbf1dba42454202a8,"[""comma""]",0,[0.2263000001906903],107,0,107,0,1
,,,,,,,6107d55f3aa95291f0ff52bd,,,,,,6107d55f3aa95291f0ff52bd,Kobieta,20,2021-09-06_19h21.04.414,rantool2,2021.1.4,Win32,59.64807635,6135e006383e6ea6c3d06a28,61364d7cbf1dba42454202a8,"[""period""]",0,[0.272599999904628],108,0,108,0,1
,,,,,,,6107d55f3aa95291f0ff52bd,,,,,,6107d55f3aa95291f0ff52bd,Kobieta,20,2021-09-06_19h21.04.414,rantool2,2021.1.4,Win32,59.64807635,6135e006383e6ea6c3d06a28,61364d7cbf1dba42454202a8,"[""period""]",0,[0.3216999998093115],109,0,109,0,1
,,,,,,,6107d55f3aa95291f0ff52bd,,,,,,6107d55f3aa95291f0ff52bd,Kobieta,20,2021-09-06_19h21.04.414,rantool2,2021.1.4,Win32,59.64807635,6135e006383e6ea6c3d06a28,61364d7cbf1dba42454202a8,"[""comma""]",0,[0.27300000000002456],110,0,110,0,1
,,,,,,,6107d55f3aa95291f0ff52bd,,,,,,6107d55f3aa95291f0ff52bd,Kobieta,20,2021-09-06_19h21.04.414,rantool2,2021.1.4,Win32,59.64807635,6135e006383e6ea6c3d06a28,61364d7cbf1dba42454202a8,"[""period""]",0,[0.3238999996185612],111,0,111,0,1
,,,,,,,6107d55f3aa95291f0ff52bd,,,,,,6107d55f3aa95291f0ff52bd,Kobieta,20,2021-09-06_19h21.04.414,rantool2,2021.1.4,Win32,59.64807635,6135e006383e6ea6c3d06a28,61364d7cbf1dba42454202a8,"[""comma""]",0,[0.2759999999999536],112,0,112,0,1
,,,,,,,6107d55f3aa95291f0ff52bd,,,,,,6107d55f3aa95291f0ff52bd,Kobieta,20,2021-09-06_19h21.04.414,rantool2,2021.1.4,Win32,59.64807635,6135e006383e6ea6c3d06a28,61364d7cbf1dba42454202a8,"[""period""]",0,[0.32240000009539926],113,0,113,0,1
,,,,,,,6107d55f3aa95291f0ff52bd,,,,,,6107d55f3aa95291f0ff52bd,Kobieta,20,2021-09-06_19h21.04.414,rantool2,2021.1.4,Win32,59.64807635,6135e006383e6ea6c3d06a28,61364d7cbf1dba42454202a8,"[""comma""]",0,[0.27840000009541654],114,0,114,0,1
,,,,,,,6107d55f3aa95291f0ff52bd,,,,,,6107d55f3aa95291f0ff52bd,Kobieta,20,2021-09-06_19h21.04.414,rantool2,2021.1.4,Win32,59.64807635,6135e006383e6ea6c3d06a28,61364d7cbf1dba42454202a8,"[""comma""]",0,[0.15589999961855483],115,0,115,0,1
,,,,,,,6107d55f3aa95291f0ff52bd,,,,,,6107d55f3aa95291f0ff52bd,Kobieta,20,2021-09-06_19h21.04.414,rantool2,2021.1.4,Win32,59.64807635,6135e006383e6ea6c3d06a28,61364d7cbf1dba42454202a8,"[""period""]",0,[0.1601000003814761],116,0,116,0,1
,,,,,,,6107d55f3aa95291f0ff52bd,,,,,,6107d55f3aa95291f0ff52bd,Kobieta,20,2021-09-06_19h21.04.414,rantool2,2021.1.4,Win32,59.64807635,6135e006383e6ea6c3d06a28,61364d7cbf1dba42454202a8,"[""period""]",0,[0.17159999990462893],117,0,117,0,1
,,,,,,,6107d55f3aa95291f0ff52bd,,,,,,6107d55f3aa95291f0ff52bd,Kobieta,20,2021-09-06_19h21.04.414,rantool2,2021.1.4,Win32,59.64807635,6135e006383e6ea6c3d06a28,61364d7cbf1dba42454202a8,"[""period""]",0,[0.2559999999999718],118,0,118,0,1
,,,,,,,6107d55f3aa95291f0ff52bd,,,,,,6107d55f3aa95291f0ff52bd,Kobieta,20,2021-09-06_19h21.04.414,rantool2,2021.1.4,Win32,59.64807635,6135e006383e6ea6c3d06a28,61364d7cbf1dba42454202a8,"[""period""]",0,[0.3300000000000409],119,0,119,0,1
