key_resp_5.keys,key_resp_5.corr,key_resp_5.rt,trials.thisRepN,trials.thisTrialN,trials.thisN,trials.thisIndex,trials.ran,id*,Płeć*,Wiek*,date,expName,psychopyVersion,OS,frameRate,id,STUDY_ID,SESSION_ID,key_resp_7.keys,key_resp_7.rt,trials_2.thisRepN,trials_2.thisTrialN,trials_2.thisN,trials_2.thisIndex,trials_2.ran,series_0,series_1,acss_0,acss_1,comparison
"[""comma""]",0,[0.7991750000219326],0,0,0,0,1,5bc623acd2bea100010c808e,Kobieta,28,2021-07-13_21h58.32.325,rantool2,2021.1.4,Win32,59.96641881,5bc623acd2bea100010c808e,60d9d14f4a8a35a482e0d9bf,60edefdd46ddd9a8f4e7a716,,,,,,,,,,,,
"[""period""]",0,[0.4011199999949895],1,0,1,0,1,5bc623acd2bea100010c808e,Kobieta,28,2021-07-13_21h58.32.325,rantool2,2021.1.4,Win32,59.96641881,5bc623acd2bea100010c808e,60d9d14f4a8a35a482e0d9bf,60edefdd46ddd9a8f4e7a716,,,,,,,,,,,,
"[""comma""]",0,[0.36921499998425134],2,0,2,0,1,5bc623acd2bea100010c808e,Kobieta,28,2021-07-13_21h58.32.325,rantool2,2021.1.4,Win32,59.96641881,5bc623acd2bea100010c808e,60d9d14f4a8a35a482e0d9bf,60edefdd46ddd9a8f4e7a716,,,,,,,,,,,,
"[""period""]",0,[0.4172400000097696],3,0,3,0,1,5bc623acd2bea100010c808e,Kobieta,28,2021-07-13_21h58.32.325,rantool2,2021.1.4,Win32,59.96641881,5bc623acd2bea100010c808e,60d9d14f4a8a35a482e0d9bf,60edefdd46ddd9a8f4e7a716,,,,,,,,,,,,
"[""period""]",0,[0.2412250000052154],4,0,4,0,1,5bc623acd2bea100010c808e,Kobieta,28,2021-07-13_21h58.32.325,rantool2,2021.1.4,Win32,59.96641881,5bc623acd2bea100010c808e,60d9d14f4a8a35a482e0d9bf,60edefdd46ddd9a8f4e7a716,,,,,,,,,,,,
"[""comma""]",0,[0.3293100000009872],5,0,5,0,1,5bc623acd2bea100010c808e,Kobieta,28,2021-07-13_21h58.32.325,rantool2,2021.1.4,Win32,59.96641881,5bc623acd2bea100010c808e,60d9d14f4a8a35a482e0d9bf,60edefdd46ddd9a8f4e7a716,,,,,,,,,,,,
"[""comma""]",0,[0.27309999999124557],6,0,6,0,1,5bc623acd2bea100010c808e,Kobieta,28,2021-07-13_21h58.32.325,rantool2,2021.1.4,Win32,59.96641881,5bc623acd2bea100010c808e,60d9d14f4a8a35a482e0d9bf,60edefdd46ddd9a8f4e7a716,,,,,,,,,,,,
"[""comma"",""comma""]",0,"[0.08265999998548068,0.9288599999854341]",7,0,7,0,1,5bc623acd2bea100010c808e,Kobieta,28,2021-07-13_21h58.32.325,rantool2,2021.1.4,Win32,59.96641881,5bc623acd2bea100010c808e,60d9d14f4a8a35a482e0d9bf,60edefdd46ddd9a8f4e7a716,,,,,,,,,,,,
"[""period"",""period"",""period""]",0,"[0.25698999999440275,0.4090300000098068,0.5690250000043306]",8,0,8,0,1,5bc623acd2bea100010c808e,Kobieta,28,2021-07-13_21h58.32.325,rantool2,2021.1.4,Win32,59.96641881,5bc623acd2bea100010c808e,60d9d14f4a8a35a482e0d9bf,60edefdd46ddd9a8f4e7a716,,,,,,,,,,,,
"[""period"",""comma""]",0,"[0.360820000001695,0.5368549999839161]",9,0,9,0,1,5bc623acd2bea100010c808e,Kobieta,28,2021-07-13_21h58.32.325,rantool2,2021.1.4,Win32,59.96641881,5bc623acd2bea100010c808e,60d9d14f4a8a35a482e0d9bf,60edefdd46ddd9a8f4e7a716,,,,,,,,,,,,
"[""period""]",0,[0.3048599999747239],10,0,10,0,1,5bc623acd2bea100010c808e,Kobieta,28,2021-07-13_21h58.32.325,rantool2,2021.1.4,Win32,59.96641881,5bc623acd2bea100010c808e,60d9d14f4a8a35a482e0d9bf,60edefdd46ddd9a8f4e7a716,,,,,,,,,,,,
"[""comma""]",0,[0.1291649999911897],11,0,11,0,1,5bc623acd2bea100010c808e,Kobieta,28,2021-07-13_21h58.32.325,rantool2,2021.1.4,Win32,59.96641881,5bc623acd2bea100010c808e,60d9d14f4a8a35a482e0d9bf,60edefdd46ddd9a8f4e7a716,,,,,,,,,,,,
"[""period""]",0,[0.07286000001477078],12,0,12,0,1,5bc623acd2bea100010c808e,Kobieta,28,2021-07-13_21h58.32.325,rantool2,2021.1.4,Win32,59.96641881,5bc623acd2bea100010c808e,60d9d14f4a8a35a482e0d9bf,60edefdd46ddd9a8f4e7a716,,,,,,,,,,,,
"[""period""]",0,[0.9920349999738391],13,0,13,0,1,5bc623acd2bea100010c808e,Kobieta,28,2021-07-13_21h58.32.325,rantool2,2021.1.4,Win32,59.96641881,5bc623acd2bea100010c808e,60d9d14f4a8a35a482e0d9bf,60edefdd46ddd9a8f4e7a716,,,,,,,,,,,,
"[""comma"",""comma""]",0,"[0.39272999999229796,1.0969199999817647]",14,0,14,0,1,5bc623acd2bea100010c808e,Kobieta,28,2021-07-13_21h58.32.325,rantool2,2021.1.4,Win32,59.96641881,5bc623acd2bea100010c808e,60d9d14f4a8a35a482e0d9bf,60edefdd46ddd9a8f4e7a716,,,,,,,,,,,,
"[""period"",""period"",""period"",""period"",""period""]",0,"[0.3927350000012666,0.5526049999753013,0.7446799999743234,0.9126949999772478,1.4246599999896716]",15,0,15,0,1,5bc623acd2bea100010c808e,Kobieta,28,2021-07-13_21h58.32.325,rantool2,2021.1.4,Win32,59.96641881,5bc623acd2bea100010c808e,60d9d14f4a8a35a482e0d9bf,60edefdd46ddd9a8f4e7a716,,,,,,,,,,,,
"[""comma"",""comma""]",0,"[0.4659950000059325,1.0007500000065193]",16,0,16,0,1,5bc623acd2bea100010c808e,Kobieta,28,2021-07-13_21h58.32.325,rantool2,2021.1.4,Win32,59.96641881,5bc623acd2bea100010c808e,60d9d14f4a8a35a482e0d9bf,60edefdd46ddd9a8f4e7a716,,,,,,,,,,,,
"[""period"",""period""]",0,"[0.34483499999623746,0.9687149999954272]",17,0,17,0,1,5bc623acd2bea100010c808e,Kobieta,28,2021-07-13_21h58.32.325,rantool2,2021.1.4,Win32,59.96641881,5bc623acd2bea100010c808e,60d9d14f4a8a35a482e0d9bf,60edefdd46ddd9a8f4e7a716,,,,,,,,,,,,
"[""period"",""period""]",0,"[0.48866499998257495,0.9846249999827705]",18,0,18,0,1,5bc623acd2bea100010c808e,Kobieta,28,2021-07-13_21h58.32.325,rantool2,2021.1.4,Win32,59.96641881,5bc623acd2bea100010c808e,60d9d14f4a8a35a482e0d9bf,60edefdd46ddd9a8f4e7a716,,,,,,,,,,,,
"[""period"",""period""]",0,"[0.768725000001723,1.2406649999902584]",19,0,19,0,1,5bc623acd2bea100010c808e,Kobieta,28,2021-07-13_21h58.32.325,rantool2,2021.1.4,Win32,59.96641881,5bc623acd2bea100010c808e,60d9d14f4a8a35a482e0d9bf,60edefdd46ddd9a8f4e7a716,,,,,,,,,,,,
"[""comma"",""period""]",0,"[0.08863499999279156,1.4677249999949709]",20,0,20,0,1,5bc623acd2bea100010c808e,Kobieta,28,2021-07-13_21h58.32.325,rantool2,2021.1.4,Win32,59.96641881,5bc623acd2bea100010c808e,60d9d14f4a8a35a482e0d9bf,60edefdd46ddd9a8f4e7a716,,,,,,,,,,,,
"[""period"",""period"",""period""]",0,"[0.11251500001526438,0.44911000001593493,0.9688099999912083]",21,0,21,0,1,5bc623acd2bea100010c808e,Kobieta,28,2021-07-13_21h58.32.325,rantool2,2021.1.4,Win32,59.96641881,5bc623acd2bea100010c808e,60d9d14f4a8a35a482e0d9bf,60edefdd46ddd9a8f4e7a716,,,,,,,,,,,,
"[""comma""]",0,[0.2563300000037998],22,0,22,0,1,5bc623acd2bea100010c808e,Kobieta,28,2021-07-13_21h58.32.325,rantool2,2021.1.4,Win32,59.96641881,5bc623acd2bea100010c808e,60d9d14f4a8a35a482e0d9bf,60edefdd46ddd9a8f4e7a716,,,,,,,,,,,,
"[""comma""]",0,[0.2879350000002887],23,0,23,0,1,5bc623acd2bea100010c808e,Kobieta,28,2021-07-13_21h58.32.325,rantool2,2021.1.4,Win32,59.96641881,5bc623acd2bea100010c808e,60d9d14f4a8a35a482e0d9bf,60edefdd46ddd9a8f4e7a716,,,,,,,,,,,,
"[""period""]",0,[0.22429499999270774],24,0,24,0,1,5bc623acd2bea100010c808e,Kobieta,28,2021-07-13_21h58.32.325,rantool2,2021.1.4,Win32,59.96641881,5bc623acd2bea100010c808e,60d9d14f4a8a35a482e0d9bf,60edefdd46ddd9a8f4e7a716,,,,,,,,,,,,
"[""period""]",0,[0.5356399999873247],25,0,25,0,1,5bc623acd2bea100010c808e,Kobieta,28,2021-07-13_21h58.32.325,rantool2,2021.1.4,Win32,59.96641881,5bc623acd2bea100010c808e,60d9d14f4a8a35a482e0d9bf,60edefdd46ddd9a8f4e7a716,,,,,,,,,,,,
"[""comma""]",0,[0.5362000000022817],26,0,26,0,1,5bc623acd2bea100010c808e,Kobieta,28,2021-07-13_21h58.32.325,rantool2,2021.1.4,Win32,59.96641881,5bc623acd2bea100010c808e,60d9d14f4a8a35a482e0d9bf,60edefdd46ddd9a8f4e7a716,,,,,,,,,,,,
"[""comma""]",0,[0.6805350000213366],27,0,27,0,1,5bc623acd2bea100010c808e,Kobieta,28,2021-07-13_21h58.32.325,rantool2,2021.1.4,Win32,59.96641881,5bc623acd2bea100010c808e,60d9d14f4a8a35a482e0d9bf,60edefdd46ddd9a8f4e7a716,,,,,,,,,,,,
"[""period""]",0,[0.5444050000223797],28,0,28,0,1,5bc623acd2bea100010c808e,Kobieta,28,2021-07-13_21h58.32.325,rantool2,2021.1.4,Win32,59.96641881,5bc623acd2bea100010c808e,60d9d14f4a8a35a482e0d9bf,60edefdd46ddd9a8f4e7a716,,,,,,,,,,,,
"[""comma""]",0,[0.4002650000038557],29,0,29,0,1,5bc623acd2bea100010c808e,Kobieta,28,2021-07-13_21h58.32.325,rantool2,2021.1.4,Win32,59.96641881,5bc623acd2bea100010c808e,60d9d14f4a8a35a482e0d9bf,60edefdd46ddd9a8f4e7a716,,,,,,,,,,,,
"[""period""]",0,[0.43291999999200925],30,0,30,0,1,5bc623acd2bea100010c808e,Kobieta,28,2021-07-13_21h58.32.325,rantool2,2021.1.4,Win32,59.96641881,5bc623acd2bea100010c808e,60d9d14f4a8a35a482e0d9bf,60edefdd46ddd9a8f4e7a716,,,,,,,,,,,,
"[""period""]",0,[0.3841250000114087],31,0,31,0,1,5bc623acd2bea100010c808e,Kobieta,28,2021-07-13_21h58.32.325,rantool2,2021.1.4,Win32,59.96641881,5bc623acd2bea100010c808e,60d9d14f4a8a35a482e0d9bf,60edefdd46ddd9a8f4e7a716,,,,,,,,,,,,
"[""period""]",0,[0.265849999996135],32,0,32,0,1,5bc623acd2bea100010c808e,Kobieta,28,2021-07-13_21h58.32.325,rantool2,2021.1.4,Win32,59.96641881,5bc623acd2bea100010c808e,60d9d14f4a8a35a482e0d9bf,60edefdd46ddd9a8f4e7a716,,,,,,,,,,,,
"[""period""]",0,[0.25615999998990446],33,0,33,0,1,5bc623acd2bea100010c808e,Kobieta,28,2021-07-13_21h58.32.325,rantool2,2021.1.4,Win32,59.96641881,5bc623acd2bea100010c808e,60d9d14f4a8a35a482e0d9bf,60edefdd46ddd9a8f4e7a716,,,,,,,,,,,,
"[""comma""]",0,[0.42419499999959953],34,0,34,0,1,5bc623acd2bea100010c808e,Kobieta,28,2021-07-13_21h58.32.325,rantool2,2021.1.4,Win32,59.96641881,5bc623acd2bea100010c808e,60d9d14f4a8a35a482e0d9bf,60edefdd46ddd9a8f4e7a716,,,,,,,,,,,,
"[""comma""]",0,[0.24004500001319684],35,0,35,0,1,5bc623acd2bea100010c808e,Kobieta,28,2021-07-13_21h58.32.325,rantool2,2021.1.4,Win32,59.96641881,5bc623acd2bea100010c808e,60d9d14f4a8a35a482e0d9bf,60edefdd46ddd9a8f4e7a716,,,,,,,,,,,,
"[""period""]",0,[0.2559999999939464],36,0,36,0,1,5bc623acd2bea100010c808e,Kobieta,28,2021-07-13_21h58.32.325,rantool2,2021.1.4,Win32,59.96641881,5bc623acd2bea100010c808e,60d9d14f4a8a35a482e0d9bf,60edefdd46ddd9a8f4e7a716,,,,,,,,,,,,
"[""comma"",""comma""]",0,"[0.07197499999892898,0.7599599999957718]",37,0,37,0,1,5bc623acd2bea100010c808e,Kobieta,28,2021-07-13_21h58.32.325,rantool2,2021.1.4,Win32,59.96641881,5bc623acd2bea100010c808e,60d9d14f4a8a35a482e0d9bf,60edefdd46ddd9a8f4e7a716,,,,,,,,,,,,
"[""period""]",0,[0.6961449999944307],38,0,38,0,1,5bc623acd2bea100010c808e,Kobieta,28,2021-07-13_21h58.32.325,rantool2,2021.1.4,Win32,59.96641881,5bc623acd2bea100010c808e,60d9d14f4a8a35a482e0d9bf,60edefdd46ddd9a8f4e7a716,,,,,,,,,,,,
"[""period"",""comma""]",0,"[0.007745000009890646,0.5357550000189804]",39,0,39,0,1,5bc623acd2bea100010c808e,Kobieta,28,2021-07-13_21h58.32.325,rantool2,2021.1.4,Win32,59.96641881,5bc623acd2bea100010c808e,60d9d14f4a8a35a482e0d9bf,60edefdd46ddd9a8f4e7a716,,,,,,,,,,,,
"[""comma""]",0,[0.4559000000008382],40,0,40,0,1,5bc623acd2bea100010c808e,Kobieta,28,2021-07-13_21h58.32.325,rantool2,2021.1.4,Win32,59.96641881,5bc623acd2bea100010c808e,60d9d14f4a8a35a482e0d9bf,60edefdd46ddd9a8f4e7a716,,,,,,,,,,,,
"[""period"",""period""]",0,"[0.19977000000653788,0.7277600000088569]",41,0,41,0,1,5bc623acd2bea100010c808e,Kobieta,28,2021-07-13_21h58.32.325,rantool2,2021.1.4,Win32,59.96641881,5bc623acd2bea100010c808e,60d9d14f4a8a35a482e0d9bf,60edefdd46ddd9a8f4e7a716,,,,,,,,,,,,
"[""period"",""period"",""period""]",0,"[0.24949499999638647,0.6957150000089314,0.9596900000178721]",42,0,42,0,1,5bc623acd2bea100010c808e,Kobieta,28,2021-07-13_21h58.32.325,rantool2,2021.1.4,Win32,59.96641881,5bc623acd2bea100010c808e,60d9d14f4a8a35a482e0d9bf,60edefdd46ddd9a8f4e7a716,,,,,,,,,,,,
"[""comma"",""comma""]",0,"[0.1917150000226684,0.7439799999992829]",43,0,43,0,1,5bc623acd2bea100010c808e,Kobieta,28,2021-07-13_21h58.32.325,rantool2,2021.1.4,Win32,59.96641881,5bc623acd2bea100010c808e,60d9d14f4a8a35a482e0d9bf,60edefdd46ddd9a8f4e7a716,,,,,,,,,,,,
"[""period"",""period""]",0,"[0.0006599999906029552,0.45470999999088235]",44,0,44,0,1,5bc623acd2bea100010c808e,Kobieta,28,2021-07-13_21h58.32.325,rantool2,2021.1.4,Win32,59.96641881,5bc623acd2bea100010c808e,60d9d14f4a8a35a482e0d9bf,60edefdd46ddd9a8f4e7a716,,,,,,,,,,,,
"[""period"",""period""]",0,"[0.3595950000162702,0.7354950000008103]",45,0,45,0,1,5bc623acd2bea100010c808e,Kobieta,28,2021-07-13_21h58.32.325,rantool2,2021.1.4,Win32,59.96641881,5bc623acd2bea100010c808e,60d9d14f4a8a35a482e0d9bf,60edefdd46ddd9a8f4e7a716,,,,,,,,,,,,
"[""period"",""period""]",0,"[0.23960000000079162,0.6796200000098906]",46,0,46,0,1,5bc623acd2bea100010c808e,Kobieta,28,2021-07-13_21h58.32.325,rantool2,2021.1.4,Win32,59.96641881,5bc623acd2bea100010c808e,60d9d14f4a8a35a482e0d9bf,60edefdd46ddd9a8f4e7a716,,,,,,,,,,,,
"[""comma"",""comma"",""comma""]",0,"[0.3676500000001397,1.0956300000252668,1.823644999996759]",47,0,47,0,1,5bc623acd2bea100010c808e,Kobieta,28,2021-07-13_21h58.32.325,rantool2,2021.1.4,Win32,59.96641881,5bc623acd2bea100010c808e,60d9d14f4a8a35a482e0d9bf,60edefdd46ddd9a8f4e7a716,,,,,,,,,,,,
"[""period"",""period""]",0,"[0.38347499998053536,1.2006649999821093]",48,0,48,0,1,5bc623acd2bea100010c808e,Kobieta,28,2021-07-13_21h58.32.325,rantool2,2021.1.4,Win32,59.96641881,5bc623acd2bea100010c808e,60d9d14f4a8a35a482e0d9bf,60edefdd46ddd9a8f4e7a716,,,,,,,,,,,,
"[""period"",""period""]",0,"[0.3833499999891501,0.8158849999890663]",49,0,49,0,1,5bc623acd2bea100010c808e,Kobieta,28,2021-07-13_21h58.32.325,rantool2,2021.1.4,Win32,59.96641881,5bc623acd2bea100010c808e,60d9d14f4a8a35a482e0d9bf,60edefdd46ddd9a8f4e7a716,,,,,,,,,,,,
"[""period"",""period""]",0,"[0.41588499999488704,0.9914050000079442]",50,0,50,0,1,5bc623acd2bea100010c808e,Kobieta,28,2021-07-13_21h58.32.325,rantool2,2021.1.4,Win32,59.96641881,5bc623acd2bea100010c808e,60d9d14f4a8a35a482e0d9bf,60edefdd46ddd9a8f4e7a716,,,,,,,,,,,,
"[""comma"",""comma""]",0,"[0.3674600000085775,1.02339500002563]",51,0,51,0,1,5bc623acd2bea100010c808e,Kobieta,28,2021-07-13_21h58.32.325,rantool2,2021.1.4,Win32,59.96641881,5bc623acd2bea100010c808e,60d9d14f4a8a35a482e0d9bf,60edefdd46ddd9a8f4e7a716,,,,,,,,,,,,
"[""comma"",""comma""]",0,"[0.39135499999974854,0.8633449999906588]",52,0,52,0,1,5bc623acd2bea100010c808e,Kobieta,28,2021-07-13_21h58.32.325,rantool2,2021.1.4,Win32,59.96641881,5bc623acd2bea100010c808e,60d9d14f4a8a35a482e0d9bf,60edefdd46ddd9a8f4e7a716,,,,,,,,,,,,
"[""comma"",""comma""]",0,"[0.3759600000048522,0.9351650000025984]",53,0,53,0,1,5bc623acd2bea100010c808e,Kobieta,28,2021-07-13_21h58.32.325,rantool2,2021.1.4,Win32,59.96641881,5bc623acd2bea100010c808e,60d9d14f4a8a35a482e0d9bf,60edefdd46ddd9a8f4e7a716,,,,,,,,,,,,
"[""period"",""period""]",0,"[0.35155999998096377,1.0159699999785516]",54,0,54,0,1,5bc623acd2bea100010c808e,Kobieta,28,2021-07-13_21h58.32.325,rantool2,2021.1.4,Win32,59.96641881,5bc623acd2bea100010c808e,60d9d14f4a8a35a482e0d9bf,60edefdd46ddd9a8f4e7a716,,,,,,,,,,,,
"[""period""]",0,[0.24749499998870306],55,0,55,0,1,5bc623acd2bea100010c808e,Kobieta,28,2021-07-13_21h58.32.325,rantool2,2021.1.4,Win32,59.96641881,5bc623acd2bea100010c808e,60d9d14f4a8a35a482e0d9bf,60edefdd46ddd9a8f4e7a716,,,,,,,,,,,,
"[""period""]",0,[0.42319999999017455],56,0,56,0,1,5bc623acd2bea100010c808e,Kobieta,28,2021-07-13_21h58.32.325,rantool2,2021.1.4,Win32,59.96641881,5bc623acd2bea100010c808e,60d9d14f4a8a35a482e0d9bf,60edefdd46ddd9a8f4e7a716,,,,,,,,,,,,
"[""comma""]",0,[0.4474800000025425],57,0,57,0,1,5bc623acd2bea100010c808e,Kobieta,28,2021-07-13_21h58.32.325,rantool2,2021.1.4,Win32,59.96641881,5bc623acd2bea100010c808e,60d9d14f4a8a35a482e0d9bf,60edefdd46ddd9a8f4e7a716,,,,,,,,,,,,
"[""period""]",0,[0.3830749999906402],58,0,58,0,1,5bc623acd2bea100010c808e,Kobieta,28,2021-07-13_21h58.32.325,rantool2,2021.1.4,Win32,59.96641881,5bc623acd2bea100010c808e,60d9d14f4a8a35a482e0d9bf,60edefdd46ddd9a8f4e7a716,,,,,,,,,,,,
"[""period""]",0,[0.2473300000128802],59,0,59,0,1,5bc623acd2bea100010c808e,Kobieta,28,2021-07-13_21h58.32.325,rantool2,2021.1.4,Win32,59.96641881,5bc623acd2bea100010c808e,60d9d14f4a8a35a482e0d9bf,60edefdd46ddd9a8f4e7a716,,,,,,,,,,,,
"[""comma""]",0,[0.4343100000114646],60,0,60,0,1,5bc623acd2bea100010c808e,Kobieta,28,2021-07-13_21h58.32.325,rantool2,2021.1.4,Win32,59.96641881,5bc623acd2bea100010c808e,60d9d14f4a8a35a482e0d9bf,60edefdd46ddd9a8f4e7a716,,,,,,,,,,,,
"[""comma"",""period"",""comma""]",0,"[0.38295499997911975,0.39104499999666587,0.7429649999830872]",61,0,61,0,1,5bc623acd2bea100010c808e,Kobieta,28,2021-07-13_21h58.32.325,rantool2,2021.1.4,Win32,59.96641881,5bc623acd2bea100010c808e,60d9d14f4a8a35a482e0d9bf,60edefdd46ddd9a8f4e7a716,,,,,,,,,,,,
"[""period""]",0,[0.3748150000174064],62,0,62,0,1,5bc623acd2bea100010c808e,Kobieta,28,2021-07-13_21h58.32.325,rantool2,2021.1.4,Win32,59.96641881,5bc623acd2bea100010c808e,60d9d14f4a8a35a482e0d9bf,60edefdd46ddd9a8f4e7a716,,,,,,,,,,,,
"[""period""]",0,[0.2470949999988079],63,0,63,0,1,5bc623acd2bea100010c808e,Kobieta,28,2021-07-13_21h58.32.325,rantool2,2021.1.4,Win32,59.96641881,5bc623acd2bea100010c808e,60d9d14f4a8a35a482e0d9bf,60edefdd46ddd9a8f4e7a716,,,,,,,,,,,,
"[""period""]",0,[0.6388049999950454],64,0,64,0,1,5bc623acd2bea100010c808e,Kobieta,28,2021-07-13_21h58.32.325,rantool2,2021.1.4,Win32,59.96641881,5bc623acd2bea100010c808e,60d9d14f4a8a35a482e0d9bf,60edefdd46ddd9a8f4e7a716,,,,,,,,,,,,
"[""period"",""period""]",0,"[0.3669250000093598,1.217285000020638]",65,0,65,0,1,5bc623acd2bea100010c808e,Kobieta,28,2021-07-13_21h58.32.325,rantool2,2021.1.4,Win32,59.96641881,5bc623acd2bea100010c808e,60d9d14f4a8a35a482e0d9bf,60edefdd46ddd9a8f4e7a716,,,,,,,,,,,,
"[""comma""]",0,[1.2709449999965727],66,0,66,0,1,5bc623acd2bea100010c808e,Kobieta,28,2021-07-13_21h58.32.325,rantool2,2021.1.4,Win32,59.96641881,5bc623acd2bea100010c808e,60d9d14f4a8a35a482e0d9bf,60edefdd46ddd9a8f4e7a716,,,,,,,,,,,,
"[""comma"",""comma"",""comma""]",0,"[0.022900000010849908,0.37480499999946915,1.0328999999910593]",67,0,67,0,1,5bc623acd2bea100010c808e,Kobieta,28,2021-07-13_21h58.32.325,rantool2,2021.1.4,Win32,59.96641881,5bc623acd2bea100010c808e,60d9d14f4a8a35a482e0d9bf,60edefdd46ddd9a8f4e7a716,,,,,,,,,,,,
"[""period"",""period""]",0,"[0.39067000002251007,0.8545150000136346]",68,0,68,0,1,5bc623acd2bea100010c808e,Kobieta,28,2021-07-13_21h58.32.325,rantool2,2021.1.4,Win32,59.96641881,5bc623acd2bea100010c808e,60d9d14f4a8a35a482e0d9bf,60edefdd46ddd9a8f4e7a716,,,,,,,,,,,,
"[""comma"",""comma""]",0,"[0.40659500000765547,1.1346250000060536]",69,0,69,0,1,5bc623acd2bea100010c808e,Kobieta,28,2021-07-13_21h58.32.325,rantool2,2021.1.4,Win32,59.96641881,5bc623acd2bea100010c808e,60d9d14f4a8a35a482e0d9bf,60edefdd46ddd9a8f4e7a716,,,,,,,,,,,,
"[""comma""]",0,[0.9505650000064634],70,0,70,0,1,5bc623acd2bea100010c808e,Kobieta,28,2021-07-13_21h58.32.325,rantool2,2021.1.4,Win32,59.96641881,5bc623acd2bea100010c808e,60d9d14f4a8a35a482e0d9bf,60edefdd46ddd9a8f4e7a716,,,,,,,,,,,,
"[""period""]",0,[0.7108099999895785],71,0,71,0,1,5bc623acd2bea100010c808e,Kobieta,28,2021-07-13_21h58.32.325,rantool2,2021.1.4,Win32,59.96641881,5bc623acd2bea100010c808e,60d9d14f4a8a35a482e0d9bf,60edefdd46ddd9a8f4e7a716,,,,,,,,,,,,
"[""period""]",0,[0.39913499998510815],72,0,72,0,1,5bc623acd2bea100010c808e,Kobieta,28,2021-07-13_21h58.32.325,rantool2,2021.1.4,Win32,59.96641881,5bc623acd2bea100010c808e,60d9d14f4a8a35a482e0d9bf,60edefdd46ddd9a8f4e7a716,,,,,,,,,,,,
"[""comma""]",0,[0.2385599999979604],73,0,73,0,1,5bc623acd2bea100010c808e,Kobieta,28,2021-07-13_21h58.32.325,rantool2,2021.1.4,Win32,59.96641881,5bc623acd2bea100010c808e,60d9d14f4a8a35a482e0d9bf,60edefdd46ddd9a8f4e7a716,,,,,,,,,,,,
"[""comma"",""comma""]",0,"[0.03850500000407919,0.47854999999981374]",74,0,74,0,1,5bc623acd2bea100010c808e,Kobieta,28,2021-07-13_21h58.32.325,rantool2,2021.1.4,Win32,59.96641881,5bc623acd2bea100010c808e,60d9d14f4a8a35a482e0d9bf,60edefdd46ddd9a8f4e7a716,,,,,,,,,,,,
"[""comma""]",0,[0.34247999999206513],75,0,75,0,1,5bc623acd2bea100010c808e,Kobieta,28,2021-07-13_21h58.32.325,rantool2,2021.1.4,Win32,59.96641881,5bc623acd2bea100010c808e,60d9d14f4a8a35a482e0d9bf,60edefdd46ddd9a8f4e7a716,,,,,,,,,,,,
"[""period""]",0,[0.39045000000623986],76,0,76,0,1,5bc623acd2bea100010c808e,Kobieta,28,2021-07-13_21h58.32.325,rantool2,2021.1.4,Win32,59.96641881,5bc623acd2bea100010c808e,60d9d14f4a8a35a482e0d9bf,60edefdd46ddd9a8f4e7a716,,,,,,,,,,,,
"[""period"",""comma""]",0,"[0.26232000000891276,0.8382249999849591]",77,0,77,0,1,5bc623acd2bea100010c808e,Kobieta,28,2021-07-13_21h58.32.325,rantool2,2021.1.4,Win32,59.96641881,5bc623acd2bea100010c808e,60d9d14f4a8a35a482e0d9bf,60edefdd46ddd9a8f4e7a716,,,,,,,,,,,,
"[""period""]",0,[0.37430500000482425],78,0,78,0,1,5bc623acd2bea100010c808e,Kobieta,28,2021-07-13_21h58.32.325,rantool2,2021.1.4,Win32,59.96641881,5bc623acd2bea100010c808e,60d9d14f4a8a35a482e0d9bf,60edefdd46ddd9a8f4e7a716,,,,,,,,,,,,
"[""period""]",0,[0.30205499997828156],79,0,79,0,1,5bc623acd2bea100010c808e,Kobieta,28,2021-07-13_21h58.32.325,rantool2,2021.1.4,Win32,59.96641881,5bc623acd2bea100010c808e,60d9d14f4a8a35a482e0d9bf,60edefdd46ddd9a8f4e7a716,,,,,,,,,,,,
"[""comma"",""period""]",0,"[0.06242000000202097,1.846400000009453]",80,0,80,0,1,5bc623acd2bea100010c808e,Kobieta,28,2021-07-13_21h58.32.325,rantool2,2021.1.4,Win32,59.96641881,5bc623acd2bea100010c808e,60d9d14f4a8a35a482e0d9bf,60edefdd46ddd9a8f4e7a716,,,,,,,,,,,,
"[""period""]",0,[0.2380950000078883],81,0,81,0,1,5bc623acd2bea100010c808e,Kobieta,28,2021-07-13_21h58.32.325,rantool2,2021.1.4,Win32,59.96641881,5bc623acd2bea100010c808e,60d9d14f4a8a35a482e0d9bf,60edefdd46ddd9a8f4e7a716,,,,,,,,,,,,
"[""period""]",0,[0.2865600000077393],82,0,82,0,1,5bc623acd2bea100010c808e,Kobieta,28,2021-07-13_21h58.32.325,rantool2,2021.1.4,Win32,59.96641881,5bc623acd2bea100010c808e,60d9d14f4a8a35a482e0d9bf,60edefdd46ddd9a8f4e7a716,,,,,,,,,,,,
"[""period""]",0,[0.5181350000202656],83,0,83,0,1,5bc623acd2bea100010c808e,Kobieta,28,2021-07-13_21h58.32.325,rantool2,2021.1.4,Win32,59.96641881,5bc623acd2bea100010c808e,60d9d14f4a8a35a482e0d9bf,60edefdd46ddd9a8f4e7a716,,,,,,,,,,,,
"[""period""]",0,[0.41586999999708496],84,0,84,0,1,5bc623acd2bea100010c808e,Kobieta,28,2021-07-13_21h58.32.325,rantool2,2021.1.4,Win32,59.96641881,5bc623acd2bea100010c808e,60d9d14f4a8a35a482e0d9bf,60edefdd46ddd9a8f4e7a716,,,,,,,,,,,,
"[""comma""]",0,[0.38158499999553896],85,0,85,0,1,5bc623acd2bea100010c808e,Kobieta,28,2021-07-13_21h58.32.325,rantool2,2021.1.4,Win32,59.96641881,5bc623acd2bea100010c808e,60d9d14f4a8a35a482e0d9bf,60edefdd46ddd9a8f4e7a716,,,,,,,,,,,,
"[""comma""]",0,[0.31002999999327585],86,0,86,0,1,5bc623acd2bea100010c808e,Kobieta,28,2021-07-13_21h58.32.325,rantool2,2021.1.4,Win32,59.96641881,5bc623acd2bea100010c808e,60d9d14f4a8a35a482e0d9bf,60edefdd46ddd9a8f4e7a716,,,,,,,,,,,,
"[""period""]",0,[0.4541049999825191],87,0,87,0,1,5bc623acd2bea100010c808e,Kobieta,28,2021-07-13_21h58.32.325,rantool2,2021.1.4,Win32,59.96641881,5bc623acd2bea100010c808e,60d9d14f4a8a35a482e0d9bf,60edefdd46ddd9a8f4e7a716,,,,,,,,,,,,
"[""period""]",0,[0.45389500001329],88,0,88,0,1,5bc623acd2bea100010c808e,Kobieta,28,2021-07-13_21h58.32.325,rantool2,2021.1.4,Win32,59.96641881,5bc623acd2bea100010c808e,60d9d14f4a8a35a482e0d9bf,60edefdd46ddd9a8f4e7a716,,,,,,,,,,,,
"[""comma""]",0,[1.0005999999993946],89,0,89,0,1,5bc623acd2bea100010c808e,Kobieta,28,2021-07-13_21h58.32.325,rantool2,2021.1.4,Win32,59.96641881,5bc623acd2bea100010c808e,60d9d14f4a8a35a482e0d9bf,60edefdd46ddd9a8f4e7a716,,,,,,,,,,,,
"[""comma"",""comma""]",0,"[0.029964999994263053,0.43794999999227]",90,0,90,0,1,5bc623acd2bea100010c808e,Kobieta,28,2021-07-13_21h58.32.325,rantool2,2021.1.4,Win32,59.96641881,5bc623acd2bea100010c808e,60d9d14f4a8a35a482e0d9bf,60edefdd46ddd9a8f4e7a716,,,,,,,,,,,,
"[""period""]",0,[0.3738700000103563],91,0,91,0,1,5bc623acd2bea100010c808e,Kobieta,28,2021-07-13_21h58.32.325,rantool2,2021.1.4,Win32,59.96641881,5bc623acd2bea100010c808e,60d9d14f4a8a35a482e0d9bf,60edefdd46ddd9a8f4e7a716,,,,,,,,,,,,
"[""period""]",0,[0.5019299999985378],92,0,92,0,1,5bc623acd2bea100010c808e,Kobieta,28,2021-07-13_21h58.32.325,rantool2,2021.1.4,Win32,59.96641881,5bc623acd2bea100010c808e,60d9d14f4a8a35a482e0d9bf,60edefdd46ddd9a8f4e7a716,,,,,,,,,,,,
"[""comma""]",0,[0.3578799999959301],93,0,93,0,1,5bc623acd2bea100010c808e,Kobieta,28,2021-07-13_21h58.32.325,rantool2,2021.1.4,Win32,59.96641881,5bc623acd2bea100010c808e,60d9d14f4a8a35a482e0d9bf,60edefdd46ddd9a8f4e7a716,,,,,,,,,,,,
"[""comma""]",0,[0.5096450000128243],94,0,94,0,1,5bc623acd2bea100010c808e,Kobieta,28,2021-07-13_21h58.32.325,rantool2,2021.1.4,Win32,59.96641881,5bc623acd2bea100010c808e,60d9d14f4a8a35a482e0d9bf,60edefdd46ddd9a8f4e7a716,,,,,,,,,,,,
"[""period""]",0,[0.453750000015134],95,0,95,0,1,5bc623acd2bea100010c808e,Kobieta,28,2021-07-13_21h58.32.325,rantool2,2021.1.4,Win32,59.96641881,5bc623acd2bea100010c808e,60d9d14f4a8a35a482e0d9bf,60edefdd46ddd9a8f4e7a716,,,,,,,,,,,,
"[""period"",""period"",""period"",""period"",""period""]",0,"[0.0056899999908637255,0.2857099999964703,0.4776899999997113,0.6617249999835622,0.8376850000058766]",96,0,96,0,1,5bc623acd2bea100010c808e,Kobieta,28,2021-07-13_21h58.32.325,rantool2,2021.1.4,Win32,59.96641881,5bc623acd2bea100010c808e,60d9d14f4a8a35a482e0d9bf,60edefdd46ddd9a8f4e7a716,,,,,,,,,,,,
"[""period"",""period"",""period""]",0,"[0.41366500000003725,0.6304949999903329,0.8296299999929033]",97,0,97,0,1,5bc623acd2bea100010c808e,Kobieta,28,2021-07-13_21h58.32.325,rantool2,2021.1.4,Win32,59.96641881,5bc623acd2bea100010c808e,60d9d14f4a8a35a482e0d9bf,60edefdd46ddd9a8f4e7a716,,,,,,,,,,,,
"[""comma""]",0,[0.3991950000054203],98,0,98,0,1,5bc623acd2bea100010c808e,Kobieta,28,2021-07-13_21h58.32.325,rantool2,2021.1.4,Win32,59.96641881,5bc623acd2bea100010c808e,60d9d14f4a8a35a482e0d9bf,60edefdd46ddd9a8f4e7a716,,,,,,,,,,,,
"[""comma""]",0,[0.3735449999803677],99,0,99,0,1,5bc623acd2bea100010c808e,Kobieta,28,2021-07-13_21h58.32.325,rantool2,2021.1.4,Win32,59.96641881,5bc623acd2bea100010c808e,60d9d14f4a8a35a482e0d9bf,60edefdd46ddd9a8f4e7a716,,,,,,,,,,,,
"[""period""]",0,[0.22955000001820736],100,0,100,0,1,5bc623acd2bea100010c808e,Kobieta,28,2021-07-13_21h58.32.325,rantool2,2021.1.4,Win32,59.96641881,5bc623acd2bea100010c808e,60d9d14f4a8a35a482e0d9bf,60edefdd46ddd9a8f4e7a716,,,,,,,,,,,,
"[""period""]",0,[0.1894449999963399],101,0,101,0,1,5bc623acd2bea100010c808e,Kobieta,28,2021-07-13_21h58.32.325,rantool2,2021.1.4,Win32,59.96641881,5bc623acd2bea100010c808e,60d9d14f4a8a35a482e0d9bf,60edefdd46ddd9a8f4e7a716,,,,,,,,,,,,
"[""comma""]",0,[0.43687500001396984],102,0,102,0,1,5bc623acd2bea100010c808e,Kobieta,28,2021-07-13_21h58.32.325,rantool2,2021.1.4,Win32,59.96641881,5bc623acd2bea100010c808e,60d9d14f4a8a35a482e0d9bf,60edefdd46ddd9a8f4e7a716,,,,,,,,,,,,
"[""comma""]",0,[0.22981000001891516],103,0,103,0,1,5bc623acd2bea100010c808e,Kobieta,28,2021-07-13_21h58.32.325,rantool2,2021.1.4,Win32,59.96641881,5bc623acd2bea100010c808e,60d9d14f4a8a35a482e0d9bf,60edefdd46ddd9a8f4e7a716,,,,,,,,,,,,
"[""period""]",0,[0.14139500001328997],104,0,104,0,1,5bc623acd2bea100010c808e,Kobieta,28,2021-07-13_21h58.32.325,rantool2,2021.1.4,Win32,59.96641881,5bc623acd2bea100010c808e,60d9d14f4a8a35a482e0d9bf,60edefdd46ddd9a8f4e7a716,,,,,,,,,,,,
"[""period"",""period"",""period""]",0,"[0.005325000005541369,0.30939999999827705,0.8773100000107661]",105,0,105,0,1,5bc623acd2bea100010c808e,Kobieta,28,2021-07-13_21h58.32.325,rantool2,2021.1.4,Win32,59.96641881,5bc623acd2bea100010c808e,60d9d14f4a8a35a482e0d9bf,60edefdd46ddd9a8f4e7a716,,,,,,,,,,,,
"[""period""]",0,[0.34137000000919215],106,0,106,0,1,5bc623acd2bea100010c808e,Kobieta,28,2021-07-13_21h58.32.325,rantool2,2021.1.4,Win32,59.96641881,5bc623acd2bea100010c808e,60d9d14f4a8a35a482e0d9bf,60edefdd46ddd9a8f4e7a716,,,,,,,,,,,,
"[""comma"",""comma""]",0,"[0.22127000000909902,1.9658000000054017]",107,0,107,0,1,5bc623acd2bea100010c808e,Kobieta,28,2021-07-13_21h58.32.325,rantool2,2021.1.4,Win32,59.96641881,5bc623acd2bea100010c808e,60d9d14f4a8a35a482e0d9bf,60edefdd46ddd9a8f4e7a716,,,,,,,,,,,,
"[""comma""]",0,[0.3333899999852292],108,0,108,0,1,5bc623acd2bea100010c808e,Kobieta,28,2021-07-13_21h58.32.325,rantool2,2021.1.4,Win32,59.96641881,5bc623acd2bea100010c808e,60d9d14f4a8a35a482e0d9bf,60edefdd46ddd9a8f4e7a716,,,,,,,,,,,,
"[""period""]",0,[0.4850950000109151],109,0,109,0,1,5bc623acd2bea100010c808e,Kobieta,28,2021-07-13_21h58.32.325,rantool2,2021.1.4,Win32,59.96641881,5bc623acd2bea100010c808e,60d9d14f4a8a35a482e0d9bf,60edefdd46ddd9a8f4e7a716,,,,,,,,,,,,
"[""period"",""comma""]",0,"[0.2532950000022538,1.934225000004517]",110,0,110,0,1,5bc623acd2bea100010c808e,Kobieta,28,2021-07-13_21h58.32.325,rantool2,2021.1.4,Win32,59.96641881,5bc623acd2bea100010c808e,60d9d14f4a8a35a482e0d9bf,60edefdd46ddd9a8f4e7a716,,,,,,,,,,,,
"[""comma""]",0,[0.37221000000135973],111,0,111,0,1,5bc623acd2bea100010c808e,Kobieta,28,2021-07-13_21h58.32.325,rantool2,2021.1.4,Win32,59.96641881,5bc623acd2bea100010c808e,60d9d14f4a8a35a482e0d9bf,60edefdd46ddd9a8f4e7a716,,,,,,,,,,,,
"[""comma""]",0,[0.349339999986114],112,0,112,0,1,5bc623acd2bea100010c808e,Kobieta,28,2021-07-13_21h58.32.325,rantool2,2021.1.4,Win32,59.96641881,5bc623acd2bea100010c808e,60d9d14f4a8a35a482e0d9bf,60edefdd46ddd9a8f4e7a716,,,,,,,,,,,,
"[""comma""]",0,[0.4212600000028033],113,0,113,0,1,5bc623acd2bea100010c808e,Kobieta,28,2021-07-13_21h58.32.325,rantool2,2021.1.4,Win32,59.96641881,5bc623acd2bea100010c808e,60d9d14f4a8a35a482e0d9bf,60edefdd46ddd9a8f4e7a716,,,,,,,,,,,,
"[""period""]",0,[0.3972749999957159],114,0,114,0,1,5bc623acd2bea100010c808e,Kobieta,28,2021-07-13_21h58.32.325,rantool2,2021.1.4,Win32,59.96641881,5bc623acd2bea100010c808e,60d9d14f4a8a35a482e0d9bf,60edefdd46ddd9a8f4e7a716,,,,,,,,,,,,
"[""period"",""period""]",0,"[0.26100999998743646,1.9090549999964423]",115,0,115,0,1,5bc623acd2bea100010c808e,Kobieta,28,2021-07-13_21h58.32.325,rantool2,2021.1.4,Win32,59.96641881,5bc623acd2bea100010c808e,60d9d14f4a8a35a482e0d9bf,60edefdd46ddd9a8f4e7a716,,,,,,,,,,,,
"[""period"",""period""]",0,"[0.24487500000395812,0.5676099999982398]",116,0,116,0,1,5bc623acd2bea100010c808e,Kobieta,28,2021-07-13_21h58.32.325,rantool2,2021.1.4,Win32,59.96641881,5bc623acd2bea100010c808e,60d9d14f4a8a35a482e0d9bf,60edefdd46ddd9a8f4e7a716,,,,,,,,,,,,
"[""period""]",0,[0.2607949999801349],117,0,117,0,1,5bc623acd2bea100010c808e,Kobieta,28,2021-07-13_21h58.32.325,rantool2,2021.1.4,Win32,59.96641881,5bc623acd2bea100010c808e,60d9d14f4a8a35a482e0d9bf,60edefdd46ddd9a8f4e7a716,,,,,,,,,,,,
"[""period""]",0,[0.38885499999742024],118,0,118,0,1,5bc623acd2bea100010c808e,Kobieta,28,2021-07-13_21h58.32.325,rantool2,2021.1.4,Win32,59.96641881,5bc623acd2bea100010c808e,60d9d14f4a8a35a482e0d9bf,60edefdd46ddd9a8f4e7a716,,,,,,,,,,,,
"[""period""]",0,[0.34105499999714084],119,0,119,0,1,5bc623acd2bea100010c808e,Kobieta,28,2021-07-13_21h58.32.325,rantool2,2021.1.4,Win32,59.96641881,5bc623acd2bea100010c808e,60d9d14f4a8a35a482e0d9bf,60edefdd46ddd9a8f4e7a716,,,,,,,,,,,,
,,,,,,,,5bc623acd2bea100010c808e,Kobieta,28,2021-07-13_21h58.32.325,rantool2,2021.1.4,Win32,59.96641881,5bc623acd2bea100010c808e,60d9d14f4a8a35a482e0d9bf,60edefdd46ddd9a8f4e7a716,f,0.371975,0,0,0,26,1,ORROROO,ORROROR,22.02732763,21.71443381,series_0
,,,,,,,,5bc623acd2bea100010c808e,Kobieta,28,2021-07-13_21h58.32.325,rantool2,2021.1.4,Win32,59.96641881,5bc623acd2bea100010c808e,60d9d14f4a8a35a482e0d9bf,60edefdd46ddd9a8f4e7a716,j,0.964035,0,1,1,46,1,RORRROO,RORRROR,22.00300695,21.24781509,series_0
,,,,,,,,5bc623acd2bea100010c808e,Kobieta,28,2021-07-13_21h58.32.325,rantool2,2021.1.4,Win32,59.96641881,5bc623acd2bea100010c808e,60d9d14f4a8a35a482e0d9bf,60edefdd46ddd9a8f4e7a716,j,0.7886,0,2,2,32,1,ROOOOOO,ROOOOOR,19.92253567,21.27974287,series_1
,,,,,,,,5bc623acd2bea100010c808e,Kobieta,28,2021-07-13_21h58.32.325,rantool2,2021.1.4,Win32,59.96641881,5bc623acd2bea100010c808e,60d9d14f4a8a35a482e0d9bf,60edefdd46ddd9a8f4e7a716,f,0.68423,0,3,3,56,1,RRROOOO,RRROOOR,21.6194508,22.31681875,series_1
,,,,,,,,5bc623acd2bea100010c808e,Kobieta,28,2021-07-13_21h58.32.325,rantool2,2021.1.4,Win32,59.96641881,5bc623acd2bea100010c808e,60d9d14f4a8a35a482e0d9bf,60edefdd46ddd9a8f4e7a716,j,0.47198,0,4,4,14,1,OORRROO,OORRROR,22.24142883,22.16977179,series_0
,,,,,,,,5bc623acd2bea100010c808e,Kobieta,28,2021-07-13_21h58.32.325,rantool2,2021.1.4,Win32,59.96641881,5bc623acd2bea100010c808e,60d9d14f4a8a35a482e0d9bf,60edefdd46ddd9a8f4e7a716,f,0.550825,0,5,5,50,1,RROOROO,RROOROR,21.73568164,22.02566557,series_1
,,,,,,,,5bc623acd2bea100010c808e,Kobieta,28,2021-07-13_21h58.32.325,rantool2,2021.1.4,Win32,59.96641881,5bc623acd2bea100010c808e,60d9d14f4a8a35a482e0d9bf,60edefdd46ddd9a8f4e7a716,f,0.46136,0,6,6,57,1,RRROORO,RRROORR,21.82425538,22.07102821,series_1
,,,,,,,,5bc623acd2bea100010c808e,Kobieta,28,2021-07-13_21h58.32.325,rantool2,2021.1.4,Win32,59.96641881,5bc623acd2bea100010c808e,60d9d14f4a8a35a482e0d9bf,60edefdd46ddd9a8f4e7a716,j,0.353905,0,7,7,4,1,OOOROOO,OOOROOR,19.91402015,21.21223021,series_1
,,,,,,,,5bc623acd2bea100010c808e,Kobieta,28,2021-07-13_21h58.32.325,rantool2,2021.1.4,Win32,59.96641881,5bc623acd2bea100010c808e,60d9d14f4a8a35a482e0d9bf,60edefdd46ddd9a8f4e7a716,j,0.44253,0,8,8,41,1,ROROORO,ROROORR,20.42602454,21.71443381,series_1
,,,,,,,,5bc623acd2bea100010c808e,Kobieta,28,2021-07-13_21h58.32.325,rantool2,2021.1.4,Win32,59.96641881,5bc623acd2bea100010c808e,60d9d14f4a8a35a482e0d9bf,60edefdd46ddd9a8f4e7a716,f,0.29597,0,9,9,3,1,OOOORRO,OOOORRR,20.90986523,21.74922619,series_1
,,,,,,,,5bc623acd2bea100010c808e,Kobieta,28,2021-07-13_21h58.32.325,rantool2,2021.1.4,Win32,59.96641881,5bc623acd2bea100010c808e,60d9d14f4a8a35a482e0d9bf,60edefdd46ddd9a8f4e7a716,f,0.43402,0,10,10,22,1,ORORROO,ORORROR,22.02732763,21.57657071,series_0
,,,,,,,,5bc623acd2bea100010c808e,Kobieta,28,2021-07-13_21h58.32.325,rantool2,2021.1.4,Win32,59.96641881,5bc623acd2bea100010c808e,60d9d14f4a8a35a482e0d9bf,60edefdd46ddd9a8f4e7a716,j,0.300835,0,11,11,61,1,RRRRORO,RRRRORR,21.81333602,21.17347734,series_0
,,,,,,,,5bc623acd2bea100010c808e,Kobieta,28,2021-07-13_21h58.32.325,rantool2,2021.1.4,Win32,59.96641881,5bc623acd2bea100010c808e,60d9d14f4a8a35a482e0d9bf,60edefdd46ddd9a8f4e7a716,f,0.324635,0,12,12,25,1,ORROORO,ORROORR,21.79500819,22.61624387,series_1
,,,,,,,,5bc623acd2bea100010c808e,Kobieta,28,2021-07-13_21h58.32.325,rantool2,2021.1.4,Win32,59.96641881,5bc623acd2bea100010c808e,60d9d14f4a8a35a482e0d9bf,60edefdd46ddd9a8f4e7a716,f,0.31857,0,13,13,19,1,OROORRO,OROORRR,21.73568164,22.11181017,series_1
,,,,,,,,5bc623acd2bea100010c808e,Kobieta,28,2021-07-13_21h58.32.325,rantool2,2021.1.4,Win32,59.96641881,5bc623acd2bea100010c808e,60d9d14f4a8a35a482e0d9bf,60edefdd46ddd9a8f4e7a716,j,0.33386,0,14,14,63,1,RRRRRRO,RRRRRRR,21.35278725,19.62521613,series_0
,,,,,,,,5bc623acd2bea100010c808e,Kobieta,28,2021-07-13_21h58.32.325,rantool2,2021.1.4,Win32,59.96641881,5bc623acd2bea100010c808e,60d9d14f4a8a35a482e0d9bf,60edefdd46ddd9a8f4e7a716,j,0.40081,0,15,15,55,1,RRORRRO,RRORRRR,21.56657303,21.21223021,series_0
,,,,,,,,5bc623acd2bea100010c808e,Kobieta,28,2021-07-13_21h58.32.325,rantool2,2021.1.4,Win32,59.96641881,5bc623acd2bea100010c808e,60d9d14f4a8a35a482e0d9bf,60edefdd46ddd9a8f4e7a716,f,0.3059,0,16,16,5,1,OOORORO,OOORORR,20.87963819,21.9921709,series_1
,,,,,,,,5bc623acd2bea100010c808e,Kobieta,28,2021-07-13_21h58.32.325,rantool2,2021.1.4,Win32,59.96641881,5bc623acd2bea100010c808e,60d9d14f4a8a35a482e0d9bf,60edefdd46ddd9a8f4e7a716,f,0.53516,0,17,17,16,1,OROOOOO,OROOOOR,20.43051175,21.17347734,series_1
,,,,,,,,5bc623acd2bea100010c808e,Kobieta,28,2021-07-13_21h58.32.325,rantool2,2021.1.4,Win32,59.96641881,5bc623acd2bea100010c808e,60d9d14f4a8a35a482e0d9bf,60edefdd46ddd9a8f4e7a716,j,1.22241,0,18,18,10,1,OOROROO,OOROROR,21.31236711,21.07490964,series_0
,,,,,,,,5bc623acd2bea100010c808e,Kobieta,28,2021-07-13_21h58.32.325,rantool2,2021.1.4,Win32,59.96641881,5bc623acd2bea100010c808e,60d9d14f4a8a35a482e0d9bf,60edefdd46ddd9a8f4e7a716,f,1.00053,0,19,19,36,1,ROOROOO,ROOROOR,21.07991943,20.9984461,series_0
,,,,,,,,5bc623acd2bea100010c808e,Kobieta,28,2021-07-13_21h58.32.325,rantool2,2021.1.4,Win32,59.96641881,5bc623acd2bea100010c808e,60d9d14f4a8a35a482e0d9bf,60edefdd46ddd9a8f4e7a716,f,0.66742,0,20,20,44,1,RORROOO,RORROOR,21.66733484,22.02566557,series_1
,,,,,,,,5bc623acd2bea100010c808e,Kobieta,28,2021-07-13_21h58.32.325,rantool2,2021.1.4,Win32,59.96641881,5bc623acd2bea100010c808e,60d9d14f4a8a35a482e0d9bf,60edefdd46ddd9a8f4e7a716,j,0.224425,0,21,21,62,1,RRRRROO,RRRRROR,22.16413392,21.27974287,series_0
,,,,,,,,5bc623acd2bea100010c808e,Kobieta,28,2021-07-13_21h58.32.325,rantool2,2021.1.4,Win32,59.96641881,5bc623acd2bea100010c808e,60d9d14f4a8a35a482e0d9bf,60edefdd46ddd9a8f4e7a716,j,0.45435,0,22,22,0,1,OOOOOOO,OOOOOOR,18.52739004,19.62521613,series_1
,,,,,,,,5bc623acd2bea100010c808e,Kobieta,28,2021-07-13_21h58.32.325,rantool2,2021.1.4,Win32,59.96641881,5bc623acd2bea100010c808e,60d9d14f4a8a35a482e0d9bf,60edefdd46ddd9a8f4e7a716,f,0.40315,0,23,23,30,1,ORRRROO,ORRRROR,22.46748491,22.03072203,series_0
,,,,,,,,5bc623acd2bea100010c808e,Kobieta,28,2021-07-13_21h58.32.325,rantool2,2021.1.4,Win32,59.96641881,5bc623acd2bea100010c808e,60d9d14f4a8a35a482e0d9bf,60edefdd46ddd9a8f4e7a716,f,0.433835,0,24,24,11,1,OORORRO,OORORRR,22.18365867,22.6797523,series_1
,,,,,,,,5bc623acd2bea100010c808e,Kobieta,28,2021-07-13_21h58.32.325,rantool2,2021.1.4,Win32,59.96641881,5bc623acd2bea100010c808e,60d9d14f4a8a35a482e0d9bf,60edefdd46ddd9a8f4e7a716,j,0.184205,0,25,25,31,1,ORRRRRO,ORRRRRR,22.16413392,20.74050628,series_0
,,,,,,,,5bc623acd2bea100010c808e,Kobieta,28,2021-07-13_21h58.32.325,rantool2,2021.1.4,Win32,59.96641881,5bc623acd2bea100010c808e,60d9d14f4a8a35a482e0d9bf,60edefdd46ddd9a8f4e7a716,j,0.30058,0,26,26,20,1,OROROOO,OROROOR,21.31236711,21.90565814,series_1
,,,,,,,,5bc623acd2bea100010c808e,Kobieta,28,2021-07-13_21h58.32.325,rantool2,2021.1.4,Win32,59.96641881,5bc623acd2bea100010c808e,60d9d14f4a8a35a482e0d9bf,60edefdd46ddd9a8f4e7a716,f,0.250615,0,27,27,34,1,ROOOROO,ROOOROR,21.03750787,21.24781509,series_1
,,,,,,,,5bc623acd2bea100010c808e,Kobieta,28,2021-07-13_21h58.32.325,rantool2,2021.1.4,Win32,59.96641881,5bc623acd2bea100010c808e,60d9d14f4a8a35a482e0d9bf,60edefdd46ddd9a8f4e7a716,f,0.38412,0,28,28,24,1,ORROOOO,ORROOOR,21.12383932,22.07102821,series_1
,,,,,,,,5bc623acd2bea100010c808e,Kobieta,28,2021-07-13_21h58.32.325,rantool2,2021.1.4,Win32,59.96641881,5bc623acd2bea100010c808e,60d9d14f4a8a35a482e0d9bf,60edefdd46ddd9a8f4e7a716,f,0.28417,0,29,29,49,1,RROOORO,RROOORR,21.76276513,22.53364006,series_1
,,,,,,,,5bc623acd2bea100010c808e,Kobieta,28,2021-07-13_21h58.32.325,rantool2,2021.1.4,Win32,59.96641881,5bc623acd2bea100010c808e,60d9d14f4a8a35a482e0d9bf,60edefdd46ddd9a8f4e7a716,j,0.16315,0,30,30,42,1,ROROROO,ROROROR,20.39515459,19.8361834,series_0
,,,,,,,,5bc623acd2bea100010c808e,Kobieta,28,2021-07-13_21h58.32.325,rantool2,2021.1.4,Win32,59.96641881,5bc623acd2bea100010c808e,60d9d14f4a8a35a482e0d9bf,60edefdd46ddd9a8f4e7a716,f,0.300485,0,31,31,43,1,RORORRO,RORORRR,20.71309134,21.07490964,series_1
,,,,,,,,5bc623acd2bea100010c808e,Kobieta,28,2021-07-13_21h58.32.325,rantool2,2021.1.4,Win32,59.96641881,5bc623acd2bea100010c808e,60d9d14f4a8a35a482e0d9bf,60edefdd46ddd9a8f4e7a716,j,0.295195,0,32,32,52,1,RROROOO,RROROOR,22.18365867,22.11097995,series_0
,,,,,,,,5bc623acd2bea100010c808e,Kobieta,28,2021-07-13_21h58.32.325,rantool2,2021.1.4,Win32,59.96641881,5bc623acd2bea100010c808e,60d9d14f4a8a35a482e0d9bf,60edefdd46ddd9a8f4e7a716,j,0.17037,0,33,33,21,1,ORORORO,ORORORR,20.39515459,22.06781359,series_1
,,,,,,,,5bc623acd2bea100010c808e,Kobieta,28,2021-07-13_21h58.32.325,rantool2,2021.1.4,Win32,59.96641881,5bc623acd2bea100010c808e,60d9d14f4a8a35a482e0d9bf,60edefdd46ddd9a8f4e7a716,f,0.154435,0,34,34,23,1,ORORRRO,ORORRRR,22.1285618,21.9921709,series_0
,,,,,,,,5bc623acd2bea100010c808e,Kobieta,28,2021-07-13_21h58.32.325,rantool2,2021.1.4,Win32,59.96641881,5bc623acd2bea100010c808e,60d9d14f4a8a35a482e0d9bf,60edefdd46ddd9a8f4e7a716,f,0.307025,0,35,35,59,1,RRRORRO,RRRORRR,21.56657303,20.89823192,series_0
,,,,,,,,5bc623acd2bea100010c808e,Kobieta,28,2021-07-13_21h58.32.325,rantool2,2021.1.4,Win32,59.96641881,5bc623acd2bea100010c808e,60d9d14f4a8a35a482e0d9bf,60edefdd46ddd9a8f4e7a716,j,0.18198,0,36,36,39,1,ROORRRO,ROORRRR,21.82425538,21.38562617,series_0
,,,,,,,,5bc623acd2bea100010c808e,Kobieta,28,2021-07-13_21h58.32.325,rantool2,2021.1.4,Win32,59.96641881,5bc623acd2bea100010c808e,60d9d14f4a8a35a482e0d9bf,60edefdd46ddd9a8f4e7a716,j,0.16725,0,37,37,7,1,OOORRRO,OOORRRR,21.6194508,21.899017,series_1
,,,,,,,,5bc623acd2bea100010c808e,Kobieta,28,2021-07-13_21h58.32.325,rantool2,2021.1.4,Win32,59.96641881,5bc623acd2bea100010c808e,60d9d14f4a8a35a482e0d9bf,60edefdd46ddd9a8f4e7a716,f,0.16753,0,38,38,47,1,RORRRRO,RORRRRR,21.81333602,21.02936224,series_0
,,,,,,,,5bc623acd2bea100010c808e,Kobieta,28,2021-07-13_21h58.32.325,rantool2,2021.1.4,Win32,59.96641881,5bc623acd2bea100010c808e,60d9d14f4a8a35a482e0d9bf,60edefdd46ddd9a8f4e7a716,f,0.184095,0,39,39,54,1,RRORROO,RRORROR,21.55250791,20.9984461,series_0
,,,,,,,,5bc623acd2bea100010c808e,Kobieta,28,2021-07-13_21h58.32.325,rantool2,2021.1.4,Win32,59.96641881,5bc623acd2bea100010c808e,60d9d14f4a8a35a482e0d9bf,60edefdd46ddd9a8f4e7a716,f,0.183955,0,40,40,45,1,RORRORO,RORRORR,20.78182524,21.22513037,series_1
,,,,,,,,5bc623acd2bea100010c808e,Kobieta,28,2021-07-13_21h58.32.325,rantool2,2021.1.4,Win32,59.96641881,5bc623acd2bea100010c808e,60d9d14f4a8a35a482e0d9bf,60edefdd46ddd9a8f4e7a716,j,0.184145,0,41,41,33,1,ROOOORO,ROOOORR,20.83779602,22.03072203,series_1
,,,,,,,,5bc623acd2bea100010c808e,Kobieta,28,2021-07-13_21h58.32.325,rantool2,2021.1.4,Win32,59.96641881,5bc623acd2bea100010c808e,60d9d14f4a8a35a482e0d9bf,60edefdd46ddd9a8f4e7a716,f,0.319155,0,42,42,53,1,RRORORO,RRORORR,20.71309134,21.90565814,series_1
,,,,,,,,5bc623acd2bea100010c808e,Kobieta,28,2021-07-13_21h58.32.325,rantool2,2021.1.4,Win32,59.96641881,5bc623acd2bea100010c808e,60d9d14f4a8a35a482e0d9bf,60edefdd46ddd9a8f4e7a716,j,0.352935,0,43,43,29,1,ORRRORO,ORRRORR,22.00300695,22.12173012,series_1
,,,,,,,,5bc623acd2bea100010c808e,Kobieta,28,2021-07-13_21h58.32.325,rantool2,2021.1.4,Win32,59.96641881,5bc623acd2bea100010c808e,60d9d14f4a8a35a482e0d9bf,60edefdd46ddd9a8f4e7a716,j,0.14575,0,44,44,18,1,OROOROO,OROOROR,20.84860893,21.22513037,series_1
,,,,,,,,5bc623acd2bea100010c808e,Kobieta,28,2021-07-13_21h58.32.325,rantool2,2021.1.4,Win32,59.96641881,5bc623acd2bea100010c808e,60d9d14f4a8a35a482e0d9bf,60edefdd46ddd9a8f4e7a716,f,0.267425,0,45,45,2,1,OOOOROO,OOOOROR,20.43051175,21.02936224,series_1
,,,,,,,,5bc623acd2bea100010c808e,Kobieta,28,2021-07-13_21h58.32.325,rantool2,2021.1.4,Win32,59.96641881,5bc623acd2bea100010c808e,60d9d14f4a8a35a482e0d9bf,60edefdd46ddd9a8f4e7a716,f,0.487555,0,46,46,35,1,ROOORRO,ROOORRR,21.76276513,22.16977179,series_1
,,,,,,,,5bc623acd2bea100010c808e,Kobieta,28,2021-07-13_21h58.32.325,rantool2,2021.1.4,Win32,59.96641881,5bc623acd2bea100010c808e,60d9d14f4a8a35a482e0d9bf,60edefdd46ddd9a8f4e7a716,j,0.747065,0,47,47,51,1,RROORRO,RROORRR,21.89852628,22.02786418,series_1
,,,,,,,,5bc623acd2bea100010c808e,Kobieta,28,2021-07-13_21h58.32.325,rantool2,2021.1.4,Win32,59.96641881,5bc623acd2bea100010c808e,60d9d14f4a8a35a482e0d9bf,60edefdd46ddd9a8f4e7a716,j,0.60437,0,48,48,8,1,OOROOOO,OOROOOR,19.91402015,20.89823192,series_1
,,,,,,,,5bc623acd2bea100010c808e,Kobieta,28,2021-07-13_21h58.32.325,rantool2,2021.1.4,Win32,59.96641881,5bc623acd2bea100010c808e,60d9d14f4a8a35a482e0d9bf,60edefdd46ddd9a8f4e7a716,f,0.483915,0,49,49,6,1,OOORROO,OOORROR,21.12383932,21.38562617,series_1
,,,,,,,,5bc623acd2bea100010c808e,Kobieta,28,2021-07-13_21h58.32.325,rantool2,2021.1.4,Win32,59.96641881,5bc623acd2bea100010c808e,60d9d14f4a8a35a482e0d9bf,60edefdd46ddd9a8f4e7a716,f,0.471115,0,50,50,48,1,RROOOOO,RROOOOR,20.90986523,22.15934078,series_1
,,,,,,,,5bc623acd2bea100010c808e,Kobieta,28,2021-07-13_21h58.32.325,rantool2,2021.1.4,Win32,59.96641881,5bc623acd2bea100010c808e,60d9d14f4a8a35a482e0d9bf,60edefdd46ddd9a8f4e7a716,j,0.219185,0,51,51,37,1,ROORORO,ROORORR,20.42602454,21.57657071,series_1
,,,,,,,,5bc623acd2bea100010c808e,Kobieta,28,2021-07-13_21h58.32.325,rantool2,2021.1.4,Win32,59.96641881,5bc623acd2bea100010c808e,60d9d14f4a8a35a482e0d9bf,60edefdd46ddd9a8f4e7a716,j,0.46509,0,52,52,17,1,OROOORO,OROOORR,21.03750787,22.12173012,series_1
,,,,,,,,5bc623acd2bea100010c808e,Kobieta,28,2021-07-13_21h58.32.325,rantool2,2021.1.4,Win32,59.96641881,5bc623acd2bea100010c808e,60d9d14f4a8a35a482e0d9bf,60edefdd46ddd9a8f4e7a716,f,0.16719,0,53,53,12,1,OORROOO,OORROOR,21.30250474,22.02786418,series_1
,,,,,,,,5bc623acd2bea100010c808e,Kobieta,28,2021-07-13_21h58.32.325,rantool2,2021.1.4,Win32,59.96641881,5bc623acd2bea100010c808e,60d9d14f4a8a35a482e0d9bf,60edefdd46ddd9a8f4e7a716,f,0.384155,0,54,54,38,1,ROORROO,ROORROR,21.79500819,21.36812781,series_0
,,,,,,,,5bc623acd2bea100010c808e,Kobieta,28,2021-07-13_21h58.32.325,rantool2,2021.1.4,Win32,59.96641881,5bc623acd2bea100010c808e,60d9d14f4a8a35a482e0d9bf,60edefdd46ddd9a8f4e7a716,j,0.46973,0,55,55,15,1,OORRRRO,OORRRRR,22.10108823,21.74922619,series_0
,,,,,,,,5bc623acd2bea100010c808e,Kobieta,28,2021-07-13_21h58.32.325,rantool2,2021.1.4,Win32,59.96641881,5bc623acd2bea100010c808e,60d9d14f4a8a35a482e0d9bf,60edefdd46ddd9a8f4e7a716,f,0.329625,0,56,56,28,1,ORRROOO,ORRROOR,22.24142883,22.53364006,series_1
,,,,,,,,5bc623acd2bea100010c808e,Kobieta,28,2021-07-13_21h58.32.325,rantool2,2021.1.4,Win32,59.96641881,5bc623acd2bea100010c808e,60d9d14f4a8a35a482e0d9bf,60edefdd46ddd9a8f4e7a716,f,0.171525,0,57,57,9,1,OOROORO,OOROORR,21.07991943,22.2428857,series_1
,,,,,,,,5bc623acd2bea100010c808e,Kobieta,28,2021-07-13_21h58.32.325,rantool2,2021.1.4,Win32,59.96641881,5bc623acd2bea100010c808e,60d9d14f4a8a35a482e0d9bf,60edefdd46ddd9a8f4e7a716,j,0.339555,0,58,58,13,1,OORRORO,OORRORR,21.66733484,22.11181017,series_1
,,,,,,,,5bc623acd2bea100010c808e,Kobieta,28,2021-07-13_21h58.32.325,rantool2,2021.1.4,Win32,59.96641881,5bc623acd2bea100010c808e,60d9d14f4a8a35a482e0d9bf,60edefdd46ddd9a8f4e7a716,j,0.396945,0,59,59,1,1,OOOOORO,OOOOORR,19.92253567,20.74050628,series_1
,,,,,,,,5bc623acd2bea100010c808e,Kobieta,28,2021-07-13_21h58.32.325,rantool2,2021.1.4,Win32,59.96641881,5bc623acd2bea100010c808e,60d9d14f4a8a35a482e0d9bf,60edefdd46ddd9a8f4e7a716,j,0.134265,0,60,60,40,1,ROROOOO,ROROOOR,20.87963819,21.37121559,series_1
,,,,,,,,5bc623acd2bea100010c808e,Kobieta,28,2021-07-13_21h58.32.325,rantool2,2021.1.4,Win32,59.96641881,5bc623acd2bea100010c808e,60d9d14f4a8a35a482e0d9bf,60edefdd46ddd9a8f4e7a716,f,0.317595,0,61,61,60,1,RRRROOO,RRRROOR,22.10108823,22.15934078,series_1
,,,,,,,,5bc623acd2bea100010c808e,Kobieta,28,2021-07-13_21h58.32.325,rantool2,2021.1.4,Win32,59.96641881,5bc623acd2bea100010c808e,60d9d14f4a8a35a482e0d9bf,60edefdd46ddd9a8f4e7a716,j,0.703635,0,62,62,27,1,ORRORRO,ORRORRR,21.55250791,22.2428857,series_1
,,,,,,,,5bc623acd2bea100010c808e,Kobieta,28,2021-07-13_21h58.32.325,rantool2,2021.1.4,Win32,59.96641881,5bc623acd2bea100010c808e,60d9d14f4a8a35a482e0d9bf,60edefdd46ddd9a8f4e7a716,j,0.41818,0,63,63,58,1,RRROROO,RRROROR,22.1285618,21.37121559,series_0
