key_resp_5.keys,key_resp_5.corr,key_resp_5.rt,trials.thisRepN,trials.thisTrialN,trials.thisN,trials.thisIndex,trials.ran,id*,Płeć*,Wiek*,date,expName,psychopyVersion,OS,frameRate,id,STUDY_ID,SESSION_ID,key_resp_7.keys,key_resp_7.rt,trials_2.thisRepN,trials_2.thisTrialN,trials_2.thisN,trials_2.thisIndex,trials_2.ran,series_0,series_1,acss_0,acss_1,comparison
"[""comma""]",0,[1.3091000000238466],0,0,0,0,1,5ff7387e16269f382942e0be,Kobieta,22,2021-07-13_21h40.08.813,rantool2,2021.1.4,Win32,60.11783095,5ff7387e16269f382942e0be,60d9d14f4a8a35a482e0d9bf,60edebe5a7394740181f75fb,,,,,,,,,,,,
"[""period""]",0,[1.117600000023856],1,0,1,0,1,5ff7387e16269f382942e0be,Kobieta,22,2021-07-13_21h40.08.813,rantool2,2021.1.4,Win32,60.11783095,5ff7387e16269f382942e0be,60d9d14f4a8a35a482e0d9bf,60edebe5a7394740181f75fb,,,,,,,,,,,,
"[""comma""]",0,[1.0340999999642406],2,0,2,0,1,5ff7387e16269f382942e0be,Kobieta,22,2021-07-13_21h40.08.813,rantool2,2021.1.4,Win32,60.11783095,5ff7387e16269f382942e0be,60d9d14f4a8a35a482e0d9bf,60edebe5a7394740181f75fb,,,,,,,,,,,,
"[""comma""]",0,[1.0841000000238523],3,0,3,0,1,5ff7387e16269f382942e0be,Kobieta,22,2021-07-13_21h40.08.813,rantool2,2021.1.4,Win32,60.11783095,5ff7387e16269f382942e0be,60d9d14f4a8a35a482e0d9bf,60edebe5a7394740181f75fb,,,,,,,,,,,,
"[""period""]",0,[0.7506999999880861],4,0,4,0,1,5ff7387e16269f382942e0be,Kobieta,22,2021-07-13_21h40.08.813,rantool2,2021.1.4,Win32,60.11783095,5ff7387e16269f382942e0be,60d9d14f4a8a35a482e0d9bf,60edebe5a7394740181f75fb,,,,,,,,,,,,
"[""comma""]",0,[0.467399999976152],5,0,5,0,1,5ff7387e16269f382942e0be,Kobieta,22,2021-07-13_21h40.08.813,rantool2,2021.1.4,Win32,60.11783095,5ff7387e16269f382942e0be,60d9d14f4a8a35a482e0d9bf,60edebe5a7394740181f75fb,,,,,,,,,,,,
"[""period""]",0,[0.38399999999998613],6,0,6,0,1,5ff7387e16269f382942e0be,Kobieta,22,2021-07-13_21h40.08.813,rantool2,2021.1.4,Win32,60.11783095,5ff7387e16269f382942e0be,60d9d14f4a8a35a482e0d9bf,60edebe5a7394740181f75fb,,,,,,,,,,,,
"[""comma""]",0,[0.36810000002384413],7,0,7,0,1,5ff7387e16269f382942e0be,Kobieta,22,2021-07-13_21h40.08.813,rantool2,2021.1.4,Win32,60.11783095,5ff7387e16269f382942e0be,60d9d14f4a8a35a482e0d9bf,60edebe5a7394740181f75fb,,,,,,,,,,,,
"[""comma""]",0,[0.9174999999999898],8,0,8,0,1,5ff7387e16269f382942e0be,Kobieta,22,2021-07-13_21h40.08.813,rantool2,2021.1.4,Win32,60.11783095,5ff7387e16269f382942e0be,60d9d14f4a8a35a482e0d9bf,60edebe5a7394740181f75fb,,,,,,,,,,,,
"[""comma""]",0,[1.1508000000119125],9,0,9,0,1,5ff7387e16269f382942e0be,Kobieta,22,2021-07-13_21h40.08.813,rantool2,2021.1.4,Win32,60.11783095,5ff7387e16269f382942e0be,60d9d14f4a8a35a482e0d9bf,60edebe5a7394740181f75fb,,,,,,,,,,,,
"[""comma""]",0,[0.5200000000000102],10,0,10,0,1,5ff7387e16269f382942e0be,Kobieta,22,2021-07-13_21h40.08.813,rantool2,2021.1.4,Win32,60.11783095,5ff7387e16269f382942e0be,60d9d14f4a8a35a482e0d9bf,60edebe5a7394740181f75fb,,,,,,,,,,,,
"[""period""]",0,[0.28750000000002274],11,0,11,0,1,5ff7387e16269f382942e0be,Kobieta,22,2021-07-13_21h40.08.813,rantool2,2021.1.4,Win32,60.11783095,5ff7387e16269f382942e0be,60d9d14f4a8a35a482e0d9bf,60edebe5a7394740181f75fb,,,,,,,,,,,,
"[""period""]",0,[0.26780000001193116],12,0,12,0,1,5ff7387e16269f382942e0be,Kobieta,22,2021-07-13_21h40.08.813,rantool2,2021.1.4,Win32,60.11783095,5ff7387e16269f382942e0be,60d9d14f4a8a35a482e0d9bf,60edebe5a7394740181f75fb,,,,,,,,,,,,
"[""comma""]",0,[0.6616999999880875],13,0,13,0,1,5ff7387e16269f382942e0be,Kobieta,22,2021-07-13_21h40.08.813,rantool2,2021.1.4,Win32,60.11783095,5ff7387e16269f382942e0be,60d9d14f4a8a35a482e0d9bf,60edebe5a7394740181f75fb,,,,,,,,,,,,
"[""comma""]",0,[0.9685000000000059],14,0,14,0,1,5ff7387e16269f382942e0be,Kobieta,22,2021-07-13_21h40.08.813,rantool2,2021.1.4,Win32,60.11783095,5ff7387e16269f382942e0be,60d9d14f4a8a35a482e0d9bf,60edebe5a7394740181f75fb,,,,,,,,,,,,
"[""comma""]",0,[0.4339000000357487],15,0,15,0,1,5ff7387e16269f382942e0be,Kobieta,22,2021-07-13_21h40.08.813,rantool2,2021.1.4,Win32,60.11783095,5ff7387e16269f382942e0be,60d9d14f4a8a35a482e0d9bf,60edebe5a7394740181f75fb,,,,,,,,,,,,
"[""period""]",0,[0.5269999999999868],16,0,16,0,1,5ff7387e16269f382942e0be,Kobieta,22,2021-07-13_21h40.08.813,rantool2,2021.1.4,Win32,60.11783095,5ff7387e16269f382942e0be,60d9d14f4a8a35a482e0d9bf,60edebe5a7394740181f75fb,,,,,,,,,,,,
"[""period""]",0,[0.3511000000238482],17,0,17,0,1,5ff7387e16269f382942e0be,Kobieta,22,2021-07-13_21h40.08.813,rantool2,2021.1.4,Win32,60.11783095,5ff7387e16269f382942e0be,60d9d14f4a8a35a482e0d9bf,60edebe5a7394740181f75fb,,,,,,,,,,,,
"[""period""]",0,[1.0025999999642465],18,0,18,0,1,5ff7387e16269f382942e0be,Kobieta,22,2021-07-13_21h40.08.813,rantool2,2021.1.4,Win32,60.11783095,5ff7387e16269f382942e0be,60d9d14f4a8a35a482e0d9bf,60edebe5a7394740181f75fb,,,,,,,,,,,,
"[""comma""]",0,[0.3439999999999941],19,0,19,0,1,5ff7387e16269f382942e0be,Kobieta,22,2021-07-13_21h40.08.813,rantool2,2021.1.4,Win32,60.11783095,5ff7387e16269f382942e0be,60d9d14f4a8a35a482e0d9bf,60edebe5a7394740181f75fb,,,,,,,,,,,,
"[""comma""]",0,[0.680499999999995],20,0,20,0,1,5ff7387e16269f382942e0be,Kobieta,22,2021-07-13_21h40.08.813,rantool2,2021.1.4,Win32,60.11783095,5ff7387e16269f382942e0be,60d9d14f4a8a35a482e0d9bf,60edebe5a7394740181f75fb,,,,,,,,,,,,
"[""period""]",0,[1.1673000000119202],21,0,21,0,1,5ff7387e16269f382942e0be,Kobieta,22,2021-07-13_21h40.08.813,rantool2,2021.1.4,Win32,60.11783095,5ff7387e16269f382942e0be,60d9d14f4a8a35a482e0d9bf,60edebe5a7394740181f75fb,,,,,,,,,,,,
"[""comma""]",0,[0.7016000000238591],22,0,22,0,1,5ff7387e16269f382942e0be,Kobieta,22,2021-07-13_21h40.08.813,rantool2,2021.1.4,Win32,60.11783095,5ff7387e16269f382942e0be,60d9d14f4a8a35a482e0d9bf,60edebe5a7394740181f75fb,,,,,,,,,,,,
"[""comma""]",0,[0.5844999999999914],23,0,23,0,1,5ff7387e16269f382942e0be,Kobieta,22,2021-07-13_21h40.08.813,rantool2,2021.1.4,Win32,60.11783095,5ff7387e16269f382942e0be,60d9d14f4a8a35a482e0d9bf,60edebe5a7394740181f75fb,,,,,,,,,,,,
"[""comma""]",0,[0.9186999999880925],24,0,24,0,1,5ff7387e16269f382942e0be,Kobieta,22,2021-07-13_21h40.08.813,rantool2,2021.1.4,Win32,60.11783095,5ff7387e16269f382942e0be,60d9d14f4a8a35a482e0d9bf,60edebe5a7394740181f75fb,,,,,,,,,,,,
"[""period""]",0,[0.41789999997615723],25,0,25,0,1,5ff7387e16269f382942e0be,Kobieta,22,2021-07-13_21h40.08.813,rantool2,2021.1.4,Win32,60.11783095,5ff7387e16269f382942e0be,60d9d14f4a8a35a482e0d9bf,60edebe5a7394740181f75fb,,,,,,,,,,,,
"[""period""]",0,[0.317100000023828],26,0,26,0,1,5ff7387e16269f382942e0be,Kobieta,22,2021-07-13_21h40.08.813,rantool2,2021.1.4,Win32,60.11783095,5ff7387e16269f382942e0be,60d9d14f4a8a35a482e0d9bf,60edebe5a7394740181f75fb,,,,,,,,,,,,
"[""comma""]",0,[0.2513999999761438],27,0,27,0,1,5ff7387e16269f382942e0be,Kobieta,22,2021-07-13_21h40.08.813,rantool2,2021.1.4,Win32,60.11783095,5ff7387e16269f382942e0be,60d9d14f4a8a35a482e0d9bf,60edebe5a7394740181f75fb,,,,,,,,,,,,
"[""comma""]",0,[0.3334999999999866],28,0,28,0,1,5ff7387e16269f382942e0be,Kobieta,22,2021-07-13_21h40.08.813,rantool2,2021.1.4,Win32,60.11783095,5ff7387e16269f382942e0be,60d9d14f4a8a35a482e0d9bf,60edebe5a7394740181f75fb,,,,,,,,,,,,
"[""comma""]",0,[0.35149999999998727],29,0,29,0,1,5ff7387e16269f382942e0be,Kobieta,22,2021-07-13_21h40.08.813,rantool2,2021.1.4,Win32,60.11783095,5ff7387e16269f382942e0be,60d9d14f4a8a35a482e0d9bf,60edebe5a7394740181f75fb,,,,,,,,,,,,
"[""period""]",0,[0.567100000023828],30,0,30,0,1,5ff7387e16269f382942e0be,Kobieta,22,2021-07-13_21h40.08.813,rantool2,2021.1.4,Win32,60.11783095,5ff7387e16269f382942e0be,60d9d14f4a8a35a482e0d9bf,60edebe5a7394740181f75fb,,,,,,,,,,,,
"[""period""]",0,[0.4603999999761754],31,0,31,0,1,5ff7387e16269f382942e0be,Kobieta,22,2021-07-13_21h40.08.813,rantool2,2021.1.4,Win32,60.11783095,5ff7387e16269f382942e0be,60d9d14f4a8a35a482e0d9bf,60edebe5a7394740181f75fb,,,,,,,,,,,,
"[""period""]",0,[0.5341999999880613],32,0,32,0,1,5ff7387e16269f382942e0be,Kobieta,22,2021-07-13_21h40.08.813,rantool2,2021.1.4,Win32,60.11783095,5ff7387e16269f382942e0be,60d9d14f4a8a35a482e0d9bf,60edebe5a7394740181f75fb,,,,,,,,,,,,
"[""comma""]",0,[0.31910000002383754],33,0,33,0,1,5ff7387e16269f382942e0be,Kobieta,22,2021-07-13_21h40.08.813,rantool2,2021.1.4,Win32,60.11783095,5ff7387e16269f382942e0be,60d9d14f4a8a35a482e0d9bf,60edebe5a7394740181f75fb,,,,,,,,,,,,
"[""period""]",0,[0.3931999999880986],34,0,34,0,1,5ff7387e16269f382942e0be,Kobieta,22,2021-07-13_21h40.08.813,rantool2,2021.1.4,Win32,60.11783095,5ff7387e16269f382942e0be,60d9d14f4a8a35a482e0d9bf,60edebe5a7394740181f75fb,,,,,,,,,,,,
"[""comma""]",0,[0.818599999964249],35,0,35,0,1,5ff7387e16269f382942e0be,Kobieta,22,2021-07-13_21h40.08.813,rantool2,2021.1.4,Win32,60.11783095,5ff7387e16269f382942e0be,60d9d14f4a8a35a482e0d9bf,60edebe5a7394740181f75fb,,,,,,,,,,,,
"[""period""]",0,[0.40119999998808],36,0,36,0,1,5ff7387e16269f382942e0be,Kobieta,22,2021-07-13_21h40.08.813,rantool2,2021.1.4,Win32,60.11783095,5ff7387e16269f382942e0be,60d9d14f4a8a35a482e0d9bf,60edebe5a7394740181f75fb,,,,,,,,,,,,
"[""comma""]",0,[0.7963999999761597],37,0,37,0,1,5ff7387e16269f382942e0be,Kobieta,22,2021-07-13_21h40.08.813,rantool2,2021.1.4,Win32,60.11783095,5ff7387e16269f382942e0be,60d9d14f4a8a35a482e0d9bf,60edebe5a7394740181f75fb,,,,,,,,,,,,
"[""comma""]",0,[0.583899999976154],38,0,38,0,1,5ff7387e16269f382942e0be,Kobieta,22,2021-07-13_21h40.08.813,rantool2,2021.1.4,Win32,60.11783095,5ff7387e16269f382942e0be,60d9d14f4a8a35a482e0d9bf,60edebe5a7394740181f75fb,,,,,,,,,,,,
"[""period""]",0,[0.4876999999880809],39,0,39,0,1,5ff7387e16269f382942e0be,Kobieta,22,2021-07-13_21h40.08.813,rantool2,2021.1.4,Win32,60.11783095,5ff7387e16269f382942e0be,60d9d14f4a8a35a482e0d9bf,60edebe5a7394740181f75fb,,,,,,,,,,,,
"[""period""]",0,[0.6346000000238234],40,0,40,0,1,5ff7387e16269f382942e0be,Kobieta,22,2021-07-13_21h40.08.813,rantool2,2021.1.4,Win32,60.11783095,5ff7387e16269f382942e0be,60d9d14f4a8a35a482e0d9bf,60edebe5a7394740181f75fb,,,,,,,,,,,,
"[""comma""]",0,[0.4688999999761734],41,0,41,0,1,5ff7387e16269f382942e0be,Kobieta,22,2021-07-13_21h40.08.813,rantool2,2021.1.4,Win32,60.11783095,5ff7387e16269f382942e0be,60d9d14f4a8a35a482e0d9bf,60edebe5a7394740181f75fb,,,,,,,,,,,,
"[""period""]",0,[0.33380000001190524],42,0,42,0,1,5ff7387e16269f382942e0be,Kobieta,22,2021-07-13_21h40.08.813,rantool2,2021.1.4,Win32,60.11783095,5ff7387e16269f382942e0be,60d9d14f4a8a35a482e0d9bf,60edebe5a7394740181f75fb,,,,,,,,,,,,
"[""period""]",0,[0.39219999998806543],43,0,43,0,1,5ff7387e16269f382942e0be,Kobieta,22,2021-07-13_21h40.08.813,rantool2,2021.1.4,Win32,60.11783095,5ff7387e16269f382942e0be,60d9d14f4a8a35a482e0d9bf,60edebe5a7394740181f75fb,,,,,,,,,,,,
"[""comma""]",0,[0.3463000000119223],44,0,44,0,1,5ff7387e16269f382942e0be,Kobieta,22,2021-07-13_21h40.08.813,rantool2,2021.1.4,Win32,60.11783095,5ff7387e16269f382942e0be,60d9d14f4a8a35a482e0d9bf,60edebe5a7394740181f75fb,,,,,,,,,,,,
"[""comma""]",0,[0.9553000000119312],45,0,45,0,1,5ff7387e16269f382942e0be,Kobieta,22,2021-07-13_21h40.08.813,rantool2,2021.1.4,Win32,60.11783095,5ff7387e16269f382942e0be,60d9d14f4a8a35a482e0d9bf,60edebe5a7394740181f75fb,,,,,,,,,,,,
"[""period""]",0,[0.2599999999999909],46,0,46,0,1,5ff7387e16269f382942e0be,Kobieta,22,2021-07-13_21h40.08.813,rantool2,2021.1.4,Win32,60.11783095,5ff7387e16269f382942e0be,60d9d14f4a8a35a482e0d9bf,60edebe5a7394740181f75fb,,,,,,,,,,,,
"[""period""]",0,[0.3502000000476926],47,0,47,0,1,5ff7387e16269f382942e0be,Kobieta,22,2021-07-13_21h40.08.813,rantool2,2021.1.4,Win32,60.11783095,5ff7387e16269f382942e0be,60d9d14f4a8a35a482e0d9bf,60edebe5a7394740181f75fb,,,,,,,,,,,,
"[""period""]",0,[-0.01580000001192161],48,0,48,0,1,5ff7387e16269f382942e0be,Kobieta,22,2021-07-13_21h40.08.813,rantool2,2021.1.4,Win32,60.11783095,5ff7387e16269f382942e0be,60d9d14f4a8a35a482e0d9bf,60edebe5a7394740181f75fb,,,,,,,,,,,,
"[""comma""]",0,[0.1396000000238189],49,0,49,0,1,5ff7387e16269f382942e0be,Kobieta,22,2021-07-13_21h40.08.813,rantool2,2021.1.4,Win32,60.11783095,5ff7387e16269f382942e0be,60d9d14f4a8a35a482e0d9bf,60edebe5a7394740181f75fb,,,,,,,,,,,,
"[""comma""]",0,[0.10990000003576483],50,0,50,0,1,5ff7387e16269f382942e0be,Kobieta,22,2021-07-13_21h40.08.813,rantool2,2021.1.4,Win32,60.11783095,5ff7387e16269f382942e0be,60d9d14f4a8a35a482e0d9bf,60edebe5a7394740181f75fb,,,,,,,,,,,,
"[""comma""]",0,[0.37479999995233015],51,0,51,0,1,5ff7387e16269f382942e0be,Kobieta,22,2021-07-13_21h40.08.813,rantool2,2021.1.4,Win32,60.11783095,5ff7387e16269f382942e0be,60d9d14f4a8a35a482e0d9bf,60edebe5a7394740181f75fb,,,,,,,,,,,,
"[""period""]",0,[0.10050000000001091],52,0,52,0,1,5ff7387e16269f382942e0be,Kobieta,22,2021-07-13_21h40.08.813,rantool2,2021.1.4,Win32,60.11783095,5ff7387e16269f382942e0be,60d9d14f4a8a35a482e0d9bf,60edebe5a7394740181f75fb,,,,,,,,,,,,
"[""period""]",0,[0.5006000000238373],53,0,53,0,1,5ff7387e16269f382942e0be,Kobieta,22,2021-07-13_21h40.08.813,rantool2,2021.1.4,Win32,60.11783095,5ff7387e16269f382942e0be,60d9d14f4a8a35a482e0d9bf,60edebe5a7394740181f75fb,,,,,,,,,,,,
"[""period""]",0,[0.3352999999523263],54,0,54,0,1,5ff7387e16269f382942e0be,Kobieta,22,2021-07-13_21h40.08.813,rantool2,2021.1.4,Win32,60.11783095,5ff7387e16269f382942e0be,60d9d14f4a8a35a482e0d9bf,60edebe5a7394740181f75fb,,,,,,,,,,,,
"[""comma""]",0,[0.5026999999880957],55,0,55,0,1,5ff7387e16269f382942e0be,Kobieta,22,2021-07-13_21h40.08.813,rantool2,2021.1.4,Win32,60.11783095,5ff7387e16269f382942e0be,60d9d14f4a8a35a482e0d9bf,60edebe5a7394740181f75fb,,,,,,,,,,,,
"[""comma""]",0,[0.5515999999642247],56,0,56,0,1,5ff7387e16269f382942e0be,Kobieta,22,2021-07-13_21h40.08.813,rantool2,2021.1.4,Win32,60.11783095,5ff7387e16269f382942e0be,60d9d14f4a8a35a482e0d9bf,60edebe5a7394740181f75fb,,,,,,,,,,,,
"[""comma""]",0,[0.6803000000119255],57,0,57,0,1,5ff7387e16269f382942e0be,Kobieta,22,2021-07-13_21h40.08.813,rantool2,2021.1.4,Win32,60.11783095,5ff7387e16269f382942e0be,60d9d14f4a8a35a482e0d9bf,60edebe5a7394740181f75fb,,,,,,,,,,,,
"[""period""]",0,[1.0911999999880777],58,0,58,0,1,5ff7387e16269f382942e0be,Kobieta,22,2021-07-13_21h40.08.813,rantool2,2021.1.4,Win32,60.11783095,5ff7387e16269f382942e0be,60d9d14f4a8a35a482e0d9bf,60edebe5a7394740181f75fb,,,,,,,,,,,,
"[""comma""]",0,[0.27489999997615655],59,0,59,0,1,5ff7387e16269f382942e0be,Kobieta,22,2021-07-13_21h40.08.813,rantool2,2021.1.4,Win32,60.11783095,5ff7387e16269f382942e0be,60d9d14f4a8a35a482e0d9bf,60edebe5a7394740181f75fb,,,,,,,,,,,,
"[""period""]",0,[0.26760000002386164],60,0,60,0,1,5ff7387e16269f382942e0be,Kobieta,22,2021-07-13_21h40.08.813,rantool2,2021.1.4,Win32,60.11783095,5ff7387e16269f382942e0be,60d9d14f4a8a35a482e0d9bf,60edebe5a7394740181f75fb,,,,,,,,,,,,
"[""comma""]",0,[0.8223000000119214],61,0,61,0,1,5ff7387e16269f382942e0be,Kobieta,22,2021-07-13_21h40.08.813,rantool2,2021.1.4,Win32,60.11783095,5ff7387e16269f382942e0be,60d9d14f4a8a35a482e0d9bf,60edebe5a7394740181f75fb,,,,,,,,,,,,
"[""comma""]",0,[0.6899999999999977],62,0,62,0,1,5ff7387e16269f382942e0be,Kobieta,22,2021-07-13_21h40.08.813,rantool2,2021.1.4,Win32,60.11783095,5ff7387e16269f382942e0be,60d9d14f4a8a35a482e0d9bf,60edebe5a7394740181f75fb,,,,,,,,,,,,
"[""period""]",0,[0.8355000000000246],63,0,63,0,1,5ff7387e16269f382942e0be,Kobieta,22,2021-07-13_21h40.08.813,rantool2,2021.1.4,Win32,60.11783095,5ff7387e16269f382942e0be,60d9d14f4a8a35a482e0d9bf,60edebe5a7394740181f75fb,,,,,,,,,,,,
"[""period""]",0,[0.24260000002385596],64,0,64,0,1,5ff7387e16269f382942e0be,Kobieta,22,2021-07-13_21h40.08.813,rantool2,2021.1.4,Win32,60.11783095,5ff7387e16269f382942e0be,60d9d14f4a8a35a482e0d9bf,60edebe5a7394740181f75fb,,,,,,,,,,,,
"[""period""]",0,[0.3100000000000023],65,0,65,0,1,5ff7387e16269f382942e0be,Kobieta,22,2021-07-13_21h40.08.813,rantool2,2021.1.4,Win32,60.11783095,5ff7387e16269f382942e0be,60d9d14f4a8a35a482e0d9bf,60edebe5a7394740181f75fb,,,,,,,,,,,,
"[""comma""]",0,[0.31760000002378774],66,0,66,0,1,5ff7387e16269f382942e0be,Kobieta,22,2021-07-13_21h40.08.813,rantool2,2021.1.4,Win32,60.11783095,5ff7387e16269f382942e0be,60d9d14f4a8a35a482e0d9bf,60edebe5a7394740181f75fb,,,,,,,,,,,,
"[""period""]",0,[0.30649999999997135],67,0,67,0,1,5ff7387e16269f382942e0be,Kobieta,22,2021-07-13_21h40.08.813,rantool2,2021.1.4,Win32,60.11783095,5ff7387e16269f382942e0be,60d9d14f4a8a35a482e0d9bf,60edebe5a7394740181f75fb,,,,,,,,,,,,
"[""comma""]",0,[0.3511000000238482],68,0,68,0,1,5ff7387e16269f382942e0be,Kobieta,22,2021-07-13_21h40.08.813,rantool2,2021.1.4,Win32,60.11783095,5ff7387e16269f382942e0be,60d9d14f4a8a35a482e0d9bf,60edebe5a7394740181f75fb,,,,,,,,,,,,
"[""period""]",0,[0.4455000000000382],69,0,69,0,1,5ff7387e16269f382942e0be,Kobieta,22,2021-07-13_21h40.08.813,rantool2,2021.1.4,Win32,60.11783095,5ff7387e16269f382942e0be,60d9d14f4a8a35a482e0d9bf,60edebe5a7394740181f75fb,,,,,,,,,,,,
"[""period""]",0,[0.334400000035771],70,0,70,0,1,5ff7387e16269f382942e0be,Kobieta,22,2021-07-13_21h40.08.813,rantool2,2021.1.4,Win32,60.11783095,5ff7387e16269f382942e0be,60d9d14f4a8a35a482e0d9bf,60edebe5a7394740181f75fb,,,,,,,,,,,,
"[""period""]",0,[0.2846000000238291],71,0,71,0,1,5ff7387e16269f382942e0be,Kobieta,22,2021-07-13_21h40.08.813,rantool2,2021.1.4,Win32,60.11783095,5ff7387e16269f382942e0be,60d9d14f4a8a35a482e0d9bf,60edebe5a7394740181f75fb,,,,,,,,,,,,
"[""period""]",0,[0.17679999995232265],72,0,72,0,1,5ff7387e16269f382942e0be,Kobieta,22,2021-07-13_21h40.08.813,rantool2,2021.1.4,Win32,60.11783095,5ff7387e16269f382942e0be,60d9d14f4a8a35a482e0d9bf,60edebe5a7394740181f75fb,,,,,,,,,,,,
"[""period""]",0,[0.45119999998809135],73,0,73,0,1,5ff7387e16269f382942e0be,Kobieta,22,2021-07-13_21h40.08.813,rantool2,2021.1.4,Win32,60.11783095,5ff7387e16269f382942e0be,60d9d14f4a8a35a482e0d9bf,60edebe5a7394740181f75fb,,,,,,,,,,,,
"[""period""]",0,[0.48510000002380593],74,0,74,0,1,5ff7387e16269f382942e0be,Kobieta,22,2021-07-13_21h40.08.813,rantool2,2021.1.4,Win32,60.11783095,5ff7387e16269f382942e0be,60d9d14f4a8a35a482e0d9bf,60edebe5a7394740181f75fb,,,,,,,,,,,,
"[""comma""]",0,[0.5635000000000332],75,0,75,0,1,5ff7387e16269f382942e0be,Kobieta,22,2021-07-13_21h40.08.813,rantool2,2021.1.4,Win32,60.11783095,5ff7387e16269f382942e0be,60d9d14f4a8a35a482e0d9bf,60edebe5a7394740181f75fb,,,,,,,,,,,,
"[""comma""]",0,[0.4176000000238105],76,0,76,0,1,5ff7387e16269f382942e0be,Kobieta,22,2021-07-13_21h40.08.813,rantool2,2021.1.4,Win32,60.11783095,5ff7387e16269f382942e0be,60d9d14f4a8a35a482e0d9bf,60edebe5a7394740181f75fb,,,,,,,,,,,,
"[""comma""]",0,[0.2943000000119014],77,0,77,0,1,5ff7387e16269f382942e0be,Kobieta,22,2021-07-13_21h40.08.813,rantool2,2021.1.4,Win32,60.11783095,5ff7387e16269f382942e0be,60d9d14f4a8a35a482e0d9bf,60edebe5a7394740181f75fb,,,,,,,,,,,,
"[""comma"",""period""]",0,"[0.37590000003575597,0.40090000003573323]",78,0,78,0,1,5ff7387e16269f382942e0be,Kobieta,22,2021-07-13_21h40.08.813,rantool2,2021.1.4,Win32,60.11783095,5ff7387e16269f382942e0be,60d9d14f4a8a35a482e0d9bf,60edebe5a7394740181f75fb,,,,,,,,,,,,
"[""comma""]",0,[0.34330000001187955],79,0,79,0,1,5ff7387e16269f382942e0be,Kobieta,22,2021-07-13_21h40.08.813,rantool2,2021.1.4,Win32,60.11783095,5ff7387e16269f382942e0be,60d9d14f4a8a35a482e0d9bf,60edebe5a7394740181f75fb,,,,,,,,,,,,
"[""period""]",0,[0.32469999998807],80,0,80,0,1,5ff7387e16269f382942e0be,Kobieta,22,2021-07-13_21h40.08.813,rantool2,2021.1.4,Win32,60.11783095,5ff7387e16269f382942e0be,60d9d14f4a8a35a482e0d9bf,60edebe5a7394740181f75fb,,,,,,,,,,,,
"[""comma""]",0,[0.3580999999642813],81,0,81,0,1,5ff7387e16269f382942e0be,Kobieta,22,2021-07-13_21h40.08.813,rantool2,2021.1.4,Win32,60.11783095,5ff7387e16269f382942e0be,60d9d14f4a8a35a482e0d9bf,60edebe5a7394740181f75fb,,,,,,,,,,,,
"[""comma""]",0,[0.3050000000000068],82,0,82,0,1,5ff7387e16269f382942e0be,Kobieta,22,2021-07-13_21h40.08.813,rantool2,2021.1.4,Win32,60.11783095,5ff7387e16269f382942e0be,60d9d14f4a8a35a482e0d9bf,60edebe5a7394740181f75fb,,,,,,,,,,,,
"[""comma""]",0,[0.5686000000238209],83,0,83,0,1,5ff7387e16269f382942e0be,Kobieta,22,2021-07-13_21h40.08.813,rantool2,2021.1.4,Win32,60.11783095,5ff7387e16269f382942e0be,60d9d14f4a8a35a482e0d9bf,60edebe5a7394740181f75fb,,,,,,,,,,,,
"[""comma""]",0,[0.8188000000118905],84,0,84,0,1,5ff7387e16269f382942e0be,Kobieta,22,2021-07-13_21h40.08.813,rantool2,2021.1.4,Win32,60.11783095,5ff7387e16269f382942e0be,60d9d14f4a8a35a482e0d9bf,60edebe5a7394740181f75fb,,,,,,,,,,,,
"[""period""]",0,[1.3275000000000432],85,0,85,0,1,5ff7387e16269f382942e0be,Kobieta,22,2021-07-13_21h40.08.813,rantool2,2021.1.4,Win32,60.11783095,5ff7387e16269f382942e0be,60d9d14f4a8a35a482e0d9bf,60edebe5a7394740181f75fb,,,,,,,,,,,,
"[""period""]",0,[0.3445999999642595],86,0,86,0,1,5ff7387e16269f382942e0be,Kobieta,22,2021-07-13_21h40.08.813,rantool2,2021.1.4,Win32,60.11783095,5ff7387e16269f382942e0be,60d9d14f4a8a35a482e0d9bf,60edebe5a7394740181f75fb,,,,,,,,,,,,
"[""period""]",0,[0.2895000000000323],87,0,87,0,1,5ff7387e16269f382942e0be,Kobieta,22,2021-07-13_21h40.08.813,rantool2,2021.1.4,Win32,60.11783095,5ff7387e16269f382942e0be,60d9d14f4a8a35a482e0d9bf,60edebe5a7394740181f75fb,,,,,,,,,,,,
"[""comma""]",0,[0.10780000001187773],88,0,88,0,1,5ff7387e16269f382942e0be,Kobieta,22,2021-07-13_21h40.08.813,rantool2,2021.1.4,Win32,60.11783095,5ff7387e16269f382942e0be,60d9d14f4a8a35a482e0d9bf,60edebe5a7394740181f75fb,,,,,,,,,,,,
"[""comma""]",0,[0.32560000002382594],89,0,89,0,1,5ff7387e16269f382942e0be,Kobieta,22,2021-07-13_21h40.08.813,rantool2,2021.1.4,Win32,60.11783095,5ff7387e16269f382942e0be,60d9d14f4a8a35a482e0d9bf,60edebe5a7394740181f75fb,,,,,,,,,,,,
"[""period""]",0,[0.33430000001192184],90,0,90,0,1,5ff7387e16269f382942e0be,Kobieta,22,2021-07-13_21h40.08.813,rantool2,2021.1.4,Win32,60.11783095,5ff7387e16269f382942e0be,60d9d14f4a8a35a482e0d9bf,60edebe5a7394740181f75fb,,,,,,,,,,,,
"[""period""]",0,[0.339099999964219],91,0,91,0,1,5ff7387e16269f382942e0be,Kobieta,22,2021-07-13_21h40.08.813,rantool2,2021.1.4,Win32,60.11783095,5ff7387e16269f382942e0be,60d9d14f4a8a35a482e0d9bf,60edebe5a7394740181f75fb,,,,,,,,,,,,
"[""comma""]",0,[0.43389999997611994],92,0,92,0,1,5ff7387e16269f382942e0be,Kobieta,22,2021-07-13_21h40.08.813,rantool2,2021.1.4,Win32,60.11783095,5ff7387e16269f382942e0be,60d9d14f4a8a35a482e0d9bf,60edebe5a7394740181f75fb,,,,,,,,,,,,
"[""period""]",0,[0.28410000002384095],93,0,93,0,1,5ff7387e16269f382942e0be,Kobieta,22,2021-07-13_21h40.08.813,rantool2,2021.1.4,Win32,60.11783095,5ff7387e16269f382942e0be,60d9d14f4a8a35a482e0d9bf,60edebe5a7394740181f75fb,,,,,,,,,,,,
"[""comma""]",0,[0.3171999999880768],94,0,94,0,1,5ff7387e16269f382942e0be,Kobieta,22,2021-07-13_21h40.08.813,rantool2,2021.1.4,Win32,60.11783095,5ff7387e16269f382942e0be,60d9d14f4a8a35a482e0d9bf,60edebe5a7394740181f75fb,,,,,,,,,,,,
"[""period""]",0,[0.24319999998806452],95,0,95,0,1,5ff7387e16269f382942e0be,Kobieta,22,2021-07-13_21h40.08.813,rantool2,2021.1.4,Win32,60.11783095,5ff7387e16269f382942e0be,60d9d14f4a8a35a482e0d9bf,60edebe5a7394740181f75fb,,,,,,,,,,,,
"[""period""]",0,[0.359699999988095],96,0,96,0,1,5ff7387e16269f382942e0be,Kobieta,22,2021-07-13_21h40.08.813,rantool2,2021.1.4,Win32,60.11783095,5ff7387e16269f382942e0be,60d9d14f4a8a35a482e0d9bf,60edebe5a7394740181f75fb,,,,,,,,,,,,
"[""period""]",0,[0.3009999999999877],97,0,97,0,1,5ff7387e16269f382942e0be,Kobieta,22,2021-07-13_21h40.08.813,rantool2,2021.1.4,Win32,60.11783095,5ff7387e16269f382942e0be,60d9d14f4a8a35a482e0d9bf,60edebe5a7394740181f75fb,,,,,,,,,,,,
"[""period"",""comma""]",0,"[0.004699999988076797,1.6675999999642386]",98,0,98,0,1,5ff7387e16269f382942e0be,Kobieta,22,2021-07-13_21h40.08.813,rantool2,2021.1.4,Win32,60.11783095,5ff7387e16269f382942e0be,60d9d14f4a8a35a482e0d9bf,60edebe5a7394740181f75fb,,,,,,,,,,,,
"[""comma""]",0,[0.9010000000000105],99,0,99,0,1,5ff7387e16269f382942e0be,Kobieta,22,2021-07-13_21h40.08.813,rantool2,2021.1.4,Win32,60.11783095,5ff7387e16269f382942e0be,60d9d14f4a8a35a482e0d9bf,60edebe5a7394740181f75fb,,,,,,,,,,,,
"[""period""]",0,[1.2963999999761882],100,0,100,0,1,5ff7387e16269f382942e0be,Kobieta,22,2021-07-13_21h40.08.813,rantool2,2021.1.4,Win32,60.11783095,5ff7387e16269f382942e0be,60d9d14f4a8a35a482e0d9bf,60edebe5a7394740181f75fb,,,,,,,,,,,,
"[""period""]",0,[0.544200000047681],101,0,101,0,1,5ff7387e16269f382942e0be,Kobieta,22,2021-07-13_21h40.08.813,rantool2,2021.1.4,Win32,60.11783095,5ff7387e16269f382942e0be,60d9d14f4a8a35a482e0d9bf,60edebe5a7394740181f75fb,,,,,,,,,,,,
"[""comma""]",0,[0.7240999999642099],102,0,102,0,1,5ff7387e16269f382942e0be,Kobieta,22,2021-07-13_21h40.08.813,rantool2,2021.1.4,Win32,60.11783095,5ff7387e16269f382942e0be,60d9d14f4a8a35a482e0d9bf,60edebe5a7394740181f75fb,,,,,,,,,,,,
"[""comma""]",0,[0.7087000000476564],103,0,103,0,1,5ff7387e16269f382942e0be,Kobieta,22,2021-07-13_21h40.08.813,rantool2,2021.1.4,Win32,60.11783095,5ff7387e16269f382942e0be,60d9d14f4a8a35a482e0d9bf,60edebe5a7394740181f75fb,,,,,,,,,,,,
"[""comma""]",0,[0.7699000000357614],104,0,104,0,1,5ff7387e16269f382942e0be,Kobieta,22,2021-07-13_21h40.08.813,rantool2,2021.1.4,Win32,60.11783095,5ff7387e16269f382942e0be,60d9d14f4a8a35a482e0d9bf,60edebe5a7394740181f75fb,,,,,,,,,,,,
"[""period""]",0,[0.4171000000238223],105,0,105,0,1,5ff7387e16269f382942e0be,Kobieta,22,2021-07-13_21h40.08.813,rantool2,2021.1.4,Win32,60.11783095,5ff7387e16269f382942e0be,60d9d14f4a8a35a482e0d9bf,60edebe5a7394740181f75fb,,,,,,,,,,,,
"[""period""]",0,[0.7839999999999918],106,0,106,0,1,5ff7387e16269f382942e0be,Kobieta,22,2021-07-13_21h40.08.813,rantool2,2021.1.4,Win32,60.11783095,5ff7387e16269f382942e0be,60d9d14f4a8a35a482e0d9bf,60edebe5a7394740181f75fb,,,,,,,,,,,,
"[""comma""]",0,[0.6858000000119091],107,0,107,0,1,5ff7387e16269f382942e0be,Kobieta,22,2021-07-13_21h40.08.813,rantool2,2021.1.4,Win32,60.11783095,5ff7387e16269f382942e0be,60d9d14f4a8a35a482e0d9bf,60edebe5a7394740181f75fb,,,,,,,,,,,,
"[""comma""]",0,[0.5511999999880572],108,0,108,0,1,5ff7387e16269f382942e0be,Kobieta,22,2021-07-13_21h40.08.813,rantool2,2021.1.4,Win32,60.11783095,5ff7387e16269f382942e0be,60d9d14f4a8a35a482e0d9bf,60edebe5a7394740181f75fb,,,,,,,,,,,,
"[""period""]",0,[0.7628000000119073],109,0,109,0,1,5ff7387e16269f382942e0be,Kobieta,22,2021-07-13_21h40.08.813,rantool2,2021.1.4,Win32,60.11783095,5ff7387e16269f382942e0be,60d9d14f4a8a35a482e0d9bf,60edebe5a7394740181f75fb,,,,,,,,,,,,
"[""comma""]",0,[0.3668000000118923],110,0,110,0,1,5ff7387e16269f382942e0be,Kobieta,22,2021-07-13_21h40.08.813,rantool2,2021.1.4,Win32,60.11783095,5ff7387e16269f382942e0be,60d9d14f4a8a35a482e0d9bf,60edebe5a7394740181f75fb,,,,,,,,,,,,
"[""comma""]",0,[-0.015399999976182244],111,0,111,0,1,5ff7387e16269f382942e0be,Kobieta,22,2021-07-13_21h40.08.813,rantool2,2021.1.4,Win32,60.11783095,5ff7387e16269f382942e0be,60d9d14f4a8a35a482e0d9bf,60edebe5a7394740181f75fb,,,,,,,,,,,,
"[""period""]",0,[0.3100000000000023],112,0,112,0,1,5ff7387e16269f382942e0be,Kobieta,22,2021-07-13_21h40.08.813,rantool2,2021.1.4,Win32,60.11783095,5ff7387e16269f382942e0be,60d9d14f4a8a35a482e0d9bf,60edebe5a7394740181f75fb,,,,,,,,,,,,
"[""period""]",0,[0.5674999999999955],113,0,113,0,1,5ff7387e16269f382942e0be,Kobieta,22,2021-07-13_21h40.08.813,rantool2,2021.1.4,Win32,60.11783095,5ff7387e16269f382942e0be,60d9d14f4a8a35a482e0d9bf,60edebe5a7394740181f75fb,,,,,,,,,,,,
"[""comma""]",0,[0.5723000000119214],114,0,114,0,1,5ff7387e16269f382942e0be,Kobieta,22,2021-07-13_21h40.08.813,rantool2,2021.1.4,Win32,60.11783095,5ff7387e16269f382942e0be,60d9d14f4a8a35a482e0d9bf,60edebe5a7394740181f75fb,,,,,,,,,,,,
"[""comma""]",0,[0.51010000002384],115,0,115,0,1,5ff7387e16269f382942e0be,Kobieta,22,2021-07-13_21h40.08.813,rantool2,2021.1.4,Win32,60.11783095,5ff7387e16269f382942e0be,60d9d14f4a8a35a482e0d9bf,60edebe5a7394740181f75fb,,,,,,,,,,,,
"[""period""]",0,[0.7173000000119032],116,0,116,0,1,5ff7387e16269f382942e0be,Kobieta,22,2021-07-13_21h40.08.813,rantool2,2021.1.4,Win32,60.11783095,5ff7387e16269f382942e0be,60d9d14f4a8a35a482e0d9bf,60edebe5a7394740181f75fb,,,,,,,,,,,,
"[""period""]",0,[0.38749999999998863],117,0,117,0,1,5ff7387e16269f382942e0be,Kobieta,22,2021-07-13_21h40.08.813,rantool2,2021.1.4,Win32,60.11783095,5ff7387e16269f382942e0be,60d9d14f4a8a35a482e0d9bf,60edebe5a7394740181f75fb,,,,,,,,,,,,
"[""period"",""comma""]",0,"[0.3511000000238482,1.7341000000238296]",118,0,118,0,1,5ff7387e16269f382942e0be,Kobieta,22,2021-07-13_21h40.08.813,rantool2,2021.1.4,Win32,60.11783095,5ff7387e16269f382942e0be,60d9d14f4a8a35a482e0d9bf,60edebe5a7394740181f75fb,,,,,,,,,,,,
0,0,,119,0,119,0,1,5ff7387e16269f382942e0be,Kobieta,22,2021-07-13_21h40.08.813,rantool2,2021.1.4,Win32,60.11783095,5ff7387e16269f382942e0be,60d9d14f4a8a35a482e0d9bf,60edebe5a7394740181f75fb,,,,,,,,,,,,
,,,,,,,,5ff7387e16269f382942e0be,Kobieta,22,2021-07-13_21h40.08.813,rantool2,2021.1.4,Win32,60.11783095,5ff7387e16269f382942e0be,60d9d14f4a8a35a482e0d9bf,60edebe5a7394740181f75fb,j,2.8775,0,0,0,32,1,ROOOOOO,ROOOOOR,19.92253567,21.27974287,series_1
,,,,,,,,5ff7387e16269f382942e0be,Kobieta,22,2021-07-13_21h40.08.813,rantool2,2021.1.4,Win32,60.11783095,5ff7387e16269f382942e0be,60d9d14f4a8a35a482e0d9bf,60edebe5a7394740181f75fb,f,2.5759,0,1,1,17,1,OROOORO,OROOORR,21.03750787,22.12173012,series_1
,,,,,,,,5ff7387e16269f382942e0be,Kobieta,22,2021-07-13_21h40.08.813,rantool2,2021.1.4,Win32,60.11783095,5ff7387e16269f382942e0be,60d9d14f4a8a35a482e0d9bf,60edebe5a7394740181f75fb,f,1.8885,0,2,2,51,1,RROORRO,RROORRR,21.89852628,22.02786418,series_1
,,,,,,,,5ff7387e16269f382942e0be,Kobieta,22,2021-07-13_21h40.08.813,rantool2,2021.1.4,Win32,60.11783095,5ff7387e16269f382942e0be,60d9d14f4a8a35a482e0d9bf,60edebe5a7394740181f75fb,f,2.0817,0,3,3,53,1,RRORORO,RRORORR,20.71309134,21.90565814,series_1
,,,,,,,,5ff7387e16269f382942e0be,Kobieta,22,2021-07-13_21h40.08.813,rantool2,2021.1.4,Win32,60.11783095,5ff7387e16269f382942e0be,60d9d14f4a8a35a482e0d9bf,60edebe5a7394740181f75fb,j,2.9182,0,4,4,26,1,ORROROO,ORROROR,22.02732763,21.71443381,series_0
,,,,,,,,5ff7387e16269f382942e0be,Kobieta,22,2021-07-13_21h40.08.813,rantool2,2021.1.4,Win32,60.11783095,5ff7387e16269f382942e0be,60d9d14f4a8a35a482e0d9bf,60edebe5a7394740181f75fb,f,1.9185,0,5,5,23,1,ORORRRO,ORORRRR,22.1285618,21.9921709,series_0
,,,,,,,,5ff7387e16269f382942e0be,Kobieta,22,2021-07-13_21h40.08.813,rantool2,2021.1.4,Win32,60.11783095,5ff7387e16269f382942e0be,60d9d14f4a8a35a482e0d9bf,60edebe5a7394740181f75fb,f,1.3737,0,6,6,4,1,OOOROOO,OOOROOR,19.91402015,21.21223021,series_1
,,,,,,,,5ff7387e16269f382942e0be,Kobieta,22,2021-07-13_21h40.08.813,rantool2,2021.1.4,Win32,60.11783095,5ff7387e16269f382942e0be,60d9d14f4a8a35a482e0d9bf,60edebe5a7394740181f75fb,j,1.6058,0,7,7,59,1,RRRORRO,RRRORRR,21.56657303,20.89823192,series_0
,,,,,,,,5ff7387e16269f382942e0be,Kobieta,22,2021-07-13_21h40.08.813,rantool2,2021.1.4,Win32,60.11783095,5ff7387e16269f382942e0be,60d9d14f4a8a35a482e0d9bf,60edebe5a7394740181f75fb,j,2.2024,0,8,8,61,1,RRRRORO,RRRRORR,21.81333602,21.17347734,series_0
,,,,,,,,5ff7387e16269f382942e0be,Kobieta,22,2021-07-13_21h40.08.813,rantool2,2021.1.4,Win32,60.11783095,5ff7387e16269f382942e0be,60d9d14f4a8a35a482e0d9bf,60edebe5a7394740181f75fb,f,1.9176,0,9,9,39,1,ROORRRO,ROORRRR,21.82425538,21.38562617,series_0
,,,,,,,,5ff7387e16269f382942e0be,Kobieta,22,2021-07-13_21h40.08.813,rantool2,2021.1.4,Win32,60.11783095,5ff7387e16269f382942e0be,60d9d14f4a8a35a482e0d9bf,60edebe5a7394740181f75fb,j,2.3766,0,10,10,46,1,RORRROO,RORRROR,22.00300695,21.24781509,series_0
,,,,,,,,5ff7387e16269f382942e0be,Kobieta,22,2021-07-13_21h40.08.813,rantool2,2021.1.4,Win32,60.11783095,5ff7387e16269f382942e0be,60d9d14f4a8a35a482e0d9bf,60edebe5a7394740181f75fb,j,2.6009,0,11,11,37,1,ROORORO,ROORORR,20.42602454,21.57657071,series_1
,,,,,,,,5ff7387e16269f382942e0be,Kobieta,22,2021-07-13_21h40.08.813,rantool2,2021.1.4,Win32,60.11783095,5ff7387e16269f382942e0be,60d9d14f4a8a35a482e0d9bf,60edebe5a7394740181f75fb,f,2.7329,0,12,12,30,1,ORRRROO,ORRRROR,22.46748491,22.03072203,series_0
,,,,,,,,5ff7387e16269f382942e0be,Kobieta,22,2021-07-13_21h40.08.813,rantool2,2021.1.4,Win32,60.11783095,5ff7387e16269f382942e0be,60d9d14f4a8a35a482e0d9bf,60edebe5a7394740181f75fb,j,2.4576,0,13,13,45,1,RORRORO,RORRORR,20.78182524,21.22513037,series_1
,,,,,,,,5ff7387e16269f382942e0be,Kobieta,22,2021-07-13_21h40.08.813,rantool2,2021.1.4,Win32,60.11783095,5ff7387e16269f382942e0be,60d9d14f4a8a35a482e0d9bf,60edebe5a7394740181f75fb,f,2.321,0,14,14,28,1,ORRROOO,ORRROOR,22.24142883,22.53364006,series_1
,,,,,,,,5ff7387e16269f382942e0be,Kobieta,22,2021-07-13_21h40.08.813,rantool2,2021.1.4,Win32,60.11783095,5ff7387e16269f382942e0be,60d9d14f4a8a35a482e0d9bf,60edebe5a7394740181f75fb,f,2.7319,0,15,15,36,1,ROOROOO,ROOROOR,21.07991943,20.9984461,series_0
,,,,,,,,5ff7387e16269f382942e0be,Kobieta,22,2021-07-13_21h40.08.813,rantool2,2021.1.4,Win32,60.11783095,5ff7387e16269f382942e0be,60d9d14f4a8a35a482e0d9bf,60edebe5a7394740181f75fb,f,1.8853,0,16,16,58,1,RRROROO,RRROROR,22.1285618,21.37121559,series_0
,,,,,,,,5ff7387e16269f382942e0be,Kobieta,22,2021-07-13_21h40.08.813,rantool2,2021.1.4,Win32,60.11783095,5ff7387e16269f382942e0be,60d9d14f4a8a35a482e0d9bf,60edebe5a7394740181f75fb,j,2.0099,0,17,17,22,1,ORORROO,ORORROR,22.02732763,21.57657071,series_0
,,,,,,,,5ff7387e16269f382942e0be,Kobieta,22,2021-07-13_21h40.08.813,rantool2,2021.1.4,Win32,60.11783095,5ff7387e16269f382942e0be,60d9d14f4a8a35a482e0d9bf,60edebe5a7394740181f75fb,j,1.8579,0,18,18,10,1,OOROROO,OOROROR,21.31236711,21.07490964,series_0
,,,,,,,,5ff7387e16269f382942e0be,Kobieta,22,2021-07-13_21h40.08.813,rantool2,2021.1.4,Win32,60.11783095,5ff7387e16269f382942e0be,60d9d14f4a8a35a482e0d9bf,60edebe5a7394740181f75fb,f,2.7767,0,19,19,42,1,ROROROO,ROROROR,20.39515459,19.8361834,series_0
,,,,,,,,5ff7387e16269f382942e0be,Kobieta,22,2021-07-13_21h40.08.813,rantool2,2021.1.4,Win32,60.11783095,5ff7387e16269f382942e0be,60d9d14f4a8a35a482e0d9bf,60edebe5a7394740181f75fb,f,1.5406,0,20,20,49,1,RROOORO,RROOORR,21.76276513,22.53364006,series_1
,,,,,,,,5ff7387e16269f382942e0be,Kobieta,22,2021-07-13_21h40.08.813,rantool2,2021.1.4,Win32,60.11783095,5ff7387e16269f382942e0be,60d9d14f4a8a35a482e0d9bf,60edebe5a7394740181f75fb,j,1.1804,0,21,21,47,1,RORRRRO,RORRRRR,21.81333602,21.02936224,series_0
,,,,,,,,5ff7387e16269f382942e0be,Kobieta,22,2021-07-13_21h40.08.813,rantool2,2021.1.4,Win32,60.11783095,5ff7387e16269f382942e0be,60d9d14f4a8a35a482e0d9bf,60edebe5a7394740181f75fb,f,1.4836,0,22,22,16,1,OROOOOO,OROOOOR,20.43051175,21.17347734,series_1
,,,,,,,,5ff7387e16269f382942e0be,Kobieta,22,2021-07-13_21h40.08.813,rantool2,2021.1.4,Win32,60.11783095,5ff7387e16269f382942e0be,60d9d14f4a8a35a482e0d9bf,60edebe5a7394740181f75fb,j,2.8004,0,23,23,29,1,ORRRORO,ORRRORR,22.00300695,22.12173012,series_1
,,,,,,,,5ff7387e16269f382942e0be,Kobieta,22,2021-07-13_21h40.08.813,rantool2,2021.1.4,Win32,60.11783095,5ff7387e16269f382942e0be,60d9d14f4a8a35a482e0d9bf,60edebe5a7394740181f75fb,j,0.2109,0,24,24,27,1,ORRORRO,ORRORRR,21.55250791,22.2428857,series_1
,,,,,,,,5ff7387e16269f382942e0be,Kobieta,22,2021-07-13_21h40.08.813,rantool2,2021.1.4,Win32,60.11783095,5ff7387e16269f382942e0be,60d9d14f4a8a35a482e0d9bf,60edebe5a7394740181f75fb,f,1.6037,0,25,25,24,1,ORROOOO,ORROOOR,21.12383932,22.07102821,series_1
,,,,,,,,5ff7387e16269f382942e0be,Kobieta,22,2021-07-13_21h40.08.813,rantool2,2021.1.4,Win32,60.11783095,5ff7387e16269f382942e0be,60d9d14f4a8a35a482e0d9bf,60edebe5a7394740181f75fb,j,1.9534,0,26,26,21,1,ORORORO,ORORORR,20.39515459,22.06781359,series_1
,,,,,,,,5ff7387e16269f382942e0be,Kobieta,22,2021-07-13_21h40.08.813,rantool2,2021.1.4,Win32,60.11783095,5ff7387e16269f382942e0be,60d9d14f4a8a35a482e0d9bf,60edebe5a7394740181f75fb,f,1.2678,0,27,27,1,1,OOOOORO,OOOOORR,19.92253567,20.74050628,series_1
,,,,,,,,5ff7387e16269f382942e0be,Kobieta,22,2021-07-13_21h40.08.813,rantool2,2021.1.4,Win32,60.11783095,5ff7387e16269f382942e0be,60d9d14f4a8a35a482e0d9bf,60edebe5a7394740181f75fb,j,1.435,0,28,28,8,1,OOROOOO,OOROOOR,19.91402015,20.89823192,series_1
,,,,,,,,5ff7387e16269f382942e0be,Kobieta,22,2021-07-13_21h40.08.813,rantool2,2021.1.4,Win32,60.11783095,5ff7387e16269f382942e0be,60d9d14f4a8a35a482e0d9bf,60edebe5a7394740181f75fb,f,1.5407,0,29,29,52,1,RROROOO,RROROOR,22.18365867,22.11097995,series_0
,,,,,,,,5ff7387e16269f382942e0be,Kobieta,22,2021-07-13_21h40.08.813,rantool2,2021.1.4,Win32,60.11783095,5ff7387e16269f382942e0be,60d9d14f4a8a35a482e0d9bf,60edebe5a7394740181f75fb,f,2.2991,0,30,30,18,1,OROOROO,OROOROR,20.84860893,21.22513037,series_1
,,,,,,,,5ff7387e16269f382942e0be,Kobieta,22,2021-07-13_21h40.08.813,rantool2,2021.1.4,Win32,60.11783095,5ff7387e16269f382942e0be,60d9d14f4a8a35a482e0d9bf,60edebe5a7394740181f75fb,j,1.6277,0,31,31,40,1,ROROOOO,ROROOOR,20.87963819,21.37121559,series_1
,,,,,,,,5ff7387e16269f382942e0be,Kobieta,22,2021-07-13_21h40.08.813,rantool2,2021.1.4,Win32,60.11783095,5ff7387e16269f382942e0be,60d9d14f4a8a35a482e0d9bf,60edebe5a7394740181f75fb,j,2.4249,0,32,32,62,1,RRRRROO,RRRRROR,22.16413392,21.27974287,series_0
,,,,,,,,5ff7387e16269f382942e0be,Kobieta,22,2021-07-13_21h40.08.813,rantool2,2021.1.4,Win32,60.11783095,5ff7387e16269f382942e0be,60d9d14f4a8a35a482e0d9bf,60edebe5a7394740181f75fb,j,0.2042,0,33,33,44,1,RORROOO,RORROOR,21.66733484,22.02566557,series_1
,,,,,,,,5ff7387e16269f382942e0be,Kobieta,22,2021-07-13_21h40.08.813,rantool2,2021.1.4,Win32,60.11783095,5ff7387e16269f382942e0be,60d9d14f4a8a35a482e0d9bf,60edebe5a7394740181f75fb,f,1.2275,0,34,34,43,1,RORORRO,RORORRR,20.71309134,21.07490964,series_1
,,,,,,,,5ff7387e16269f382942e0be,Kobieta,22,2021-07-13_21h40.08.813,rantool2,2021.1.4,Win32,60.11783095,5ff7387e16269f382942e0be,60d9d14f4a8a35a482e0d9bf,60edebe5a7394740181f75fb,j,1.3587,0,35,35,0,1,OOOOOOO,OOOOOOR,18.52739004,19.62521613,series_1
,,,,,,,,5ff7387e16269f382942e0be,Kobieta,22,2021-07-13_21h40.08.813,rantool2,2021.1.4,Win32,60.11783095,5ff7387e16269f382942e0be,60d9d14f4a8a35a482e0d9bf,60edebe5a7394740181f75fb,f,1.343,0,36,36,5,1,OOORORO,OOORORR,20.87963819,21.9921709,series_1
,,,,,,,,5ff7387e16269f382942e0be,Kobieta,22,2021-07-13_21h40.08.813,rantool2,2021.1.4,Win32,60.11783095,5ff7387e16269f382942e0be,60d9d14f4a8a35a482e0d9bf,60edebe5a7394740181f75fb,j,1.6582,0,37,37,7,1,OOORRRO,OOORRRR,21.6194508,21.899017,series_1
,,,,,,,,5ff7387e16269f382942e0be,Kobieta,22,2021-07-13_21h40.08.813,rantool2,2021.1.4,Win32,60.11783095,5ff7387e16269f382942e0be,60d9d14f4a8a35a482e0d9bf,60edebe5a7394740181f75fb,f,1.8896,0,38,38,38,1,ROORROO,ROORROR,21.79500819,21.36812781,series_0
,,,,,,,,5ff7387e16269f382942e0be,Kobieta,22,2021-07-13_21h40.08.813,rantool2,2021.1.4,Win32,60.11783095,5ff7387e16269f382942e0be,60d9d14f4a8a35a482e0d9bf,60edebe5a7394740181f75fb,j,1.553,0,39,39,57,1,RRROORO,RRROORR,21.82425538,22.07102821,series_1
,,,,,,,,5ff7387e16269f382942e0be,Kobieta,22,2021-07-13_21h40.08.813,rantool2,2021.1.4,Win32,60.11783095,5ff7387e16269f382942e0be,60d9d14f4a8a35a482e0d9bf,60edebe5a7394740181f75fb,j,1.501,0,40,40,60,1,RRRROOO,RRRROOR,22.10108823,22.15934078,series_1
,,,,,,,,5ff7387e16269f382942e0be,Kobieta,22,2021-07-13_21h40.08.813,rantool2,2021.1.4,Win32,60.11783095,5ff7387e16269f382942e0be,60d9d14f4a8a35a482e0d9bf,60edebe5a7394740181f75fb,j,1.3727,0,41,41,14,1,OORRROO,OORRROR,22.24142883,22.16977179,series_0
,,,,,,,,5ff7387e16269f382942e0be,Kobieta,22,2021-07-13_21h40.08.813,rantool2,2021.1.4,Win32,60.11783095,5ff7387e16269f382942e0be,60d9d14f4a8a35a482e0d9bf,60edebe5a7394740181f75fb,f,2.1778,0,42,42,25,1,ORROORO,ORROORR,21.79500819,22.61624387,series_1
,,,,,,,,5ff7387e16269f382942e0be,Kobieta,22,2021-07-13_21h40.08.813,rantool2,2021.1.4,Win32,60.11783095,5ff7387e16269f382942e0be,60d9d14f4a8a35a482e0d9bf,60edebe5a7394740181f75fb,f,2.6922,0,43,43,15,1,OORRRRO,OORRRRR,22.10108823,21.74922619,series_0
,,,,,,,,5ff7387e16269f382942e0be,Kobieta,22,2021-07-13_21h40.08.813,rantool2,2021.1.4,Win32,60.11783095,5ff7387e16269f382942e0be,60d9d14f4a8a35a482e0d9bf,60edebe5a7394740181f75fb,j,3.474,0,44,44,20,1,OROROOO,OROROOR,21.31236711,21.90565814,series_1
,,,,,,,,5ff7387e16269f382942e0be,Kobieta,22,2021-07-13_21h40.08.813,rantool2,2021.1.4,Win32,60.11783095,5ff7387e16269f382942e0be,60d9d14f4a8a35a482e0d9bf,60edebe5a7394740181f75fb,j,2.1073,0,45,45,13,1,OORRORO,OORRORR,21.66733484,22.11181017,series_1
,,,,,,,,5ff7387e16269f382942e0be,Kobieta,22,2021-07-13_21h40.08.813,rantool2,2021.1.4,Win32,60.11783095,5ff7387e16269f382942e0be,60d9d14f4a8a35a482e0d9bf,60edebe5a7394740181f75fb,f,3.5011,0,46,46,12,1,OORROOO,OORROOR,21.30250474,22.02786418,series_1
,,,,,,,,5ff7387e16269f382942e0be,Kobieta,22,2021-07-13_21h40.08.813,rantool2,2021.1.4,Win32,60.11783095,5ff7387e16269f382942e0be,60d9d14f4a8a35a482e0d9bf,60edebe5a7394740181f75fb,f,1.9429,0,47,47,9,1,OOROORO,OOROORR,21.07991943,22.2428857,series_1
,,,,,,,,5ff7387e16269f382942e0be,Kobieta,22,2021-07-13_21h40.08.813,rantool2,2021.1.4,Win32,60.11783095,5ff7387e16269f382942e0be,60d9d14f4a8a35a482e0d9bf,60edebe5a7394740181f75fb,j,1.7424,0,48,48,11,1,OORORRO,OORORRR,22.18365867,22.6797523,series_1
,,,,,,,,5ff7387e16269f382942e0be,Kobieta,22,2021-07-13_21h40.08.813,rantool2,2021.1.4,Win32,60.11783095,5ff7387e16269f382942e0be,60d9d14f4a8a35a482e0d9bf,60edebe5a7394740181f75fb,j,2.3609,0,49,49,41,1,ROROORO,ROROORR,20.42602454,21.71443381,series_1
,,,,,,,,5ff7387e16269f382942e0be,Kobieta,22,2021-07-13_21h40.08.813,rantool2,2021.1.4,Win32,60.11783095,5ff7387e16269f382942e0be,60d9d14f4a8a35a482e0d9bf,60edebe5a7394740181f75fb,j,3.0929,0,50,50,19,1,OROORRO,OROORRR,21.73568164,22.11181017,series_1
,,,,,,,,5ff7387e16269f382942e0be,Kobieta,22,2021-07-13_21h40.08.813,rantool2,2021.1.4,Win32,60.11783095,5ff7387e16269f382942e0be,60d9d14f4a8a35a482e0d9bf,60edebe5a7394740181f75fb,j,2.1157,0,51,51,56,1,RRROOOO,RRROOOR,21.6194508,22.31681875,series_1
,,,,,,,,5ff7387e16269f382942e0be,Kobieta,22,2021-07-13_21h40.08.813,rantool2,2021.1.4,Win32,60.11783095,5ff7387e16269f382942e0be,60d9d14f4a8a35a482e0d9bf,60edebe5a7394740181f75fb,f,1.539,0,52,52,2,1,OOOOROO,OOOOROR,20.43051175,21.02936224,series_1
,,,,,,,,5ff7387e16269f382942e0be,Kobieta,22,2021-07-13_21h40.08.813,rantool2,2021.1.4,Win32,60.11783095,5ff7387e16269f382942e0be,60d9d14f4a8a35a482e0d9bf,60edebe5a7394740181f75fb,j,1.8439,0,53,53,50,1,RROOROO,RROOROR,21.73568164,22.02566557,series_1
,,,,,,,,5ff7387e16269f382942e0be,Kobieta,22,2021-07-13_21h40.08.813,rantool2,2021.1.4,Win32,60.11783095,5ff7387e16269f382942e0be,60d9d14f4a8a35a482e0d9bf,60edebe5a7394740181f75fb,j,1.6986,0,54,54,33,1,ROOOORO,ROOOORR,20.83779602,22.03072203,series_1
,,,,,,,,5ff7387e16269f382942e0be,Kobieta,22,2021-07-13_21h40.08.813,rantool2,2021.1.4,Win32,60.11783095,5ff7387e16269f382942e0be,60d9d14f4a8a35a482e0d9bf,60edebe5a7394740181f75fb,f,2.7988,0,55,55,31,1,ORRRRRO,ORRRRRR,22.16413392,20.74050628,series_0
,,,,,,,,5ff7387e16269f382942e0be,Kobieta,22,2021-07-13_21h40.08.813,rantool2,2021.1.4,Win32,60.11783095,5ff7387e16269f382942e0be,60d9d14f4a8a35a482e0d9bf,60edebe5a7394740181f75fb,j,1.8917,0,56,56,35,1,ROOORRO,ROOORRR,21.76276513,22.16977179,series_1
,,,,,,,,5ff7387e16269f382942e0be,Kobieta,22,2021-07-13_21h40.08.813,rantool2,2021.1.4,Win32,60.11783095,5ff7387e16269f382942e0be,60d9d14f4a8a35a482e0d9bf,60edebe5a7394740181f75fb,j,1.9745,0,57,57,54,1,RRORROO,RRORROR,21.55250791,20.9984461,series_0
,,,,,,,,5ff7387e16269f382942e0be,Kobieta,22,2021-07-13_21h40.08.813,rantool2,2021.1.4,Win32,60.11783095,5ff7387e16269f382942e0be,60d9d14f4a8a35a482e0d9bf,60edebe5a7394740181f75fb,f,1.5894,0,58,58,6,1,OOORROO,OOORROR,21.12383932,21.38562617,series_1
,,,,,,,,5ff7387e16269f382942e0be,Kobieta,22,2021-07-13_21h40.08.813,rantool2,2021.1.4,Win32,60.11783095,5ff7387e16269f382942e0be,60d9d14f4a8a35a482e0d9bf,60edebe5a7394740181f75fb,f,1.6074,0,59,59,55,1,RRORRRO,RRORRRR,21.56657303,21.21223021,series_0
,,,,,,,,5ff7387e16269f382942e0be,Kobieta,22,2021-07-13_21h40.08.813,rantool2,2021.1.4,Win32,60.11783095,5ff7387e16269f382942e0be,60d9d14f4a8a35a482e0d9bf,60edebe5a7394740181f75fb,f,1.9413,0,60,60,63,1,RRRRRRO,RRRRRRR,21.35278725,19.62521613,series_0
,,,,,,,,5ff7387e16269f382942e0be,Kobieta,22,2021-07-13_21h40.08.813,rantool2,2021.1.4,Win32,60.11783095,5ff7387e16269f382942e0be,60d9d14f4a8a35a482e0d9bf,60edebe5a7394740181f75fb,j,2.1877,0,61,61,48,1,RROOOOO,RROOOOR,20.90986523,22.15934078,series_1
,,,,,,,,5ff7387e16269f382942e0be,Kobieta,22,2021-07-13_21h40.08.813,rantool2,2021.1.4,Win32,60.11783095,5ff7387e16269f382942e0be,60d9d14f4a8a35a482e0d9bf,60edebe5a7394740181f75fb,f,2.0396,0,62,62,3,1,OOOORRO,OOOORRR,20.90986523,21.74922619,series_1
,,,,,,,,5ff7387e16269f382942e0be,Kobieta,22,2021-07-13_21h40.08.813,rantool2,2021.1.4,Win32,60.11783095,5ff7387e16269f382942e0be,60d9d14f4a8a35a482e0d9bf,60edebe5a7394740181f75fb,j,1.8526,0,63,63,34,1,ROOOROO,ROOOROR,21.03750787,21.24781509,series_1
