key_resp_5.keys,key_resp_5.corr,key_resp_5.rt,trials.thisRepN,trials.thisTrialN,trials.thisN,trials.thisIndex,trials.ran,id*,Płeć*,Wiek*,date,expName,psychopyVersion,OS,frameRate,id,STUDY_ID,SESSION_ID,key_resp_7.keys,key_resp_7.rt,trials_2.thisRepN,trials_2.thisTrialN,trials_2.thisN,trials_2.thisIndex,trials_2.ran,series_0,series_1,acss_0,acss_1,comparison
0,,,0,0,0,0,1,5e8cad3983d0c80526afc101,Mężczyzna,18,2021-07-13_20h57.59.735,rantool2,2021.1.4,Win32,74.81669909,5e8cad3983d0c80526afc101,60d9d14f4a8a35a482e0d9bf,60ede2186b1efe40c7f3c80e,,,,,,,,,,,,
"[""comma""]",0,[1.4011999999955265],1,0,1,0,1,5e8cad3983d0c80526afc101,Mężczyzna,18,2021-07-13_20h57.59.735,rantool2,2021.1.4,Win32,74.81669909,5e8cad3983d0c80526afc101,60d9d14f4a8a35a482e0d9bf,60ede2186b1efe40c7f3c80e,,,,,,,,,,,,
"[""period""]",0,[1.1474999999999937],2,0,2,0,1,5e8cad3983d0c80526afc101,Mężczyzna,18,2021-07-13_20h57.59.735,rantool2,2021.1.4,Win32,74.81669909,5e8cad3983d0c80526afc101,60d9d14f4a8a35a482e0d9bf,60ede2186b1efe40c7f3c80e,,,,,,,,,,,,
"[""comma""]",0,[1.0563999999985043],3,0,3,0,1,5e8cad3983d0c80526afc101,Mężczyzna,18,2021-07-13_20h57.59.735,rantool2,2021.1.4,Win32,74.81669909,5e8cad3983d0c80526afc101,60d9d14f4a8a35a482e0d9bf,60ede2186b1efe40c7f3c80e,,,,,,,,,,,,
"[""comma""]",0,[0.949399999998505],4,0,4,0,1,5e8cad3983d0c80526afc101,Mężczyzna,18,2021-07-13_20h57.59.735,rantool2,2021.1.4,Win32,74.81669909,5e8cad3983d0c80526afc101,60d9d14f4a8a35a482e0d9bf,60ede2186b1efe40c7f3c80e,,,,,,,,,,,,
"[""period""]",0,[0.7943999999985039],5,0,5,0,1,5e8cad3983d0c80526afc101,Mężczyzna,18,2021-07-13_20h57.59.735,rantool2,2021.1.4,Win32,74.81669909,5e8cad3983d0c80526afc101,60d9d14f4a8a35a482e0d9bf,60ede2186b1efe40c7f3c80e,,,,,,,,,,,,
"[""comma""]",0,[1.0363000000044735],6,0,6,0,1,5e8cad3983d0c80526afc101,Mężczyzna,18,2021-07-13_20h57.59.735,rantool2,2021.1.4,Win32,74.81669909,5e8cad3983d0c80526afc101,60d9d14f4a8a35a482e0d9bf,60ede2186b1efe40c7f3c80e,,,,,,,,,,,,
"[""comma""]",0,[1.0216000000014844],7,0,7,0,1,5e8cad3983d0c80526afc101,Mężczyzna,18,2021-07-13_20h57.59.735,rantool2,2021.1.4,Win32,74.81669909,5e8cad3983d0c80526afc101,60d9d14f4a8a35a482e0d9bf,60ede2186b1efe40c7f3c80e,,,,,,,,,,,,
"[""comma""]",0,[0.28999999999999204],8,0,8,0,1,5e8cad3983d0c80526afc101,Mężczyzna,18,2021-07-13_20h57.59.735,rantool2,2021.1.4,Win32,74.81669909,5e8cad3983d0c80526afc101,60d9d14f4a8a35a482e0d9bf,60ede2186b1efe40c7f3c80e,,,,,,,,,,,,
"[""period"",""comma""]",0,"[0.06469999999552556,1.1937999999970117]",9,0,9,0,1,5e8cad3983d0c80526afc101,Mężczyzna,18,2021-07-13_20h57.59.735,rantool2,2021.1.4,Win32,74.81669909,5e8cad3983d0c80526afc101,60d9d14f4a8a35a482e0d9bf,60ede2186b1efe40c7f3c80e,,,,,,,,,,,,
"[""period""]",0,[1.1133000000044717],10,0,10,0,1,5e8cad3983d0c80526afc101,Mężczyzna,18,2021-07-13_20h57.59.735,rantool2,2021.1.4,Win32,74.81669909,5e8cad3983d0c80526afc101,60d9d14f4a8a35a482e0d9bf,60ede2186b1efe40c7f3c80e,,,,,,,,,,,,
"[""period""]",0,[1.122499999999988],11,0,11,0,1,5e8cad3983d0c80526afc101,Mężczyzna,18,2021-07-13_20h57.59.735,rantool2,2021.1.4,Win32,74.81669909,5e8cad3983d0c80526afc101,60d9d14f4a8a35a482e0d9bf,60ede2186b1efe40c7f3c80e,,,,,,,,,,,,
"[""comma""]",0,[1.056600000001481],12,0,12,0,1,5e8cad3983d0c80526afc101,Mężczyzna,18,2021-07-13_20h57.59.735,rantool2,2021.1.4,Win32,74.81669909,5e8cad3983d0c80526afc101,60d9d14f4a8a35a482e0d9bf,60ede2186b1efe40c7f3c80e,,,,,,,,,,,,
"[""comma""]",0,[1.2598999999985097],13,0,13,0,1,5e8cad3983d0c80526afc101,Mężczyzna,18,2021-07-13_20h57.59.735,rantool2,2021.1.4,Win32,74.81669909,5e8cad3983d0c80526afc101,60d9d14f4a8a35a482e0d9bf,60ede2186b1efe40c7f3c80e,,,,,,,,,,,,
"[""comma""]",0,[0.9831000000014996],14,0,14,0,1,5e8cad3983d0c80526afc101,Mężczyzna,18,2021-07-13_20h57.59.735,rantool2,2021.1.4,Win32,74.81669909,5e8cad3983d0c80526afc101,60d9d14f4a8a35a482e0d9bf,60ede2186b1efe40c7f3c80e,,,,,,,,,,,,
"[""period""]",0,[1.043999999999997],15,0,15,0,1,5e8cad3983d0c80526afc101,Mężczyzna,18,2021-07-13_20h57.59.735,rantool2,2021.1.4,Win32,74.81669909,5e8cad3983d0c80526afc101,60d9d14f4a8a35a482e0d9bf,60ede2186b1efe40c7f3c80e,,,,,,,,,,,,
"[""period""]",0,[0.33430000000447535],16,0,16,0,1,5e8cad3983d0c80526afc101,Mężczyzna,18,2021-07-13_20h57.59.735,rantool2,2021.1.4,Win32,74.81669909,5e8cad3983d0c80526afc101,60d9d14f4a8a35a482e0d9bf,60ede2186b1efe40c7f3c80e,,,,,,,,,,,,
"[""period""]",0,[0.24500000000000455],17,0,17,0,1,5e8cad3983d0c80526afc101,Mężczyzna,18,2021-07-13_20h57.59.735,rantool2,2021.1.4,Win32,74.81669909,5e8cad3983d0c80526afc101,60d9d14f4a8a35a482e0d9bf,60ede2186b1efe40c7f3c80e,,,,,,,,,,,,
"[""comma""]",0,[0.3903999999985075],18,0,18,0,1,5e8cad3983d0c80526afc101,Mężczyzna,18,2021-07-13_20h57.59.735,rantool2,2021.1.4,Win32,74.81669909,5e8cad3983d0c80526afc101,60d9d14f4a8a35a482e0d9bf,60ede2186b1efe40c7f3c80e,,,,,,,,,,,,
"[""comma"",""period""]",0,"[0.24199999999999022,1.822899999998512]",19,0,19,0,1,5e8cad3983d0c80526afc101,Mężczyzna,18,2021-07-13_20h57.59.735,rantool2,2021.1.4,Win32,74.81669909,5e8cad3983d0c80526afc101,60d9d14f4a8a35a482e0d9bf,60ede2186b1efe40c7f3c80e,,,,,,,,,,,,
0,0,,20,0,20,0,1,5e8cad3983d0c80526afc101,Mężczyzna,18,2021-07-13_20h57.59.735,rantool2,2021.1.4,Win32,74.81669909,5e8cad3983d0c80526afc101,60d9d14f4a8a35a482e0d9bf,60ede2186b1efe40c7f3c80e,,,,,,,,,,,,
"[""comma""]",0,[0.25939999999850727],21,0,21,0,1,5e8cad3983d0c80526afc101,Mężczyzna,18,2021-07-13_20h57.59.735,rantool2,2021.1.4,Win32,74.81669909,5e8cad3983d0c80526afc101,60d9d14f4a8a35a482e0d9bf,60ede2186b1efe40c7f3c80e,,,,,,,,,,,,
"[""period""]",0,[0.30420000000297875],22,0,22,0,1,5e8cad3983d0c80526afc101,Mężczyzna,18,2021-07-13_20h57.59.735,rantool2,2021.1.4,Win32,74.81669909,5e8cad3983d0c80526afc101,60d9d14f4a8a35a482e0d9bf,60ede2186b1efe40c7f3c80e,,,,,,,,,,,,
"[""period""]",0,[0.15969999999552442],23,0,23,0,1,5e8cad3983d0c80526afc101,Mężczyzna,18,2021-07-13_20h57.59.735,rantool2,2021.1.4,Win32,74.81669909,5e8cad3983d0c80526afc101,60d9d14f4a8a35a482e0d9bf,60ede2186b1efe40c7f3c80e,,,,,,,,,,,,
"[""period""]",0,[0.24799999999999045],24,0,24,0,1,5e8cad3983d0c80526afc101,Mężczyzna,18,2021-07-13_20h57.59.735,rantool2,2021.1.4,Win32,74.81669909,5e8cad3983d0c80526afc101,60d9d14f4a8a35a482e0d9bf,60ede2186b1efe40c7f3c80e,,,,,,,,,,,,
"[""comma""]",0,[0.2791999999955266],25,0,25,0,1,5e8cad3983d0c80526afc101,Mężczyzna,18,2021-07-13_20h57.59.735,rantool2,2021.1.4,Win32,74.81669909,5e8cad3983d0c80526afc101,60d9d14f4a8a35a482e0d9bf,60ede2186b1efe40c7f3c80e,,,,,,,,,,,,
"[""comma""]",0,[0.2837999999970293],26,0,26,0,1,5e8cad3983d0c80526afc101,Mężczyzna,18,2021-07-13_20h57.59.735,rantool2,2021.1.4,Win32,74.81669909,5e8cad3983d0c80526afc101,60d9d14f4a8a35a482e0d9bf,60ede2186b1efe40c7f3c80e,,,,,,,,,,,,
"[""comma""]",0,[0.2872999999970034],27,0,27,0,1,5e8cad3983d0c80526afc101,Mężczyzna,18,2021-07-13_20h57.59.735,rantool2,2021.1.4,Win32,74.81669909,5e8cad3983d0c80526afc101,60d9d14f4a8a35a482e0d9bf,60ede2186b1efe40c7f3c80e,,,,,,,,,,,,
"[""period""]",0,[0.2758999999985292],28,0,28,0,1,5e8cad3983d0c80526afc101,Mężczyzna,18,2021-07-13_20h57.59.735,rantool2,2021.1.4,Win32,74.81669909,5e8cad3983d0c80526afc101,60d9d14f4a8a35a482e0d9bf,60ede2186b1efe40c7f3c80e,,,,,,,,,,,,
"[""period""]",0,[0.010299999997045006],29,0,29,0,1,5e8cad3983d0c80526afc101,Mężczyzna,18,2021-07-13_20h57.59.735,rantool2,2021.1.4,Win32,74.81669909,5e8cad3983d0c80526afc101,60d9d14f4a8a35a482e0d9bf,60ede2186b1efe40c7f3c80e,,,,,,,,,,,,
"[""period""]",0,[0.27570000000295636],30,0,30,0,1,5e8cad3983d0c80526afc101,Mężczyzna,18,2021-07-13_20h57.59.735,rantool2,2021.1.4,Win32,74.81669909,5e8cad3983d0c80526afc101,60d9d14f4a8a35a482e0d9bf,60ede2186b1efe40c7f3c80e,,,,,,,,,,,,
"[""comma""]",0,[0.3190999999940516],31,0,31,0,1,5e8cad3983d0c80526afc101,Mężczyzna,18,2021-07-13_20h57.59.735,rantool2,2021.1.4,Win32,74.81669909,5e8cad3983d0c80526afc101,60d9d14f4a8a35a482e0d9bf,60ede2186b1efe40c7f3c80e,,,,,,,,,,,,
"[""comma""]",0,[0.29299999999997794],32,0,32,0,1,5e8cad3983d0c80526afc101,Mężczyzna,18,2021-07-13_20h57.59.735,rantool2,2021.1.4,Win32,74.81669909,5e8cad3983d0c80526afc101,60d9d14f4a8a35a482e0d9bf,60ede2186b1efe40c7f3c80e,,,,,,,,,,,,
"[""comma""]",0,[0.39500000000001023],33,0,33,0,1,5e8cad3983d0c80526afc101,Mężczyzna,18,2021-07-13_20h57.59.735,rantool2,2021.1.4,Win32,74.81669909,5e8cad3983d0c80526afc101,60d9d14f4a8a35a482e0d9bf,60ede2186b1efe40c7f3c80e,,,,,,,,,,,,
"[""comma""]",0,[0.2996999999955392],34,0,34,0,1,5e8cad3983d0c80526afc101,Mężczyzna,18,2021-07-13_20h57.59.735,rantool2,2021.1.4,Win32,74.81669909,5e8cad3983d0c80526afc101,60d9d14f4a8a35a482e0d9bf,60ede2186b1efe40c7f3c80e,,,,,,,,,,,,
"[""period""]",0,[0.4232000000029643],35,0,35,0,1,5e8cad3983d0c80526afc101,Mężczyzna,18,2021-07-13_20h57.59.735,rantool2,2021.1.4,Win32,74.81669909,5e8cad3983d0c80526afc101,60d9d14f4a8a35a482e0d9bf,60ede2186b1efe40c7f3c80e,,,,,,,,,,,,
"[""period""]",0,[0.3282999999970002],36,0,36,0,1,5e8cad3983d0c80526afc101,Mężczyzna,18,2021-07-13_20h57.59.735,rantool2,2021.1.4,Win32,74.81669909,5e8cad3983d0c80526afc101,60d9d14f4a8a35a482e0d9bf,60ede2186b1efe40c7f3c80e,,,,,,,,,,,,
"[""comma""]",0,[0.2937999999970202],37,0,37,0,1,5e8cad3983d0c80526afc101,Mężczyzna,18,2021-07-13_20h57.59.735,rantool2,2021.1.4,Win32,74.81669909,5e8cad3983d0c80526afc101,60d9d14f4a8a35a482e0d9bf,60ede2186b1efe40c7f3c80e,,,,,,,,,,,,
"[""period""]",0,[0.30819999999553715],38,0,38,0,1,5e8cad3983d0c80526afc101,Mężczyzna,18,2021-07-13_20h57.59.735,rantool2,2021.1.4,Win32,74.81669909,5e8cad3983d0c80526afc101,60d9d14f4a8a35a482e0d9bf,60ede2186b1efe40c7f3c80e,,,,,,,,,,,,
"[""period""]",0,[0.28979999999702954],39,0,39,0,1,5e8cad3983d0c80526afc101,Mężczyzna,18,2021-07-13_20h57.59.735,rantool2,2021.1.4,Win32,74.81669909,5e8cad3983d0c80526afc101,60d9d14f4a8a35a482e0d9bf,60ede2186b1efe40c7f3c80e,,,,,,,,,,,,
"[""comma""]",0,[0.5451999999955319],40,0,40,0,1,5e8cad3983d0c80526afc101,Mężczyzna,18,2021-07-13_20h57.59.735,rantool2,2021.1.4,Win32,74.81669909,5e8cad3983d0c80526afc101,60d9d14f4a8a35a482e0d9bf,60ede2186b1efe40c7f3c80e,,,,,,,,,,,,
"[""comma""]",0,[0.3714999999999975],41,0,41,0,1,5e8cad3983d0c80526afc101,Mężczyzna,18,2021-07-13_20h57.59.735,rantool2,2021.1.4,Win32,74.81669909,5e8cad3983d0c80526afc101,60d9d14f4a8a35a482e0d9bf,60ede2186b1efe40c7f3c80e,,,,,,,,,,,,
"[""comma""]",0,[0.042899999998496696],42,0,42,0,1,5e8cad3983d0c80526afc101,Mężczyzna,18,2021-07-13_20h57.59.735,rantool2,2021.1.4,Win32,74.81669909,5e8cad3983d0c80526afc101,60d9d14f4a8a35a482e0d9bf,60ede2186b1efe40c7f3c80e,,,,,,,,,,,,
"[""period""]",0,[0.3894999999999982],43,0,43,0,1,5e8cad3983d0c80526afc101,Mężczyzna,18,2021-07-13_20h57.59.735,rantool2,2021.1.4,Win32,74.81669909,5e8cad3983d0c80526afc101,60d9d14f4a8a35a482e0d9bf,60ede2186b1efe40c7f3c80e,,,,,,,,,,,,
"[""period""]",0,[0.3994999999999891],44,0,44,0,1,5e8cad3983d0c80526afc101,Mężczyzna,18,2021-07-13_20h57.59.735,rantool2,2021.1.4,Win32,74.81669909,5e8cad3983d0c80526afc101,60d9d14f4a8a35a482e0d9bf,60ede2186b1efe40c7f3c80e,,,,,,,,,,,,
"[""period""]",0,[0.24810000000150012],45,0,45,0,1,5e8cad3983d0c80526afc101,Mężczyzna,18,2021-07-13_20h57.59.735,rantool2,2021.1.4,Win32,74.81669909,5e8cad3983d0c80526afc101,60d9d14f4a8a35a482e0d9bf,60ede2186b1efe40c7f3c80e,,,,,,,,,,,,
"[""comma""]",0,[0.26969999999553806],46,0,46,0,1,5e8cad3983d0c80526afc101,Mężczyzna,18,2021-07-13_20h57.59.735,rantool2,2021.1.4,Win32,74.81669909,5e8cad3983d0c80526afc101,60d9d14f4a8a35a482e0d9bf,60ede2186b1efe40c7f3c80e,,,,,,,,,,,,
"[""comma""]",0,[0.3071999999955324],47,0,47,0,1,5e8cad3983d0c80526afc101,Mężczyzna,18,2021-07-13_20h57.59.735,rantool2,2021.1.4,Win32,74.81669909,5e8cad3983d0c80526afc101,60d9d14f4a8a35a482e0d9bf,60ede2186b1efe40c7f3c80e,,,,,,,,,,,,
"[""comma""]",0,[0.24729999999703978],48,0,48,0,1,5e8cad3983d0c80526afc101,Mężczyzna,18,2021-07-13_20h57.59.735,rantool2,2021.1.4,Win32,74.81669909,5e8cad3983d0c80526afc101,60d9d14f4a8a35a482e0d9bf,60ede2186b1efe40c7f3c80e,,,,,,,,,,,,
"[""period""]",0,[0.2616999999955283],49,0,49,0,1,5e8cad3983d0c80526afc101,Mężczyzna,18,2021-07-13_20h57.59.735,rantool2,2021.1.4,Win32,74.81669909,5e8cad3983d0c80526afc101,60d9d14f4a8a35a482e0d9bf,60ede2186b1efe40c7f3c80e,,,,,,,,,,,,
"[""comma""]",0,[0.2966000000014901],50,0,50,0,1,5e8cad3983d0c80526afc101,Mężczyzna,18,2021-07-13_20h57.59.735,rantool2,2021.1.4,Win32,74.81669909,5e8cad3983d0c80526afc101,60d9d14f4a8a35a482e0d9bf,60ede2186b1efe40c7f3c80e,,,,,,,,,,,,
"[""comma""]",0,[0.34829999999701045],51,0,51,0,1,5e8cad3983d0c80526afc101,Mężczyzna,18,2021-07-13_20h57.59.735,rantool2,2021.1.4,Win32,74.81669909,5e8cad3983d0c80526afc101,60d9d14f4a8a35a482e0d9bf,60ede2186b1efe40c7f3c80e,,,,,,,,,,,,
"[""period""]",0,[0.27760000000148466],52,0,52,0,1,5e8cad3983d0c80526afc101,Mężczyzna,18,2021-07-13_20h57.59.735,rantool2,2021.1.4,Win32,74.81669909,5e8cad3983d0c80526afc101,60d9d14f4a8a35a482e0d9bf,60ede2186b1efe40c7f3c80e,,,,,,,,,,,,
"[""period""]",0,[0.3205000000000098],53,0,53,0,1,5e8cad3983d0c80526afc101,Mężczyzna,18,2021-07-13_20h57.59.735,rantool2,2021.1.4,Win32,74.81669909,5e8cad3983d0c80526afc101,60d9d14f4a8a35a482e0d9bf,60ede2186b1efe40c7f3c80e,,,,,,,,,,,,
"[""period""]",0,[0.3655000000000257],54,0,54,0,1,5e8cad3983d0c80526afc101,Mężczyzna,18,2021-07-13_20h57.59.735,rantool2,2021.1.4,Win32,74.81669909,5e8cad3983d0c80526afc101,60d9d14f4a8a35a482e0d9bf,60ede2186b1efe40c7f3c80e,,,,,,,,,,,,
"[""period""]",0,[0.3300000000000125],55,0,55,0,1,5e8cad3983d0c80526afc101,Mężczyzna,18,2021-07-13_20h57.59.735,rantool2,2021.1.4,Win32,74.81669909,5e8cad3983d0c80526afc101,60d9d14f4a8a35a482e0d9bf,60ede2186b1efe40c7f3c80e,,,,,,,,,,,,
"[""comma""]",0,[0.28600000000000136],56,0,56,0,1,5e8cad3983d0c80526afc101,Mężczyzna,18,2021-07-13_20h57.59.735,rantool2,2021.1.4,Win32,74.81669909,5e8cad3983d0c80526afc101,60d9d14f4a8a35a482e0d9bf,60ede2186b1efe40c7f3c80e,,,,,,,,,,,,
"[""period""]",0,[0.2553999999985024],57,0,57,0,1,5e8cad3983d0c80526afc101,Mężczyzna,18,2021-07-13_20h57.59.735,rantool2,2021.1.4,Win32,74.81669909,5e8cad3983d0c80526afc101,60d9d14f4a8a35a482e0d9bf,60ede2186b1efe40c7f3c80e,,,,,,,,,,,,
"[""comma""]",0,[0.25499999999999545],58,0,58,0,1,5e8cad3983d0c80526afc101,Mężczyzna,18,2021-07-13_20h57.59.735,rantool2,2021.1.4,Win32,74.81669909,5e8cad3983d0c80526afc101,60d9d14f4a8a35a482e0d9bf,60ede2186b1efe40c7f3c80e,,,,,,,,,,,,
"[""period""]",0,[0.2812999999970316],59,0,59,0,1,5e8cad3983d0c80526afc101,Mężczyzna,18,2021-07-13_20h57.59.735,rantool2,2021.1.4,Win32,74.81669909,5e8cad3983d0c80526afc101,60d9d14f4a8a35a482e0d9bf,60ede2186b1efe40c7f3c80e,,,,,,,,,,,,
"[""comma""]",0,[0.22769999999553647],60,0,60,0,1,5e8cad3983d0c80526afc101,Mężczyzna,18,2021-07-13_20h57.59.735,rantool2,2021.1.4,Win32,74.81669909,5e8cad3983d0c80526afc101,60d9d14f4a8a35a482e0d9bf,60ede2186b1efe40c7f3c80e,,,,,,,,,,,,
"[""period""]",0,[0.2668000000044515],61,0,61,0,1,5e8cad3983d0c80526afc101,Mężczyzna,18,2021-07-13_20h57.59.735,rantool2,2021.1.4,Win32,74.81669909,5e8cad3983d0c80526afc101,60d9d14f4a8a35a482e0d9bf,60ede2186b1efe40c7f3c80e,,,,,,,,,,,,
"[""period""]",0,[0.20550000000000068],62,0,62,0,1,5e8cad3983d0c80526afc101,Mężczyzna,18,2021-07-13_20h57.59.735,rantool2,2021.1.4,Win32,74.81669909,5e8cad3983d0c80526afc101,60d9d14f4a8a35a482e0d9bf,60ede2186b1efe40c7f3c80e,,,,,,,,,,,,
"[""comma""]",0,[0.1818999999985067],63,0,63,0,1,5e8cad3983d0c80526afc101,Mężczyzna,18,2021-07-13_20h57.59.735,rantool2,2021.1.4,Win32,74.81669909,5e8cad3983d0c80526afc101,60d9d14f4a8a35a482e0d9bf,60ede2186b1efe40c7f3c80e,,,,,,,,,,,,
"[""comma"",""comma""]",0,"[0.22569999999552692,1.9331999999955372]",64,0,64,0,1,5e8cad3983d0c80526afc101,Mężczyzna,18,2021-07-13_20h57.59.735,rantool2,2021.1.4,Win32,74.81669909,5e8cad3983d0c80526afc101,60d9d14f4a8a35a482e0d9bf,60ede2186b1efe40c7f3c80e,,,,,,,,,,,,
0,0,,65,0,65,0,1,5e8cad3983d0c80526afc101,Mężczyzna,18,2021-07-13_20h57.59.735,rantool2,2021.1.4,Win32,74.81669909,5e8cad3983d0c80526afc101,60d9d14f4a8a35a482e0d9bf,60ede2186b1efe40c7f3c80e,,,,,,,,,,,,
"[""comma""]",0,[0.2966999999955249],66,0,66,0,1,5e8cad3983d0c80526afc101,Mężczyzna,18,2021-07-13_20h57.59.735,rantool2,2021.1.4,Win32,74.81669909,5e8cad3983d0c80526afc101,60d9d14f4a8a35a482e0d9bf,60ede2186b1efe40c7f3c80e,,,,,,,,,,,,
"[""period""]",0,[0.16150000000001796],67,0,67,0,1,5e8cad3983d0c80526afc101,Mężczyzna,18,2021-07-13_20h57.59.735,rantool2,2021.1.4,Win32,74.81669909,5e8cad3983d0c80526afc101,60d9d14f4a8a35a482e0d9bf,60ede2186b1efe40c7f3c80e,,,,,,,,,,,,
"[""comma""]",0,[0.4325999999940393],68,0,68,0,1,5e8cad3983d0c80526afc101,Mężczyzna,18,2021-07-13_20h57.59.735,rantool2,2021.1.4,Win32,74.81669909,5e8cad3983d0c80526afc101,60d9d14f4a8a35a482e0d9bf,60ede2186b1efe40c7f3c80e,,,,,,,,,,,,
"[""period"",""period""]",0,"[0.2702999999970075,1.9712999999970293]",69,0,69,0,1,5e8cad3983d0c80526afc101,Mężczyzna,18,2021-07-13_20h57.59.735,rantool2,2021.1.4,Win32,74.81669909,5e8cad3983d0c80526afc101,60d9d14f4a8a35a482e0d9bf,60ede2186b1efe40c7f3c80e,,,,,,,,,,,,
0,0,,70,0,70,0,1,5e8cad3983d0c80526afc101,Mężczyzna,18,2021-07-13_20h57.59.735,rantool2,2021.1.4,Win32,74.81669909,5e8cad3983d0c80526afc101,60d9d14f4a8a35a482e0d9bf,60ede2186b1efe40c7f3c80e,,,,,,,,,,,,
"[""comma""]",0,[0.2077999999970359],71,0,71,0,1,5e8cad3983d0c80526afc101,Mężczyzna,18,2021-07-13_20h57.59.735,rantool2,2021.1.4,Win32,74.81669909,5e8cad3983d0c80526afc101,60d9d14f4a8a35a482e0d9bf,60ede2186b1efe40c7f3c80e,,,,,,,,,,,,
"[""comma""]",0,[0.14589999999850534],72,0,72,0,1,5e8cad3983d0c80526afc101,Mężczyzna,18,2021-07-13_20h57.59.735,rantool2,2021.1.4,Win32,74.81669909,5e8cad3983d0c80526afc101,60d9d14f4a8a35a482e0d9bf,60ede2186b1efe40c7f3c80e,,,,,,,,,,,,
"[""period""]",0,[0.14749999999997954],73,0,73,0,1,5e8cad3983d0c80526afc101,Mężczyzna,18,2021-07-13_20h57.59.735,rantool2,2021.1.4,Win32,74.81669909,5e8cad3983d0c80526afc101,60d9d14f4a8a35a482e0d9bf,60ede2186b1efe40c7f3c80e,,,,,,,,,,,,
"[""period""]",0,[0.17430000000447876],74,0,74,0,1,5e8cad3983d0c80526afc101,Mężczyzna,18,2021-07-13_20h57.59.735,rantool2,2021.1.4,Win32,74.81669909,5e8cad3983d0c80526afc101,60d9d14f4a8a35a482e0d9bf,60ede2186b1efe40c7f3c80e,,,,,,,,,,,,
"[""period""]",0,[0.19300000000001205],75,0,75,0,1,5e8cad3983d0c80526afc101,Mężczyzna,18,2021-07-13_20h57.59.735,rantool2,2021.1.4,Win32,74.81669909,5e8cad3983d0c80526afc101,60d9d14f4a8a35a482e0d9bf,60ede2186b1efe40c7f3c80e,,,,,,,,,,,,
"[""comma"",""comma""]",0,"[0.10699999999999932,1.967899999998508]",76,0,76,0,1,5e8cad3983d0c80526afc101,Mężczyzna,18,2021-07-13_20h57.59.735,rantool2,2021.1.4,Win32,74.81669909,5e8cad3983d0c80526afc101,60d9d14f4a8a35a482e0d9bf,60ede2186b1efe40c7f3c80e,,,,,,,,,,,,
0,0,,77,0,77,0,1,5e8cad3983d0c80526afc101,Mężczyzna,18,2021-07-13_20h57.59.735,rantool2,2021.1.4,Win32,74.81669909,5e8cad3983d0c80526afc101,60d9d14f4a8a35a482e0d9bf,60ede2186b1efe40c7f3c80e,,,,,,,,,,,,
"[""period"",""comma""]",0,"[0.24039999999851602,1.9406999999955303]",78,0,78,0,1,5e8cad3983d0c80526afc101,Mężczyzna,18,2021-07-13_20h57.59.735,rantool2,2021.1.4,Win32,74.81669909,5e8cad3983d0c80526afc101,60d9d14f4a8a35a482e0d9bf,60ede2186b1efe40c7f3c80e,,,,,,,,,,,,
0,0,,79,0,79,0,1,5e8cad3983d0c80526afc101,Mężczyzna,18,2021-07-13_20h57.59.735,rantool2,2021.1.4,Win32,74.81669909,5e8cad3983d0c80526afc101,60d9d14f4a8a35a482e0d9bf,60ede2186b1efe40c7f3c80e,,,,,,,,,,,,
"[""period"",""comma""]",0,"[-0.015600000001484204,1.902299999997041]",80,0,80,0,1,5e8cad3983d0c80526afc101,Mężczyzna,18,2021-07-13_20h57.59.735,rantool2,2021.1.4,Win32,74.81669909,5e8cad3983d0c80526afc101,60d9d14f4a8a35a482e0d9bf,60ede2186b1efe40c7f3c80e,,,,,,,,,,,,
0,0,,81,0,81,0,1,5e8cad3983d0c80526afc101,Mężczyzna,18,2021-07-13_20h57.59.735,rantool2,2021.1.4,Win32,74.81669909,5e8cad3983d0c80526afc101,60d9d14f4a8a35a482e0d9bf,60ede2186b1efe40c7f3c80e,,,,,,,,,,,,
"[""period""]",0,[0.19149999999999068],82,0,82,0,1,5e8cad3983d0c80526afc101,Mężczyzna,18,2021-07-13_20h57.59.735,rantool2,2021.1.4,Win32,74.81669909,5e8cad3983d0c80526afc101,60d9d14f4a8a35a482e0d9bf,60ede2186b1efe40c7f3c80e,,,,,,,,,,,,
"[""period""]",0,[0.29839999999850875],83,0,83,0,1,5e8cad3983d0c80526afc101,Mężczyzna,18,2021-07-13_20h57.59.735,rantool2,2021.1.4,Win32,74.81669909,5e8cad3983d0c80526afc101,60d9d14f4a8a35a482e0d9bf,60ede2186b1efe40c7f3c80e,,,,,,,,,,,,
"[""comma""]",0,[0.2938999999985299],84,0,84,0,1,5e8cad3983d0c80526afc101,Mężczyzna,18,2021-07-13_20h57.59.735,rantool2,2021.1.4,Win32,74.81669909,5e8cad3983d0c80526afc101,60d9d14f4a8a35a482e0d9bf,60ede2186b1efe40c7f3c80e,,,,,,,,,,,,
"[""comma""]",0,[0.018199999995545113],85,0,85,0,1,5e8cad3983d0c80526afc101,Mężczyzna,18,2021-07-13_20h57.59.735,rantool2,2021.1.4,Win32,74.81669909,5e8cad3983d0c80526afc101,60d9d14f4a8a35a482e0d9bf,60ede2186b1efe40c7f3c80e,,,,,,,,,,,,
"[""period""]",0,[0.2896999999955199],86,0,86,0,1,5e8cad3983d0c80526afc101,Mężczyzna,18,2021-07-13_20h57.59.735,rantool2,2021.1.4,Win32,74.81669909,5e8cad3983d0c80526afc101,60d9d14f4a8a35a482e0d9bf,60ede2186b1efe40c7f3c80e,,,,,,,,,,,,
"[""period""]",0,[0.3100000000000023],87,0,87,0,1,5e8cad3983d0c80526afc101,Mężczyzna,18,2021-07-13_20h57.59.735,rantool2,2021.1.4,Win32,74.81669909,5e8cad3983d0c80526afc101,60d9d14f4a8a35a482e0d9bf,60ede2186b1efe40c7f3c80e,,,,,,,,,,,,
"[""period""]",0,[0.29560000000151376],88,0,88,0,1,5e8cad3983d0c80526afc101,Mężczyzna,18,2021-07-13_20h57.59.735,rantool2,2021.1.4,Win32,74.81669909,5e8cad3983d0c80526afc101,60d9d14f4a8a35a482e0d9bf,60ede2186b1efe40c7f3c80e,,,,,,,,,,,,
"[""comma""]",0,[0.28929999999701295],89,0,89,0,1,5e8cad3983d0c80526afc101,Mężczyzna,18,2021-07-13_20h57.59.735,rantool2,2021.1.4,Win32,74.81669909,5e8cad3983d0c80526afc101,60d9d14f4a8a35a482e0d9bf,60ede2186b1efe40c7f3c80e,,,,,,,,,,,,
"[""comma""]",0,[0.2524999999999977],90,0,90,0,1,5e8cad3983d0c80526afc101,Mężczyzna,18,2021-07-13_20h57.59.735,rantool2,2021.1.4,Win32,74.81669909,5e8cad3983d0c80526afc101,60d9d14f4a8a35a482e0d9bf,60ede2186b1efe40c7f3c80e,,,,,,,,,,,,
"[""comma""]",0,[0.3226000000015006],91,0,91,0,1,5e8cad3983d0c80526afc101,Mężczyzna,18,2021-07-13_20h57.59.735,rantool2,2021.1.4,Win32,74.81669909,5e8cad3983d0c80526afc101,60d9d14f4a8a35a482e0d9bf,60ede2186b1efe40c7f3c80e,,,,,,,,,,,,
"[""period""]",0,[0.21259999999404045],92,0,92,0,1,5e8cad3983d0c80526afc101,Mężczyzna,18,2021-07-13_20h57.59.735,rantool2,2021.1.4,Win32,74.81669909,5e8cad3983d0c80526afc101,60d9d14f4a8a35a482e0d9bf,60ede2186b1efe40c7f3c80e,,,,,,,,,,,,
"[""comma""]",0,[0.04979999999699203],93,0,93,0,1,5e8cad3983d0c80526afc101,Mężczyzna,18,2021-07-13_20h57.59.735,rantool2,2021.1.4,Win32,74.81669909,5e8cad3983d0c80526afc101,60d9d14f4a8a35a482e0d9bf,60ede2186b1efe40c7f3c80e,,,,,,,,,,,,
"[""period"",""comma""]",0,"[0.009899999998538078,1.9342000000029884]",94,0,94,0,1,5e8cad3983d0c80526afc101,Mężczyzna,18,2021-07-13_20h57.59.735,rantool2,2021.1.4,Win32,74.81669909,5e8cad3983d0c80526afc101,60d9d14f4a8a35a482e0d9bf,60ede2186b1efe40c7f3c80e,,,,,,,,,,,,
0,0,,95,0,95,0,1,5e8cad3983d0c80526afc101,Mężczyzna,18,2021-07-13_20h57.59.735,rantool2,2021.1.4,Win32,74.81669909,5e8cad3983d0c80526afc101,60d9d14f4a8a35a482e0d9bf,60ede2186b1efe40c7f3c80e,,,,,,,,,,,,
"[""period""]",0,[0.2386000000014974],96,0,96,0,1,5e8cad3983d0c80526afc101,Mężczyzna,18,2021-07-13_20h57.59.735,rantool2,2021.1.4,Win32,74.81669909,5e8cad3983d0c80526afc101,60d9d14f4a8a35a482e0d9bf,60ede2186b1efe40c7f3c80e,,,,,,,,,,,,
"[""comma"",""comma"",""comma"",""comma"",""comma"",""period""]",0,"[0.2763999999985458,0.7040999999940709,1.13809999999404,1.3200999999940564,1.469199999995567,1.577199999995571]",97,0,97,0,1,5e8cad3983d0c80526afc101,Mężczyzna,18,2021-07-13_20h57.59.735,rantool2,2021.1.4,Win32,74.81669909,5e8cad3983d0c80526afc101,60d9d14f4a8a35a482e0d9bf,60ede2186b1efe40c7f3c80e,,,,,,,,,,,,
"[""period"",""comma"",""period"",""comma"",""period"",""comma""]",0,"[1.2845000000000368,1.399300000004473,1.4733999999985485,1.5645000000000095,1.63250000000005,1.718500000000006]",98,0,98,0,1,5e8cad3983d0c80526afc101,Mężczyzna,18,2021-07-13_20h57.59.735,rantool2,2021.1.4,Win32,74.81669909,5e8cad3983d0c80526afc101,60d9d14f4a8a35a482e0d9bf,60ede2186b1efe40c7f3c80e,,,,,,,,,,,,
0,0,,99,0,99,0,1,5e8cad3983d0c80526afc101,Mężczyzna,18,2021-07-13_20h57.59.735,rantool2,2021.1.4,Win32,74.81669909,5e8cad3983d0c80526afc101,60d9d14f4a8a35a482e0d9bf,60ede2186b1efe40c7f3c80e,,,,,,,,,,,,
0,0,,100,0,100,0,1,5e8cad3983d0c80526afc101,Mężczyzna,18,2021-07-13_20h57.59.735,rantool2,2021.1.4,Win32,74.81669909,5e8cad3983d0c80526afc101,60d9d14f4a8a35a482e0d9bf,60ede2186b1efe40c7f3c80e,,,,,,,,,,,,
0,0,,101,0,101,0,1,5e8cad3983d0c80526afc101,Mężczyzna,18,2021-07-13_20h57.59.735,rantool2,2021.1.4,Win32,74.81669909,5e8cad3983d0c80526afc101,60d9d14f4a8a35a482e0d9bf,60ede2186b1efe40c7f3c80e,,,,,,,,,,,,
0,0,,102,0,102,0,1,5e8cad3983d0c80526afc101,Mężczyzna,18,2021-07-13_20h57.59.735,rantool2,2021.1.4,Win32,74.81669909,5e8cad3983d0c80526afc101,60d9d14f4a8a35a482e0d9bf,60ede2186b1efe40c7f3c80e,,,,,,,,,,,,
0,0,,103,0,103,0,1,5e8cad3983d0c80526afc101,Mężczyzna,18,2021-07-13_20h57.59.735,rantool2,2021.1.4,Win32,74.81669909,5e8cad3983d0c80526afc101,60d9d14f4a8a35a482e0d9bf,60ede2186b1efe40c7f3c80e,,,,,,,,,,,,
0,0,,104,0,104,0,1,5e8cad3983d0c80526afc101,Mężczyzna,18,2021-07-13_20h57.59.735,rantool2,2021.1.4,Win32,74.81669909,5e8cad3983d0c80526afc101,60d9d14f4a8a35a482e0d9bf,60ede2186b1efe40c7f3c80e,,,,,,,,,,,,
0,0,,105,0,105,0,1,5e8cad3983d0c80526afc101,Mężczyzna,18,2021-07-13_20h57.59.735,rantool2,2021.1.4,Win32,74.81669909,5e8cad3983d0c80526afc101,60d9d14f4a8a35a482e0d9bf,60ede2186b1efe40c7f3c80e,,,,,,,,,,,,
"[""period""]",0,[0.277499999999975],106,0,106,0,1,5e8cad3983d0c80526afc101,Mężczyzna,18,2021-07-13_20h57.59.735,rantool2,2021.1.4,Win32,74.81669909,5e8cad3983d0c80526afc101,60d9d14f4a8a35a482e0d9bf,60ede2186b1efe40c7f3c80e,,,,,,,,,,,,
"[""comma""]",0,[0.3254999999999768],107,0,107,0,1,5e8cad3983d0c80526afc101,Mężczyzna,18,2021-07-13_20h57.59.735,rantool2,2021.1.4,Win32,74.81669909,5e8cad3983d0c80526afc101,60d9d14f4a8a35a482e0d9bf,60ede2186b1efe40c7f3c80e,,,,,,,,,,,,
"[""period"",""comma""]",0,"[0.24090000000592227,1.900100000001487]",108,0,108,0,1,5e8cad3983d0c80526afc101,Mężczyzna,18,2021-07-13_20h57.59.735,rantool2,2021.1.4,Win32,74.81669909,5e8cad3983d0c80526afc101,60d9d14f4a8a35a482e0d9bf,60ede2186b1efe40c7f3c80e,,,,,,,,,,,,
0,0,,109,0,109,0,1,5e8cad3983d0c80526afc101,Mężczyzna,18,2021-07-13_20h57.59.735,rantool2,2021.1.4,Win32,74.81669909,5e8cad3983d0c80526afc101,60d9d14f4a8a35a482e0d9bf,60ede2186b1efe40c7f3c80e,,,,,,,,,,,,
"[""period""]",0,[0.32170000000297705],110,0,110,0,1,5e8cad3983d0c80526afc101,Mężczyzna,18,2021-07-13_20h57.59.735,rantool2,2021.1.4,Win32,74.81669909,5e8cad3983d0c80526afc101,60d9d14f4a8a35a482e0d9bf,60ede2186b1efe40c7f3c80e,,,,,,,,,,,,
"[""comma""]",0,[0.2586999999955424],111,0,111,0,1,5e8cad3983d0c80526afc101,Mężczyzna,18,2021-07-13_20h57.59.735,rantool2,2021.1.4,Win32,74.81669909,5e8cad3983d0c80526afc101,60d9d14f4a8a35a482e0d9bf,60ede2186b1efe40c7f3c80e,,,,,,,,,,,,
"[""period""]",0,[0.014999999999986358],112,0,112,0,1,5e8cad3983d0c80526afc101,Mężczyzna,18,2021-07-13_20h57.59.735,rantool2,2021.1.4,Win32,74.81669909,5e8cad3983d0c80526afc101,60d9d14f4a8a35a482e0d9bf,60ede2186b1efe40c7f3c80e,,,,,,,,,,,,
"[""comma""]",0,[0.20499999999998408],113,0,113,0,1,5e8cad3983d0c80526afc101,Mężczyzna,18,2021-07-13_20h57.59.735,rantool2,2021.1.4,Win32,74.81669909,5e8cad3983d0c80526afc101,60d9d14f4a8a35a482e0d9bf,60ede2186b1efe40c7f3c80e,,,,,,,,,,,,
"[""period""]",0,[0.09329999999698657],114,0,114,0,1,5e8cad3983d0c80526afc101,Mężczyzna,18,2021-07-13_20h57.59.735,rantool2,2021.1.4,Win32,74.81669909,5e8cad3983d0c80526afc101,60d9d14f4a8a35a482e0d9bf,60ede2186b1efe40c7f3c80e,,,,,,,,,,,,
"[""comma""]",0,[0.25060000000149785],115,0,115,0,1,5e8cad3983d0c80526afc101,Mężczyzna,18,2021-07-13_20h57.59.735,rantool2,2021.1.4,Win32,74.81669909,5e8cad3983d0c80526afc101,60d9d14f4a8a35a482e0d9bf,60ede2186b1efe40c7f3c80e,,,,,,,,,,,,
"[""period""]",0,[0.5688999999985072],116,0,116,0,1,5e8cad3983d0c80526afc101,Mężczyzna,18,2021-07-13_20h57.59.735,rantool2,2021.1.4,Win32,74.81669909,5e8cad3983d0c80526afc101,60d9d14f4a8a35a482e0d9bf,60ede2186b1efe40c7f3c80e,,,,,,,,,,,,
"[""comma""]",0,[0.3919000000059327],117,0,117,0,1,5e8cad3983d0c80526afc101,Mężczyzna,18,2021-07-13_20h57.59.735,rantool2,2021.1.4,Win32,74.81669909,5e8cad3983d0c80526afc101,60d9d14f4a8a35a482e0d9bf,60ede2186b1efe40c7f3c80e,,,,,,,,,,,,
"[""period""]",0,[0.360399999998549],118,0,118,0,1,5e8cad3983d0c80526afc101,Mężczyzna,18,2021-07-13_20h57.59.735,rantool2,2021.1.4,Win32,74.81669909,5e8cad3983d0c80526afc101,60d9d14f4a8a35a482e0d9bf,60ede2186b1efe40c7f3c80e,,,,,,,,,,,,
"[""comma"",""comma""]",0,"[0.7686999999955333,0.9286999999955015]",119,0,119,0,1,5e8cad3983d0c80526afc101,Mężczyzna,18,2021-07-13_20h57.59.735,rantool2,2021.1.4,Win32,74.81669909,5e8cad3983d0c80526afc101,60d9d14f4a8a35a482e0d9bf,60ede2186b1efe40c7f3c80e,,,,,,,,,,,,
,,,,,,,,5e8cad3983d0c80526afc101,Mężczyzna,18,2021-07-13_20h57.59.735,rantool2,2021.1.4,Win32,74.81669909,5e8cad3983d0c80526afc101,60d9d14f4a8a35a482e0d9bf,60ede2186b1efe40c7f3c80e,f,4.1417,0,0,0,43,1,RORORRO,RORORRR,20.71309134,21.07490964,series_1
,,,,,,,,5e8cad3983d0c80526afc101,Mężczyzna,18,2021-07-13_20h57.59.735,rantool2,2021.1.4,Win32,74.81669909,5e8cad3983d0c80526afc101,60d9d14f4a8a35a482e0d9bf,60ede2186b1efe40c7f3c80e,j,2.6377,0,1,1,54,1,RRORROO,RRORROR,21.55250791,20.9984461,series_0
,,,,,,,,5e8cad3983d0c80526afc101,Mężczyzna,18,2021-07-13_20h57.59.735,rantool2,2021.1.4,Win32,74.81669909,5e8cad3983d0c80526afc101,60d9d14f4a8a35a482e0d9bf,60ede2186b1efe40c7f3c80e,j,1.2821,0,2,2,26,1,ORROROO,ORROROR,22.02732763,21.71443381,series_0
,,,,,,,,5e8cad3983d0c80526afc101,Mężczyzna,18,2021-07-13_20h57.59.735,rantool2,2021.1.4,Win32,74.81669909,5e8cad3983d0c80526afc101,60d9d14f4a8a35a482e0d9bf,60ede2186b1efe40c7f3c80e,j,1.7433,0,3,3,39,1,ROORRRO,ROORRRR,21.82425538,21.38562617,series_0
,,,,,,,,5e8cad3983d0c80526afc101,Mężczyzna,18,2021-07-13_20h57.59.735,rantool2,2021.1.4,Win32,74.81669909,5e8cad3983d0c80526afc101,60d9d14f4a8a35a482e0d9bf,60ede2186b1efe40c7f3c80e,f,1.5438,0,4,4,10,1,OOROROO,OOROROR,21.31236711,21.07490964,series_0
,,,,,,,,5e8cad3983d0c80526afc101,Mężczyzna,18,2021-07-13_20h57.59.735,rantool2,2021.1.4,Win32,74.81669909,5e8cad3983d0c80526afc101,60d9d14f4a8a35a482e0d9bf,60ede2186b1efe40c7f3c80e,f,1.6675,0,5,5,32,1,ROOOOOO,ROOOOOR,19.92253567,21.27974287,series_1
,,,,,,,,5e8cad3983d0c80526afc101,Mężczyzna,18,2021-07-13_20h57.59.735,rantool2,2021.1.4,Win32,74.81669909,5e8cad3983d0c80526afc101,60d9d14f4a8a35a482e0d9bf,60ede2186b1efe40c7f3c80e,j,1.1806,0,6,6,45,1,RORRORO,RORRORR,20.78182524,21.22513037,series_1
,,,,,,,,5e8cad3983d0c80526afc101,Mężczyzna,18,2021-07-13_20h57.59.735,rantool2,2021.1.4,Win32,74.81669909,5e8cad3983d0c80526afc101,60d9d14f4a8a35a482e0d9bf,60ede2186b1efe40c7f3c80e,f,1.0016,0,7,7,46,1,RORRROO,RORRROR,22.00300695,21.24781509,series_0
,,,,,,,,5e8cad3983d0c80526afc101,Mężczyzna,18,2021-07-13_20h57.59.735,rantool2,2021.1.4,Win32,74.81669909,5e8cad3983d0c80526afc101,60d9d14f4a8a35a482e0d9bf,60ede2186b1efe40c7f3c80e,j,1.0511,0,8,8,5,1,OOORORO,OOORORR,20.87963819,21.9921709,series_1
,,,,,,,,5e8cad3983d0c80526afc101,Mężczyzna,18,2021-07-13_20h57.59.735,rantool2,2021.1.4,Win32,74.81669909,5e8cad3983d0c80526afc101,60d9d14f4a8a35a482e0d9bf,60ede2186b1efe40c7f3c80e,f,1.154,0,9,9,59,1,RRRORRO,RRRORRR,21.56657303,20.89823192,series_0
,,,,,,,,5e8cad3983d0c80526afc101,Mężczyzna,18,2021-07-13_20h57.59.735,rantool2,2021.1.4,Win32,74.81669909,5e8cad3983d0c80526afc101,60d9d14f4a8a35a482e0d9bf,60ede2186b1efe40c7f3c80e,f,1.2063,0,10,10,56,1,RRROOOO,RRROOOR,21.6194508,22.31681875,series_1
,,,,,,,,5e8cad3983d0c80526afc101,Mężczyzna,18,2021-07-13_20h57.59.735,rantool2,2021.1.4,Win32,74.81669909,5e8cad3983d0c80526afc101,60d9d14f4a8a35a482e0d9bf,60ede2186b1efe40c7f3c80e,j,1.1297,0,11,11,1,1,OOOOORO,OOOOORR,19.92253567,20.74050628,series_1
,,,,,,,,5e8cad3983d0c80526afc101,Mężczyzna,18,2021-07-13_20h57.59.735,rantool2,2021.1.4,Win32,74.81669909,5e8cad3983d0c80526afc101,60d9d14f4a8a35a482e0d9bf,60ede2186b1efe40c7f3c80e,j,0.7767,0,12,12,18,1,OROOROO,OROOROR,20.84860893,21.22513037,series_1
,,,,,,,,5e8cad3983d0c80526afc101,Mężczyzna,18,2021-07-13_20h57.59.735,rantool2,2021.1.4,Win32,74.81669909,5e8cad3983d0c80526afc101,60d9d14f4a8a35a482e0d9bf,60ede2186b1efe40c7f3c80e,j,0.3907,0,13,13,55,1,RRORRRO,RRORRRR,21.56657303,21.21223021,series_0
,,,,,,,,5e8cad3983d0c80526afc101,Mężczyzna,18,2021-07-13_20h57.59.735,rantool2,2021.1.4,Win32,74.81669909,5e8cad3983d0c80526afc101,60d9d14f4a8a35a482e0d9bf,60ede2186b1efe40c7f3c80e,j,0.3019,0,14,14,57,1,RRROORO,RRROORR,21.82425538,22.07102821,series_1
,,,,,,,,5e8cad3983d0c80526afc101,Mężczyzna,18,2021-07-13_20h57.59.735,rantool2,2021.1.4,Win32,74.81669909,5e8cad3983d0c80526afc101,60d9d14f4a8a35a482e0d9bf,60ede2186b1efe40c7f3c80e,j,0.2331,0,15,15,0,1,OOOOOOO,OOOOOOR,18.52739004,19.62521613,series_1
,,,,,,,,5e8cad3983d0c80526afc101,Mężczyzna,18,2021-07-13_20h57.59.735,rantool2,2021.1.4,Win32,74.81669909,5e8cad3983d0c80526afc101,60d9d14f4a8a35a482e0d9bf,60ede2186b1efe40c7f3c80e,j,0.1397,0,16,16,3,1,OOOORRO,OOOORRR,20.90986523,21.74922619,series_1
,,,,,,,,5e8cad3983d0c80526afc101,Mężczyzna,18,2021-07-13_20h57.59.735,rantool2,2021.1.4,Win32,74.81669909,5e8cad3983d0c80526afc101,60d9d14f4a8a35a482e0d9bf,60ede2186b1efe40c7f3c80e,j,0.1516,0,17,17,8,1,OOROOOO,OOROOOR,19.91402015,20.89823192,series_1
,,,,,,,,5e8cad3983d0c80526afc101,Mężczyzna,18,2021-07-13_20h57.59.735,rantool2,2021.1.4,Win32,74.81669909,5e8cad3983d0c80526afc101,60d9d14f4a8a35a482e0d9bf,60ede2186b1efe40c7f3c80e,j,0.1263,0,18,18,53,1,RRORORO,RRORORR,20.71309134,21.90565814,series_1
,,,,,,,,5e8cad3983d0c80526afc101,Mężczyzna,18,2021-07-13_20h57.59.735,rantool2,2021.1.4,Win32,74.81669909,5e8cad3983d0c80526afc101,60d9d14f4a8a35a482e0d9bf,60ede2186b1efe40c7f3c80e,f,0.1794,0,19,19,27,1,ORRORRO,ORRORRR,21.55250791,22.2428857,series_1
,,,,,,,,5e8cad3983d0c80526afc101,Mężczyzna,18,2021-07-13_20h57.59.735,rantool2,2021.1.4,Win32,74.81669909,5e8cad3983d0c80526afc101,60d9d14f4a8a35a482e0d9bf,60ede2186b1efe40c7f3c80e,f,1.6695,0,20,20,38,1,ROORROO,ROORROR,21.79500819,21.36812781,series_0
,,,,,,,,5e8cad3983d0c80526afc101,Mężczyzna,18,2021-07-13_20h57.59.735,rantool2,2021.1.4,Win32,74.81669909,5e8cad3983d0c80526afc101,60d9d14f4a8a35a482e0d9bf,60ede2186b1efe40c7f3c80e,f,1.1504,0,21,21,51,1,RROORRO,RROORRR,21.89852628,22.02786418,series_1
,,,,,,,,5e8cad3983d0c80526afc101,Mężczyzna,18,2021-07-13_20h57.59.735,rantool2,2021.1.4,Win32,74.81669909,5e8cad3983d0c80526afc101,60d9d14f4a8a35a482e0d9bf,60ede2186b1efe40c7f3c80e,j,1.1307,0,22,22,25,1,ORROORO,ORROORR,21.79500819,22.61624387,series_1
,,,,,,,,5e8cad3983d0c80526afc101,Mężczyzna,18,2021-07-13_20h57.59.735,rantool2,2021.1.4,Win32,74.81669909,5e8cad3983d0c80526afc101,60d9d14f4a8a35a482e0d9bf,60ede2186b1efe40c7f3c80e,f,1.1691,0,23,23,62,1,RRRRROO,RRRRROR,22.16413392,21.27974287,series_0
,,,,,,,,5e8cad3983d0c80526afc101,Mężczyzna,18,2021-07-13_20h57.59.735,rantool2,2021.1.4,Win32,74.81669909,5e8cad3983d0c80526afc101,60d9d14f4a8a35a482e0d9bf,60ede2186b1efe40c7f3c80e,f,1.1063,0,24,24,41,1,ROROORO,ROROORR,20.42602454,21.71443381,series_1
,,,,,,,,5e8cad3983d0c80526afc101,Mężczyzna,18,2021-07-13_20h57.59.735,rantool2,2021.1.4,Win32,74.81669909,5e8cad3983d0c80526afc101,60d9d14f4a8a35a482e0d9bf,60ede2186b1efe40c7f3c80e,f,0.8644,0,25,25,44,1,RORROOO,RORROOR,21.66733484,22.02566557,series_1
,,,,,,,,5e8cad3983d0c80526afc101,Mężczyzna,18,2021-07-13_20h57.59.735,rantool2,2021.1.4,Win32,74.81669909,5e8cad3983d0c80526afc101,60d9d14f4a8a35a482e0d9bf,60ede2186b1efe40c7f3c80e,j,0.7387,0,26,26,24,1,ORROOOO,ORROOOR,21.12383932,22.07102821,series_1
,,,,,,,,5e8cad3983d0c80526afc101,Mężczyzna,18,2021-07-13_20h57.59.735,rantool2,2021.1.4,Win32,74.81669909,5e8cad3983d0c80526afc101,60d9d14f4a8a35a482e0d9bf,60ede2186b1efe40c7f3c80e,f,0.777,0,27,27,47,1,RORRRRO,RORRRRR,21.81333602,21.02936224,series_0
,,,,,,,,5e8cad3983d0c80526afc101,Mężczyzna,18,2021-07-13_20h57.59.735,rantool2,2021.1.4,Win32,74.81669909,5e8cad3983d0c80526afc101,60d9d14f4a8a35a482e0d9bf,60ede2186b1efe40c7f3c80e,j,0.7697,0,28,28,37,1,ROORORO,ROORORR,20.42602454,21.57657071,series_1
,,,,,,,,5e8cad3983d0c80526afc101,Mężczyzna,18,2021-07-13_20h57.59.735,rantool2,2021.1.4,Win32,74.81669909,5e8cad3983d0c80526afc101,60d9d14f4a8a35a482e0d9bf,60ede2186b1efe40c7f3c80e,f,0.7708,0,29,29,11,1,OORORRO,OORORRR,22.18365867,22.6797523,series_1
,,,,,,,,5e8cad3983d0c80526afc101,Mężczyzna,18,2021-07-13_20h57.59.735,rantool2,2021.1.4,Win32,74.81669909,5e8cad3983d0c80526afc101,60d9d14f4a8a35a482e0d9bf,60ede2186b1efe40c7f3c80e,j,0.7428,0,30,30,23,1,ORORRRO,ORORRRR,22.1285618,21.9921709,series_0
,,,,,,,,5e8cad3983d0c80526afc101,Mężczyzna,18,2021-07-13_20h57.59.735,rantool2,2021.1.4,Win32,74.81669909,5e8cad3983d0c80526afc101,60d9d14f4a8a35a482e0d9bf,60ede2186b1efe40c7f3c80e,f,0.7204,0,31,31,4,1,OOOROOO,OOOROOR,19.91402015,21.21223021,series_1
,,,,,,,,5e8cad3983d0c80526afc101,Mężczyzna,18,2021-07-13_20h57.59.735,rantool2,2021.1.4,Win32,74.81669909,5e8cad3983d0c80526afc101,60d9d14f4a8a35a482e0d9bf,60ede2186b1efe40c7f3c80e,f,0.7495,0,32,32,16,1,OROOOOO,OROOOOR,20.43051175,21.17347734,series_1
,,,,,,,,5e8cad3983d0c80526afc101,Mężczyzna,18,2021-07-13_20h57.59.735,rantool2,2021.1.4,Win32,74.81669909,5e8cad3983d0c80526afc101,60d9d14f4a8a35a482e0d9bf,60ede2186b1efe40c7f3c80e,f,0.7971,0,33,33,50,1,RROOROO,RROOROR,21.73568164,22.02566557,series_1
,,,,,,,,5e8cad3983d0c80526afc101,Mężczyzna,18,2021-07-13_20h57.59.735,rantool2,2021.1.4,Win32,74.81669909,5e8cad3983d0c80526afc101,60d9d14f4a8a35a482e0d9bf,60ede2186b1efe40c7f3c80e,j,0.616,0,34,34,20,1,OROROOO,OROROOR,21.31236711,21.90565814,series_1
,,,,,,,,5e8cad3983d0c80526afc101,Mężczyzna,18,2021-07-13_20h57.59.735,rantool2,2021.1.4,Win32,74.81669909,5e8cad3983d0c80526afc101,60d9d14f4a8a35a482e0d9bf,60ede2186b1efe40c7f3c80e,j,1.3522,0,35,35,33,1,ROOOORO,ROOOORR,20.83779602,22.03072203,series_1
,,,,,,,,5e8cad3983d0c80526afc101,Mężczyzna,18,2021-07-13_20h57.59.735,rantool2,2021.1.4,Win32,74.81669909,5e8cad3983d0c80526afc101,60d9d14f4a8a35a482e0d9bf,60ede2186b1efe40c7f3c80e,j,0.7205,0,36,36,42,1,ROROROO,ROROROR,20.39515459,19.8361834,series_0
,,,,,,,,5e8cad3983d0c80526afc101,Mężczyzna,18,2021-07-13_20h57.59.735,rantool2,2021.1.4,Win32,74.81669909,5e8cad3983d0c80526afc101,60d9d14f4a8a35a482e0d9bf,60ede2186b1efe40c7f3c80e,j,0.3644,0,37,37,31,1,ORRRRRO,ORRRRRR,22.16413392,20.74050628,series_0
,,,,,,,,5e8cad3983d0c80526afc101,Mężczyzna,18,2021-07-13_20h57.59.735,rantool2,2021.1.4,Win32,74.81669909,5e8cad3983d0c80526afc101,60d9d14f4a8a35a482e0d9bf,60ede2186b1efe40c7f3c80e,j,0.3284,0,38,38,22,1,ORORROO,ORORROR,22.02732763,21.57657071,series_0
,,,,,,,,5e8cad3983d0c80526afc101,Mężczyzna,18,2021-07-13_20h57.59.735,rantool2,2021.1.4,Win32,74.81669909,5e8cad3983d0c80526afc101,60d9d14f4a8a35a482e0d9bf,60ede2186b1efe40c7f3c80e,j,0.2987,0,39,39,19,1,OROORRO,OROORRR,21.73568164,22.11181017,series_1
,,,,,,,,5e8cad3983d0c80526afc101,Mężczyzna,18,2021-07-13_20h57.59.735,rantool2,2021.1.4,Win32,74.81669909,5e8cad3983d0c80526afc101,60d9d14f4a8a35a482e0d9bf,60ede2186b1efe40c7f3c80e,f,0.3353,0,40,40,58,1,RRROROO,RRROROR,22.1285618,21.37121559,series_0
,,,,,,,,5e8cad3983d0c80526afc101,Mężczyzna,18,2021-07-13_20h57.59.735,rantool2,2021.1.4,Win32,74.81669909,5e8cad3983d0c80526afc101,60d9d14f4a8a35a482e0d9bf,60ede2186b1efe40c7f3c80e,j,0.8806,0,41,41,12,1,OORROOO,OORROOR,21.30250474,22.02786418,series_1
,,,,,,,,5e8cad3983d0c80526afc101,Mężczyzna,18,2021-07-13_20h57.59.735,rantool2,2021.1.4,Win32,74.81669909,5e8cad3983d0c80526afc101,60d9d14f4a8a35a482e0d9bf,60ede2186b1efe40c7f3c80e,f,1.0372,0,42,42,60,1,RRRROOO,RRRROOR,22.10108823,22.15934078,series_1
,,,,,,,,5e8cad3983d0c80526afc101,Mężczyzna,18,2021-07-13_20h57.59.735,rantool2,2021.1.4,Win32,74.81669909,5e8cad3983d0c80526afc101,60d9d14f4a8a35a482e0d9bf,60ede2186b1efe40c7f3c80e,j,0.7258,0,43,43,49,1,RROOORO,RROOORR,21.76276513,22.53364006,series_1
,,,,,,,,5e8cad3983d0c80526afc101,Mężczyzna,18,2021-07-13_20h57.59.735,rantool2,2021.1.4,Win32,74.81669909,5e8cad3983d0c80526afc101,60d9d14f4a8a35a482e0d9bf,60ede2186b1efe40c7f3c80e,f,0.6815,0,44,44,52,1,RROROOO,RROROOR,22.18365867,22.11097995,series_0
,,,,,,,,5e8cad3983d0c80526afc101,Mężczyzna,18,2021-07-13_20h57.59.735,rantool2,2021.1.4,Win32,74.81669909,5e8cad3983d0c80526afc101,60d9d14f4a8a35a482e0d9bf,60ede2186b1efe40c7f3c80e,j,0.7279,0,45,45,17,1,OROOORO,OROOORR,21.03750787,22.12173012,series_1
,,,,,,,,5e8cad3983d0c80526afc101,Mężczyzna,18,2021-07-13_20h57.59.735,rantool2,2021.1.4,Win32,74.81669909,5e8cad3983d0c80526afc101,60d9d14f4a8a35a482e0d9bf,60ede2186b1efe40c7f3c80e,f,0.6199,0,46,46,9,1,OOROORO,OOROORR,21.07991943,22.2428857,series_1
,,,,,,,,5e8cad3983d0c80526afc101,Mężczyzna,18,2021-07-13_20h57.59.735,rantool2,2021.1.4,Win32,74.81669909,5e8cad3983d0c80526afc101,60d9d14f4a8a35a482e0d9bf,60ede2186b1efe40c7f3c80e,f,0.6005,0,47,47,2,1,OOOOROO,OOOOROR,20.43051175,21.02936224,series_1
,,,,,,,,5e8cad3983d0c80526afc101,Mężczyzna,18,2021-07-13_20h57.59.735,rantool2,2021.1.4,Win32,74.81669909,5e8cad3983d0c80526afc101,60d9d14f4a8a35a482e0d9bf,60ede2186b1efe40c7f3c80e,j,0.6439,0,48,48,34,1,ROOOROO,ROOOROR,21.03750787,21.24781509,series_1
,,,,,,,,5e8cad3983d0c80526afc101,Mężczyzna,18,2021-07-13_20h57.59.735,rantool2,2021.1.4,Win32,74.81669909,5e8cad3983d0c80526afc101,60d9d14f4a8a35a482e0d9bf,60ede2186b1efe40c7f3c80e,j,0.7018,0,49,49,30,1,ORRRROO,ORRRROR,22.46748491,22.03072203,series_0
,,,,,,,,5e8cad3983d0c80526afc101,Mężczyzna,18,2021-07-13_20h57.59.735,rantool2,2021.1.4,Win32,74.81669909,5e8cad3983d0c80526afc101,60d9d14f4a8a35a482e0d9bf,60ede2186b1efe40c7f3c80e,f,0.6032,0,50,50,48,1,RROOOOO,RROOOOR,20.90986523,22.15934078,series_1
,,,,,,,,5e8cad3983d0c80526afc101,Mężczyzna,18,2021-07-13_20h57.59.735,rantool2,2021.1.4,Win32,74.81669909,5e8cad3983d0c80526afc101,60d9d14f4a8a35a482e0d9bf,60ede2186b1efe40c7f3c80e,j,0.4156,0,51,51,40,1,ROROOOO,ROROOOR,20.87963819,21.37121559,series_1
,,,,,,,,5e8cad3983d0c80526afc101,Mężczyzna,18,2021-07-13_20h57.59.735,rantool2,2021.1.4,Win32,74.81669909,5e8cad3983d0c80526afc101,60d9d14f4a8a35a482e0d9bf,60ede2186b1efe40c7f3c80e,j,0.6005,0,52,52,6,1,OOORROO,OOORROR,21.12383932,21.38562617,series_1
,,,,,,,,5e8cad3983d0c80526afc101,Mężczyzna,18,2021-07-13_20h57.59.735,rantool2,2021.1.4,Win32,74.81669909,5e8cad3983d0c80526afc101,60d9d14f4a8a35a482e0d9bf,60ede2186b1efe40c7f3c80e,j,0.1767,0,53,53,28,1,ORRROOO,ORRROOR,22.24142883,22.53364006,series_1
,,,,,,,,5e8cad3983d0c80526afc101,Mężczyzna,18,2021-07-13_20h57.59.735,rantool2,2021.1.4,Win32,74.81669909,5e8cad3983d0c80526afc101,60d9d14f4a8a35a482e0d9bf,60ede2186b1efe40c7f3c80e,j,0.1633,0,54,54,61,1,RRRRORO,RRRRORR,21.81333602,21.17347734,series_0
,,,,,,,,5e8cad3983d0c80526afc101,Mężczyzna,18,2021-07-13_20h57.59.735,rantool2,2021.1.4,Win32,74.81669909,5e8cad3983d0c80526afc101,60d9d14f4a8a35a482e0d9bf,60ede2186b1efe40c7f3c80e,f,0.5268,0,55,55,36,1,ROOROOO,ROOROOR,21.07991943,20.9984461,series_0
,,,,,,,,5e8cad3983d0c80526afc101,Mężczyzna,18,2021-07-13_20h57.59.735,rantool2,2021.1.4,Win32,74.81669909,5e8cad3983d0c80526afc101,60d9d14f4a8a35a482e0d9bf,60ede2186b1efe40c7f3c80e,f,0.4819,0,56,56,7,1,OOORRRO,OOORRRR,21.6194508,21.899017,series_1
,,,,,,,,5e8cad3983d0c80526afc101,Mężczyzna,18,2021-07-13_20h57.59.735,rantool2,2021.1.4,Win32,74.81669909,5e8cad3983d0c80526afc101,60d9d14f4a8a35a482e0d9bf,60ede2186b1efe40c7f3c80e,j,0.7232,0,57,57,15,1,OORRRRO,OORRRRR,22.10108823,21.74922619,series_0
,,,,,,,,5e8cad3983d0c80526afc101,Mężczyzna,18,2021-07-13_20h57.59.735,rantool2,2021.1.4,Win32,74.81669909,5e8cad3983d0c80526afc101,60d9d14f4a8a35a482e0d9bf,60ede2186b1efe40c7f3c80e,f,0.6567,0,58,58,21,1,ORORORO,ORORORR,20.39515459,22.06781359,series_1
,,,,,,,,5e8cad3983d0c80526afc101,Mężczyzna,18,2021-07-13_20h57.59.735,rantool2,2021.1.4,Win32,74.81669909,5e8cad3983d0c80526afc101,60d9d14f4a8a35a482e0d9bf,60ede2186b1efe40c7f3c80e,j,0.54,0,59,59,35,1,ROOORRO,ROOORRR,21.76276513,22.16977179,series_1
,,,,,,,,5e8cad3983d0c80526afc101,Mężczyzna,18,2021-07-13_20h57.59.735,rantool2,2021.1.4,Win32,74.81669909,5e8cad3983d0c80526afc101,60d9d14f4a8a35a482e0d9bf,60ede2186b1efe40c7f3c80e,f,0.4165,0,60,60,13,1,OORRORO,OORRORR,21.66733484,22.11181017,series_1
,,,,,,,,5e8cad3983d0c80526afc101,Mężczyzna,18,2021-07-13_20h57.59.735,rantool2,2021.1.4,Win32,74.81669909,5e8cad3983d0c80526afc101,60d9d14f4a8a35a482e0d9bf,60ede2186b1efe40c7f3c80e,f,0.4874,0,61,61,29,1,ORRRORO,ORRRORR,22.00300695,22.12173012,series_1
,,,,,,,,5e8cad3983d0c80526afc101,Mężczyzna,18,2021-07-13_20h57.59.735,rantool2,2021.1.4,Win32,74.81669909,5e8cad3983d0c80526afc101,60d9d14f4a8a35a482e0d9bf,60ede2186b1efe40c7f3c80e,f,0.467,0,62,62,63,1,RRRRRRO,RRRRRRR,21.35278725,19.62521613,series_0
,,,,,,,,5e8cad3983d0c80526afc101,Mężczyzna,18,2021-07-13_20h57.59.735,rantool2,2021.1.4,Win32,74.81669909,5e8cad3983d0c80526afc101,60d9d14f4a8a35a482e0d9bf,60ede2186b1efe40c7f3c80e,f,0.966,0,63,63,14,1,OORRROO,OORRROR,22.24142883,22.16977179,series_0
