key_resp_7.keys,key_resp_7.rt,trials_2.thisRepN,trials_2.thisTrialN,trials_2.thisN,trials_2.thisIndex,trials_2.ran,id,series_0,series_1,acss_0,acss_1,comparison,id*,Płeć*,Wiek*,date,expName,psychopyVersion,OS,frameRate,STUDY_ID,SESSION_ID,key_resp_5.keys,key_resp_5.corr,key_resp_5.rt,trials.thisRepN,trials.thisTrialN,trials.thisN,trials.thisIndex,trials.ran
j,2.4728,0,0,0,26,1,5ece5c9337ddf22014ae19a1,ORROROO,ORROROR,22.02732763,21.71443381,series_0,5ece5c9337ddf22014ae19a1,Mężczyzna,21,2021-09-06_18h26.31.878,rantool2,2021.1.4,Win32,60.05645307,6135e006383e6ea6c3d06a28,613640d3159f4bfbb6812000,,,,,,,,
f,1.8987,0,1,1,59,1,5ece5c9337ddf22014ae19a1,RRRORRO,RRRORRR,21.56657303,20.89823192,series_0,5ece5c9337ddf22014ae19a1,Mężczyzna,21,2021-09-06_18h26.31.878,rantool2,2021.1.4,Win32,60.05645307,6135e006383e6ea6c3d06a28,613640d3159f4bfbb6812000,,,,,,,,
j,2.2934,0,2,2,36,1,5ece5c9337ddf22014ae19a1,ROOROOO,ROOROOR,21.07991943,20.9984461,series_0,5ece5c9337ddf22014ae19a1,Mężczyzna,21,2021-09-06_18h26.31.878,rantool2,2021.1.4,Win32,60.05645307,6135e006383e6ea6c3d06a28,613640d3159f4bfbb6812000,,,,,,,,
f,2.0162,0,3,3,32,1,5ece5c9337ddf22014ae19a1,ROOOOOO,ROOOOOR,19.92253567,21.27974287,series_1,5ece5c9337ddf22014ae19a1,Mężczyzna,21,2021-09-06_18h26.31.878,rantool2,2021.1.4,Win32,60.05645307,6135e006383e6ea6c3d06a28,613640d3159f4bfbb6812000,,,,,,,,
j,2.0029,0,4,4,3,1,5ece5c9337ddf22014ae19a1,OOOORRO,OOOORRR,20.90986523,21.74922619,series_1,5ece5c9337ddf22014ae19a1,Mężczyzna,21,2021-09-06_18h26.31.878,rantool2,2021.1.4,Win32,60.05645307,6135e006383e6ea6c3d06a28,613640d3159f4bfbb6812000,,,,,,,,
f,2.085,0,5,5,34,1,5ece5c9337ddf22014ae19a1,ROOOROO,ROOOROR,21.03750787,21.24781509,series_1,5ece5c9337ddf22014ae19a1,Mężczyzna,21,2021-09-06_18h26.31.878,rantool2,2021.1.4,Win32,60.05645307,6135e006383e6ea6c3d06a28,613640d3159f4bfbb6812000,,,,,,,,
j,1.975,0,6,6,60,1,5ece5c9337ddf22014ae19a1,RRRROOO,RRRROOR,22.10108823,22.15934078,series_1,5ece5c9337ddf22014ae19a1,Mężczyzna,21,2021-09-06_18h26.31.878,rantool2,2021.1.4,Win32,60.05645307,6135e006383e6ea6c3d06a28,613640d3159f4bfbb6812000,,,,,,,,
f,1.8318,0,7,7,55,1,5ece5c9337ddf22014ae19a1,RRORRRO,RRORRRR,21.56657303,21.21223021,series_0,5ece5c9337ddf22014ae19a1,Mężczyzna,21,2021-09-06_18h26.31.878,rantool2,2021.1.4,Win32,60.05645307,6135e006383e6ea6c3d06a28,613640d3159f4bfbb6812000,,,,,,,,
j,1.6248,0,8,8,48,1,5ece5c9337ddf22014ae19a1,RROOOOO,RROOOOR,20.90986523,22.15934078,series_1,5ece5c9337ddf22014ae19a1,Mężczyzna,21,2021-09-06_18h26.31.878,rantool2,2021.1.4,Win32,60.05645307,6135e006383e6ea6c3d06a28,613640d3159f4bfbb6812000,,,,,,,,
f,1.6573,0,9,9,19,1,5ece5c9337ddf22014ae19a1,OROORRO,OROORRR,21.73568164,22.11181017,series_1,5ece5c9337ddf22014ae19a1,Mężczyzna,21,2021-09-06_18h26.31.878,rantool2,2021.1.4,Win32,60.05645307,6135e006383e6ea6c3d06a28,613640d3159f4bfbb6812000,,,,,,,,
j,1.7308,0,10,10,50,1,5ece5c9337ddf22014ae19a1,RROOROO,RROOROR,21.73568164,22.02566557,series_1,5ece5c9337ddf22014ae19a1,Mężczyzna,21,2021-09-06_18h26.31.878,rantool2,2021.1.4,Win32,60.05645307,6135e006383e6ea6c3d06a28,613640d3159f4bfbb6812000,,,,,,,,
f,2.6527,0,11,11,62,1,5ece5c9337ddf22014ae19a1,RRRRROO,RRRRROR,22.16413392,21.27974287,series_0,5ece5c9337ddf22014ae19a1,Mężczyzna,21,2021-09-06_18h26.31.878,rantool2,2021.1.4,Win32,60.05645307,6135e006383e6ea6c3d06a28,613640d3159f4bfbb6812000,,,,,,,,
j,1.9313,0,12,12,8,1,5ece5c9337ddf22014ae19a1,OOROOOO,OOROOOR,19.91402015,20.89823192,series_1,5ece5c9337ddf22014ae19a1,Mężczyzna,21,2021-09-06_18h26.31.878,rantool2,2021.1.4,Win32,60.05645307,6135e006383e6ea6c3d06a28,613640d3159f4bfbb6812000,,,,,,,,
f,1.2873,0,13,13,20,1,5ece5c9337ddf22014ae19a1,OROROOO,OROROOR,21.31236711,21.90565814,series_1,5ece5c9337ddf22014ae19a1,Mężczyzna,21,2021-09-06_18h26.31.878,rantool2,2021.1.4,Win32,60.05645307,6135e006383e6ea6c3d06a28,613640d3159f4bfbb6812000,,,,,,,,
j,1.1839,0,14,14,12,1,5ece5c9337ddf22014ae19a1,OORROOO,OORROOR,21.30250474,22.02786418,series_1,5ece5c9337ddf22014ae19a1,Mężczyzna,21,2021-09-06_18h26.31.878,rantool2,2021.1.4,Win32,60.05645307,6135e006383e6ea6c3d06a28,613640d3159f4bfbb6812000,,,,,,,,
f,1.3305,0,15,15,15,1,5ece5c9337ddf22014ae19a1,OORRRRO,OORRRRR,22.10108823,21.74922619,series_0,5ece5c9337ddf22014ae19a1,Mężczyzna,21,2021-09-06_18h26.31.878,rantool2,2021.1.4,Win32,60.05645307,6135e006383e6ea6c3d06a28,613640d3159f4bfbb6812000,,,,,,,,
f,1.1023,0,16,16,28,1,5ece5c9337ddf22014ae19a1,ORRROOO,ORRROOR,22.24142883,22.53364006,series_1,5ece5c9337ddf22014ae19a1,Mężczyzna,21,2021-09-06_18h26.31.878,rantool2,2021.1.4,Win32,60.05645307,6135e006383e6ea6c3d06a28,613640d3159f4bfbb6812000,,,,,,,,
j,1.6988,0,17,17,9,1,5ece5c9337ddf22014ae19a1,OOROORO,OOROORR,21.07991943,22.2428857,series_1,5ece5c9337ddf22014ae19a1,Mężczyzna,21,2021-09-06_18h26.31.878,rantool2,2021.1.4,Win32,60.05645307,6135e006383e6ea6c3d06a28,613640d3159f4bfbb6812000,,,,,,,,
f,1.4338,0,18,18,17,1,5ece5c9337ddf22014ae19a1,OROOORO,OROOORR,21.03750787,22.12173012,series_1,5ece5c9337ddf22014ae19a1,Mężczyzna,21,2021-09-06_18h26.31.878,rantool2,2021.1.4,Win32,60.05645307,6135e006383e6ea6c3d06a28,613640d3159f4bfbb6812000,,,,,,,,
j,1.141,0,19,19,21,1,5ece5c9337ddf22014ae19a1,ORORORO,ORORORR,20.39515459,22.06781359,series_1,5ece5c9337ddf22014ae19a1,Mężczyzna,21,2021-09-06_18h26.31.878,rantool2,2021.1.4,Win32,60.05645307,6135e006383e6ea6c3d06a28,613640d3159f4bfbb6812000,,,,,,,,
j,1.2845,0,20,20,39,1,5ece5c9337ddf22014ae19a1,ROORRRO,ROORRRR,21.82425538,21.38562617,series_0,5ece5c9337ddf22014ae19a1,Mężczyzna,21,2021-09-06_18h26.31.878,rantool2,2021.1.4,Win32,60.05645307,6135e006383e6ea6c3d06a28,613640d3159f4bfbb6812000,,,,,,,,
j,1.3175,0,21,21,29,1,5ece5c9337ddf22014ae19a1,ORRRORO,ORRRORR,22.00300695,22.12173012,series_1,5ece5c9337ddf22014ae19a1,Mężczyzna,21,2021-09-06_18h26.31.878,rantool2,2021.1.4,Win32,60.05645307,6135e006383e6ea6c3d06a28,613640d3159f4bfbb6812000,,,,,,,,
f,1.417,0,22,22,27,1,5ece5c9337ddf22014ae19a1,ORRORRO,ORRORRR,21.55250791,22.2428857,series_1,5ece5c9337ddf22014ae19a1,Mężczyzna,21,2021-09-06_18h26.31.878,rantool2,2021.1.4,Win32,60.05645307,6135e006383e6ea6c3d06a28,613640d3159f4bfbb6812000,,,,,,,,
f,1.7671,0,23,23,54,1,5ece5c9337ddf22014ae19a1,RRORROO,RRORROR,21.55250791,20.9984461,series_0,5ece5c9337ddf22014ae19a1,Mężczyzna,21,2021-09-06_18h26.31.878,rantool2,2021.1.4,Win32,60.05645307,6135e006383e6ea6c3d06a28,613640d3159f4bfbb6812000,,,,,,,,
j,0.8084,0,24,24,22,1,5ece5c9337ddf22014ae19a1,ORORROO,ORORROR,22.02732763,21.57657071,series_0,5ece5c9337ddf22014ae19a1,Mężczyzna,21,2021-09-06_18h26.31.878,rantool2,2021.1.4,Win32,60.05645307,6135e006383e6ea6c3d06a28,613640d3159f4bfbb6812000,,,,,,,,
j,1.7687,0,25,25,25,1,5ece5c9337ddf22014ae19a1,ORROORO,ORROORR,21.79500819,22.61624387,series_1,5ece5c9337ddf22014ae19a1,Mężczyzna,21,2021-09-06_18h26.31.878,rantool2,2021.1.4,Win32,60.05645307,6135e006383e6ea6c3d06a28,613640d3159f4bfbb6812000,,,,,,,,
j,1.8351,0,26,26,49,1,5ece5c9337ddf22014ae19a1,RROOORO,RROOORR,21.76276513,22.53364006,series_1,5ece5c9337ddf22014ae19a1,Mężczyzna,21,2021-09-06_18h26.31.878,rantool2,2021.1.4,Win32,60.05645307,6135e006383e6ea6c3d06a28,613640d3159f4bfbb6812000,,,,,,,,
f,1.3351,0,27,27,16,1,5ece5c9337ddf22014ae19a1,OROOOOO,OROOOOR,20.43051175,21.17347734,series_1,5ece5c9337ddf22014ae19a1,Mężczyzna,21,2021-09-06_18h26.31.878,rantool2,2021.1.4,Win32,60.05645307,6135e006383e6ea6c3d06a28,613640d3159f4bfbb6812000,,,,,,,,
j,1.3057,0,28,28,43,1,5ece5c9337ddf22014ae19a1,RORORRO,RORORRR,20.71309134,21.07490964,series_1,5ece5c9337ddf22014ae19a1,Mężczyzna,21,2021-09-06_18h26.31.878,rantool2,2021.1.4,Win32,60.05645307,6135e006383e6ea6c3d06a28,613640d3159f4bfbb6812000,,,,,,,,
f,2.122,0,29,29,61,1,5ece5c9337ddf22014ae19a1,RRRRORO,RRRRORR,21.81333602,21.17347734,series_0,5ece5c9337ddf22014ae19a1,Mężczyzna,21,2021-09-06_18h26.31.878,rantool2,2021.1.4,Win32,60.05645307,6135e006383e6ea6c3d06a28,613640d3159f4bfbb6812000,,,,,,,,
f,1.2534,0,30,30,41,1,5ece5c9337ddf22014ae19a1,ROROORO,ROROORR,20.42602454,21.71443381,series_1,5ece5c9337ddf22014ae19a1,Mężczyzna,21,2021-09-06_18h26.31.878,rantool2,2021.1.4,Win32,60.05645307,6135e006383e6ea6c3d06a28,613640d3159f4bfbb6812000,,,,,,,,
j,1.3187,0,31,31,5,1,5ece5c9337ddf22014ae19a1,OOORORO,OOORORR,20.87963819,21.9921709,series_1,5ece5c9337ddf22014ae19a1,Mężczyzna,21,2021-09-06_18h26.31.878,rantool2,2021.1.4,Win32,60.05645307,6135e006383e6ea6c3d06a28,613640d3159f4bfbb6812000,,,,,,,,
j,1.2187,0,32,32,58,1,5ece5c9337ddf22014ae19a1,RRROROO,RRROROR,22.1285618,21.37121559,series_0,5ece5c9337ddf22014ae19a1,Mężczyzna,21,2021-09-06_18h26.31.878,rantool2,2021.1.4,Win32,60.05645307,6135e006383e6ea6c3d06a28,613640d3159f4bfbb6812000,,,,,,,,
f,1.3548,0,33,33,11,1,5ece5c9337ddf22014ae19a1,OORORRO,OORORRR,22.18365867,22.6797523,series_1,5ece5c9337ddf22014ae19a1,Mężczyzna,21,2021-09-06_18h26.31.878,rantool2,2021.1.4,Win32,60.05645307,6135e006383e6ea6c3d06a28,613640d3159f4bfbb6812000,,,,,,,,
j,1.0844,0,34,34,63,1,5ece5c9337ddf22014ae19a1,RRRRRRO,RRRRRRR,21.35278725,19.62521613,series_0,5ece5c9337ddf22014ae19a1,Mężczyzna,21,2021-09-06_18h26.31.878,rantool2,2021.1.4,Win32,60.05645307,6135e006383e6ea6c3d06a28,613640d3159f4bfbb6812000,,,,,,,,
f,1.2181,0,35,35,47,1,5ece5c9337ddf22014ae19a1,RORRRRO,RORRRRR,21.81333602,21.02936224,series_0,5ece5c9337ddf22014ae19a1,Mężczyzna,21,2021-09-06_18h26.31.878,rantool2,2021.1.4,Win32,60.05645307,6135e006383e6ea6c3d06a28,613640d3159f4bfbb6812000,,,,,,,,
j,1.0215,0,36,36,56,1,5ece5c9337ddf22014ae19a1,RRROOOO,RRROOOR,21.6194508,22.31681875,series_1,5ece5c9337ddf22014ae19a1,Mężczyzna,21,2021-09-06_18h26.31.878,rantool2,2021.1.4,Win32,60.05645307,6135e006383e6ea6c3d06a28,613640d3159f4bfbb6812000,,,,,,,,
f,1.4683,0,37,37,51,1,5ece5c9337ddf22014ae19a1,RROORRO,RROORRR,21.89852628,22.02786418,series_1,5ece5c9337ddf22014ae19a1,Mężczyzna,21,2021-09-06_18h26.31.878,rantool2,2021.1.4,Win32,60.05645307,6135e006383e6ea6c3d06a28,613640d3159f4bfbb6812000,,,,,,,,
f,1.3528,0,38,38,38,1,5ece5c9337ddf22014ae19a1,ROORROO,ROORROR,21.79500819,21.36812781,series_0,5ece5c9337ddf22014ae19a1,Mężczyzna,21,2021-09-06_18h26.31.878,rantool2,2021.1.4,Win32,60.05645307,6135e006383e6ea6c3d06a28,613640d3159f4bfbb6812000,,,,,,,,
f,2.284,0,39,39,13,1,5ece5c9337ddf22014ae19a1,OORRORO,OORRORR,21.66733484,22.11181017,series_1,5ece5c9337ddf22014ae19a1,Mężczyzna,21,2021-09-06_18h26.31.878,rantool2,2021.1.4,Win32,60.05645307,6135e006383e6ea6c3d06a28,613640d3159f4bfbb6812000,,,,,,,,
j,1.5181,0,40,40,24,1,5ece5c9337ddf22014ae19a1,ORROOOO,ORROOOR,21.12383932,22.07102821,series_1,5ece5c9337ddf22014ae19a1,Mężczyzna,21,2021-09-06_18h26.31.878,rantool2,2021.1.4,Win32,60.05645307,6135e006383e6ea6c3d06a28,613640d3159f4bfbb6812000,,,,,,,,
f,1.4518,0,41,41,45,1,5ece5c9337ddf22014ae19a1,RORRORO,RORRORR,20.78182524,21.22513037,series_1,5ece5c9337ddf22014ae19a1,Mężczyzna,21,2021-09-06_18h26.31.878,rantool2,2021.1.4,Win32,60.05645307,6135e006383e6ea6c3d06a28,613640d3159f4bfbb6812000,,,,,,,,
f,1.3335,0,42,42,33,1,5ece5c9337ddf22014ae19a1,ROOOORO,ROOOORR,20.83779602,22.03072203,series_1,5ece5c9337ddf22014ae19a1,Mężczyzna,21,2021-09-06_18h26.31.878,rantool2,2021.1.4,Win32,60.05645307,6135e006383e6ea6c3d06a28,613640d3159f4bfbb6812000,,,,,,,,
f,1.6193,0,43,43,57,1,5ece5c9337ddf22014ae19a1,RRROORO,RRROORR,21.82425538,22.07102821,series_1,5ece5c9337ddf22014ae19a1,Mężczyzna,21,2021-09-06_18h26.31.878,rantool2,2021.1.4,Win32,60.05645307,6135e006383e6ea6c3d06a28,613640d3159f4bfbb6812000,,,,,,,,
j,1.6174,0,44,44,14,1,5ece5c9337ddf22014ae19a1,OORRROO,OORRROR,22.24142883,22.16977179,series_0,5ece5c9337ddf22014ae19a1,Mężczyzna,21,2021-09-06_18h26.31.878,rantool2,2021.1.4,Win32,60.05645307,6135e006383e6ea6c3d06a28,613640d3159f4bfbb6812000,,,,,,,,
f,2.3335,0,45,45,44,1,5ece5c9337ddf22014ae19a1,RORROOO,RORROOR,21.66733484,22.02566557,series_1,5ece5c9337ddf22014ae19a1,Mężczyzna,21,2021-09-06_18h26.31.878,rantool2,2021.1.4,Win32,60.05645307,6135e006383e6ea6c3d06a28,613640d3159f4bfbb6812000,,,,,,,,
j,1.2021,0,46,46,40,1,5ece5c9337ddf22014ae19a1,ROROOOO,ROROOOR,20.87963819,21.37121559,series_1,5ece5c9337ddf22014ae19a1,Mężczyzna,21,2021-09-06_18h26.31.878,rantool2,2021.1.4,Win32,60.05645307,6135e006383e6ea6c3d06a28,613640d3159f4bfbb6812000,,,,,,,,
f,1.1339,0,47,47,31,1,5ece5c9337ddf22014ae19a1,ORRRRRO,ORRRRRR,22.16413392,20.74050628,series_0,5ece5c9337ddf22014ae19a1,Mężczyzna,21,2021-09-06_18h26.31.878,rantool2,2021.1.4,Win32,60.05645307,6135e006383e6ea6c3d06a28,613640d3159f4bfbb6812000,,,,,,,,
j,1.3344,0,48,48,4,1,5ece5c9337ddf22014ae19a1,OOOROOO,OOOROOR,19.91402015,21.21223021,series_1,5ece5c9337ddf22014ae19a1,Mężczyzna,21,2021-09-06_18h26.31.878,rantool2,2021.1.4,Win32,60.05645307,6135e006383e6ea6c3d06a28,613640d3159f4bfbb6812000,,,,,,,,
f,1.3525,0,49,49,42,1,5ece5c9337ddf22014ae19a1,ROROROO,ROROROR,20.39515459,19.8361834,series_0,5ece5c9337ddf22014ae19a1,Mężczyzna,21,2021-09-06_18h26.31.878,rantool2,2021.1.4,Win32,60.05645307,6135e006383e6ea6c3d06a28,613640d3159f4bfbb6812000,,,,,,,,
j,1.2001,0,50,50,35,1,5ece5c9337ddf22014ae19a1,ROOORRO,ROOORRR,21.76276513,22.16977179,series_1,5ece5c9337ddf22014ae19a1,Mężczyzna,21,2021-09-06_18h26.31.878,rantool2,2021.1.4,Win32,60.05645307,6135e006383e6ea6c3d06a28,613640d3159f4bfbb6812000,,,,,,,,
f,1.051,0,51,51,0,1,5ece5c9337ddf22014ae19a1,OOOOOOO,OOOOOOR,18.52739004,19.62521613,series_1,5ece5c9337ddf22014ae19a1,Mężczyzna,21,2021-09-06_18h26.31.878,rantool2,2021.1.4,Win32,60.05645307,6135e006383e6ea6c3d06a28,613640d3159f4bfbb6812000,,,,,,,,
j,2.2852,0,52,52,7,1,5ece5c9337ddf22014ae19a1,OOORRRO,OOORRRR,21.6194508,21.899017,series_1,5ece5c9337ddf22014ae19a1,Mężczyzna,21,2021-09-06_18h26.31.878,rantool2,2021.1.4,Win32,60.05645307,6135e006383e6ea6c3d06a28,613640d3159f4bfbb6812000,,,,,,,,
f,1.1837,0,53,53,2,1,5ece5c9337ddf22014ae19a1,OOOOROO,OOOOROR,20.43051175,21.02936224,series_1,5ece5c9337ddf22014ae19a1,Mężczyzna,21,2021-09-06_18h26.31.878,rantool2,2021.1.4,Win32,60.05645307,6135e006383e6ea6c3d06a28,613640d3159f4bfbb6812000,,,,,,,,
j,1.2008,0,54,54,6,1,5ece5c9337ddf22014ae19a1,OOORROO,OOORROR,21.12383932,21.38562617,series_1,5ece5c9337ddf22014ae19a1,Mężczyzna,21,2021-09-06_18h26.31.878,rantool2,2021.1.4,Win32,60.05645307,6135e006383e6ea6c3d06a28,613640d3159f4bfbb6812000,,,,,,,,
f,1.4343,0,55,55,53,1,5ece5c9337ddf22014ae19a1,RRORORO,RRORORR,20.71309134,21.90565814,series_1,5ece5c9337ddf22014ae19a1,Mężczyzna,21,2021-09-06_18h26.31.878,rantool2,2021.1.4,Win32,60.05645307,6135e006383e6ea6c3d06a28,613640d3159f4bfbb6812000,,,,,,,,
f,1.0019,0,56,56,1,1,5ece5c9337ddf22014ae19a1,OOOOORO,OOOOORR,19.92253567,20.74050628,series_1,5ece5c9337ddf22014ae19a1,Mężczyzna,21,2021-09-06_18h26.31.878,rantool2,2021.1.4,Win32,60.05645307,6135e006383e6ea6c3d06a28,613640d3159f4bfbb6812000,,,,,,,,
f,1.5359,0,57,57,23,1,5ece5c9337ddf22014ae19a1,ORORRRO,ORORRRR,22.1285618,21.9921709,series_0,5ece5c9337ddf22014ae19a1,Mężczyzna,21,2021-09-06_18h26.31.878,rantool2,2021.1.4,Win32,60.05645307,6135e006383e6ea6c3d06a28,613640d3159f4bfbb6812000,,,,,,,,
j,1.0191,0,58,58,46,1,5ece5c9337ddf22014ae19a1,RORRROO,RORRROR,22.00300695,21.24781509,series_0,5ece5c9337ddf22014ae19a1,Mężczyzna,21,2021-09-06_18h26.31.878,rantool2,2021.1.4,Win32,60.05645307,6135e006383e6ea6c3d06a28,613640d3159f4bfbb6812000,,,,,,,,
f,1.3513,0,59,59,52,1,5ece5c9337ddf22014ae19a1,RROROOO,RROROOR,22.18365867,22.11097995,series_0,5ece5c9337ddf22014ae19a1,Mężczyzna,21,2021-09-06_18h26.31.878,rantool2,2021.1.4,Win32,60.05645307,6135e006383e6ea6c3d06a28,613640d3159f4bfbb6812000,,,,,,,,
j,0.9514,0,60,60,10,1,5ece5c9337ddf22014ae19a1,OOROROO,OOROROR,21.31236711,21.07490964,series_0,5ece5c9337ddf22014ae19a1,Mężczyzna,21,2021-09-06_18h26.31.878,rantool2,2021.1.4,Win32,60.05645307,6135e006383e6ea6c3d06a28,613640d3159f4bfbb6812000,,,,,,,,
j,1.301,0,61,61,30,1,5ece5c9337ddf22014ae19a1,ORRRROO,ORRRROR,22.46748491,22.03072203,series_0,5ece5c9337ddf22014ae19a1,Mężczyzna,21,2021-09-06_18h26.31.878,rantool2,2021.1.4,Win32,60.05645307,6135e006383e6ea6c3d06a28,613640d3159f4bfbb6812000,,,,,,,,
j,1.4174,0,62,62,18,1,5ece5c9337ddf22014ae19a1,OROOROO,OROOROR,20.84860893,21.22513037,series_1,5ece5c9337ddf22014ae19a1,Mężczyzna,21,2021-09-06_18h26.31.878,rantool2,2021.1.4,Win32,60.05645307,6135e006383e6ea6c3d06a28,613640d3159f4bfbb6812000,,,,,,,,
j,1.2684,0,63,63,37,1,5ece5c9337ddf22014ae19a1,ROORORO,ROORORR,20.42602454,21.57657071,series_1,5ece5c9337ddf22014ae19a1,Mężczyzna,21,2021-09-06_18h26.31.878,rantool2,2021.1.4,Win32,60.05645307,6135e006383e6ea6c3d06a28,613640d3159f4bfbb6812000,,,,,,,,
,,,,,,,5ece5c9337ddf22014ae19a1,,,,,,5ece5c9337ddf22014ae19a1,Mężczyzna,21,2021-09-06_18h26.31.878,rantool2,2021.1.4,Win32,60.05645307,6135e006383e6ea6c3d06a28,613640d3159f4bfbb6812000,"[""comma""]",0,[0.5174999999999841],0,0,0,0,1
,,,,,,,5ece5c9337ddf22014ae19a1,,,,,,5ece5c9337ddf22014ae19a1,Mężczyzna,21,2021-09-06_18h26.31.878,rantool2,2021.1.4,Win32,60.05645307,6135e006383e6ea6c3d06a28,613640d3159f4bfbb6812000,"[""period""]",0,[0.48449999999999704],1,0,1,0,1
,,,,,,,5ece5c9337ddf22014ae19a1,,,,,,5ece5c9337ddf22014ae19a1,Mężczyzna,21,2021-09-06_18h26.31.878,rantool2,2021.1.4,Win32,60.05645307,6135e006383e6ea6c3d06a28,613640d3159f4bfbb6812000,"[""period""]",0,[0.2518999999761604],2,0,2,0,1
,,,,,,,5ece5c9337ddf22014ae19a1,,,,,,5ece5c9337ddf22014ae19a1,Mężczyzna,21,2021-09-06_18h26.31.878,rantool2,2021.1.4,Win32,60.05645307,6135e006383e6ea6c3d06a28,613640d3159f4bfbb6812000,"[""comma""]",0,[0.2353000000119323],3,0,3,0,1
,,,,,,,5ece5c9337ddf22014ae19a1,,,,,,5ece5c9337ddf22014ae19a1,Mężczyzna,21,2021-09-06_18h26.31.878,rantool2,2021.1.4,Win32,60.05645307,6135e006383e6ea6c3d06a28,613640d3159f4bfbb6812000,"[""period""]",0,[0.25],4,0,4,0,1
,,,,,,,5ece5c9337ddf22014ae19a1,,,,,,5ece5c9337ddf22014ae19a1,Mężczyzna,21,2021-09-06_18h26.31.878,rantool2,2021.1.4,Win32,60.05645307,6135e006383e6ea6c3d06a28,613640d3159f4bfbb6812000,"[""comma""]",0,[0.018699999988086802],5,0,5,0,1
,,,,,,,5ece5c9337ddf22014ae19a1,,,,,,5ece5c9337ddf22014ae19a1,Mężczyzna,21,2021-09-06_18h26.31.878,rantool2,2021.1.4,Win32,60.05645307,6135e006383e6ea6c3d06a28,613640d3159f4bfbb6812000,"[""comma""]",0,[0.22490000000595955],6,0,6,0,1
,,,,,,,5ece5c9337ddf22014ae19a1,,,,,,5ece5c9337ddf22014ae19a1,Mężczyzna,21,2021-09-06_18h26.31.878,rantool2,2021.1.4,Win32,60.05645307,6135e006383e6ea6c3d06a28,613640d3159f4bfbb6812000,"[""comma""]",0,[0.13479999998213543],7,0,7,0,1
,,,,,,,5ece5c9337ddf22014ae19a1,,,,,,5ece5c9337ddf22014ae19a1,Mężczyzna,21,2021-09-06_18h26.31.878,rantool2,2021.1.4,Win32,60.05645307,6135e006383e6ea6c3d06a28,613640d3159f4bfbb6812000,"[""period""]",0,[0.2861999999880993],8,0,8,0,1
,,,,,,,5ece5c9337ddf22014ae19a1,,,,,,5ece5c9337ddf22014ae19a1,Mężczyzna,21,2021-09-06_18h26.31.878,rantool2,2021.1.4,Win32,60.05645307,6135e006383e6ea6c3d06a28,613640d3159f4bfbb6812000,"[""comma""]",0,[0.06749999999999545],9,0,9,0,1
,,,,,,,5ece5c9337ddf22014ae19a1,,,,,,5ece5c9337ddf22014ae19a1,Mężczyzna,21,2021-09-06_18h26.31.878,rantool2,2021.1.4,Win32,60.05645307,6135e006383e6ea6c3d06a28,613640d3159f4bfbb6812000,"[""period""]",0,[-0.030000000000001137],10,0,10,0,1
,,,,,,,5ece5c9337ddf22014ae19a1,,,,,,5ece5c9337ddf22014ae19a1,Mężczyzna,21,2021-09-06_18h26.31.878,rantool2,2021.1.4,Win32,60.05645307,6135e006383e6ea6c3d06a28,613640d3159f4bfbb6812000,"[""period""]",0,[0.2343000000118991],11,0,11,0,1
,,,,,,,5ece5c9337ddf22014ae19a1,,,,,,5ece5c9337ddf22014ae19a1,Mężczyzna,21,2021-09-06_18h26.31.878,rantool2,2021.1.4,Win32,60.05645307,6135e006383e6ea6c3d06a28,613640d3159f4bfbb6812000,"[""comma""]",0,[0.1504000000059591],12,0,12,0,1
,,,,,,,5ece5c9337ddf22014ae19a1,,,,,,5ece5c9337ddf22014ae19a1,Mężczyzna,21,2021-09-06_18h26.31.878,rantool2,2021.1.4,Win32,60.05645307,6135e006383e6ea6c3d06a28,613640d3159f4bfbb6812000,"[""period""]",0,[0.21790000000595455],13,0,13,0,1
,,,,,,,5ece5c9337ddf22014ae19a1,,,,,,5ece5c9337ddf22014ae19a1,Mężczyzna,21,2021-09-06_18h26.31.878,rantool2,2021.1.4,Win32,60.05645307,6135e006383e6ea6c3d06a28,613640d3159f4bfbb6812000,"[""period"",""period""]",0,"[0.2507999999821209,1.9675000000000011]",14,0,14,0,1
,,,,,,,5ece5c9337ddf22014ae19a1,,,,,,5ece5c9337ddf22014ae19a1,Mężczyzna,21,2021-09-06_18h26.31.878,rantool2,2021.1.4,Win32,60.05645307,6135e006383e6ea6c3d06a28,613640d3159f4bfbb6812000,0,0,,15,0,15,0,1
,,,,,,,5ece5c9337ddf22014ae19a1,,,,,,5ece5c9337ddf22014ae19a1,Mężczyzna,21,2021-09-06_18h26.31.878,rantool2,2021.1.4,Win32,60.05645307,6135e006383e6ea6c3d06a28,613640d3159f4bfbb6812000,"[""comma""]",0,[0.0010000000000047748],16,0,16,0,1
,,,,,,,5ece5c9337ddf22014ae19a1,,,,,,5ece5c9337ddf22014ae19a1,Mężczyzna,21,2021-09-06_18h26.31.878,rantool2,2021.1.4,Win32,60.05645307,6135e006383e6ea6c3d06a28,613640d3159f4bfbb6812000,"[""period""]",0,[0.2683999999761397],17,0,17,0,1
,,,,,,,5ece5c9337ddf22014ae19a1,,,,,,5ece5c9337ddf22014ae19a1,Mężczyzna,21,2021-09-06_18h26.31.878,rantool2,2021.1.4,Win32,60.05645307,6135e006383e6ea6c3d06a28,613640d3159f4bfbb6812000,"[""comma""]",0,[0.25059999999402294],18,0,18,0,1
,,,,,,,5ece5c9337ddf22014ae19a1,,,,,,5ece5c9337ddf22014ae19a1,Mężczyzna,21,2021-09-06_18h26.31.878,rantool2,2021.1.4,Win32,60.05645307,6135e006383e6ea6c3d06a28,613640d3159f4bfbb6812000,"[""comma""]",0,[0.2656000000238521],19,0,19,0,1
,,,,,,,5ece5c9337ddf22014ae19a1,,,,,,5ece5c9337ddf22014ae19a1,Mężczyzna,21,2021-09-06_18h26.31.878,rantool2,2021.1.4,Win32,60.05645307,6135e006383e6ea6c3d06a28,613640d3159f4bfbb6812000,"[""comma""]",0,[0.10209999999403863],20,0,20,0,1
,,,,,,,5ece5c9337ddf22014ae19a1,,,,,,5ece5c9337ddf22014ae19a1,Mężczyzna,21,2021-09-06_18h26.31.878,rantool2,2021.1.4,Win32,60.05645307,6135e006383e6ea6c3d06a28,613640d3159f4bfbb6812000,"[""comma""]",0,[0.09309999999402407],21,0,21,0,1
,,,,,,,5ece5c9337ddf22014ae19a1,,,,,,5ece5c9337ddf22014ae19a1,Mężczyzna,21,2021-09-06_18h26.31.878,rantool2,2021.1.4,Win32,60.05645307,6135e006383e6ea6c3d06a28,613640d3159f4bfbb6812000,"[""period""]",0,[0.03439999997613086],22,0,22,0,1
,,,,,,,5ece5c9337ddf22014ae19a1,,,,,,5ece5c9337ddf22014ae19a1,Mężczyzna,21,2021-09-06_18h26.31.878,rantool2,2021.1.4,Win32,60.05645307,6135e006383e6ea6c3d06a28,613640d3159f4bfbb6812000,"[""comma""]",0,[0.21819999998805883],23,0,23,0,1
,,,,,,,5ece5c9337ddf22014ae19a1,,,,,,5ece5c9337ddf22014ae19a1,Mężczyzna,21,2021-09-06_18h26.31.878,rantool2,2021.1.4,Win32,60.05645307,6135e006383e6ea6c3d06a28,613640d3159f4bfbb6812000,"[""comma""]",0,[0.23380000001193935],24,0,24,0,1
,,,,,,,5ece5c9337ddf22014ae19a1,,,,,,5ece5c9337ddf22014ae19a1,Mężczyzna,21,2021-09-06_18h26.31.878,rantool2,2021.1.4,Win32,60.05645307,6135e006383e6ea6c3d06a28,613640d3159f4bfbb6812000,"[""period""]",0,[0.07150000000001455],25,0,25,0,1
,,,,,,,5ece5c9337ddf22014ae19a1,,,,,,5ece5c9337ddf22014ae19a1,Mężczyzna,21,2021-09-06_18h26.31.878,rantool2,2021.1.4,Win32,60.05645307,6135e006383e6ea6c3d06a28,613640d3159f4bfbb6812000,"[""period""]",0,[0.033999999999991815],26,0,26,0,1
,,,,,,,5ece5c9337ddf22014ae19a1,,,,,,5ece5c9337ddf22014ae19a1,Mężczyzna,21,2021-09-06_18h26.31.878,rantool2,2021.1.4,Win32,60.05645307,6135e006383e6ea6c3d06a28,613640d3159f4bfbb6812000,"[""comma""]",0,[0.2677999999821168],27,0,27,0,1
,,,,,,,5ece5c9337ddf22014ae19a1,,,,,,5ece5c9337ddf22014ae19a1,Mężczyzna,21,2021-09-06_18h26.31.878,rantool2,2021.1.4,Win32,60.05645307,6135e006383e6ea6c3d06a28,613640d3159f4bfbb6812000,"[""comma""]",0,[0.4176999999880593],28,0,28,0,1
,,,,,,,5ece5c9337ddf22014ae19a1,,,,,,5ece5c9337ddf22014ae19a1,Mężczyzna,21,2021-09-06_18h26.31.878,rantool2,2021.1.4,Win32,60.05645307,6135e006383e6ea6c3d06a28,613640d3159f4bfbb6812000,"[""period""]",0,[0.28490000000596183],29,0,29,0,1
,,,,,,,5ece5c9337ddf22014ae19a1,,,,,,5ece5c9337ddf22014ae19a1,Mężczyzna,21,2021-09-06_18h26.31.878,rantool2,2021.1.4,Win32,60.05645307,6135e006383e6ea6c3d06a28,613640d3159f4bfbb6812000,"[""comma""]",0,[0.2345999999940318],30,0,30,0,1
,,,,,,,5ece5c9337ddf22014ae19a1,,,,,,5ece5c9337ddf22014ae19a1,Mężczyzna,21,2021-09-06_18h26.31.878,rantool2,2021.1.4,Win32,60.05645307,6135e006383e6ea6c3d06a28,613640d3159f4bfbb6812000,"[""period""]",0,[0.23859999999402248],31,0,31,0,1
,,,,,,,5ece5c9337ddf22014ae19a1,,,,,,5ece5c9337ddf22014ae19a1,Mężczyzna,21,2021-09-06_18h26.31.878,rantool2,2021.1.4,Win32,60.05645307,6135e006383e6ea6c3d06a28,613640d3159f4bfbb6812000,"[""period""]",0,[0.01780000001193116],32,0,32,0,1
,,,,,,,5ece5c9337ddf22014ae19a1,,,,,,5ece5c9337ddf22014ae19a1,Mężczyzna,21,2021-09-06_18h26.31.878,rantool2,2021.1.4,Win32,60.05645307,6135e006383e6ea6c3d06a28,613640d3159f4bfbb6812000,"[""comma""]",0,[0.23530000001190388],33,0,33,0,1
,,,,,,,5ece5c9337ddf22014ae19a1,,,,,,5ece5c9337ddf22014ae19a1,Mężczyzna,21,2021-09-06_18h26.31.878,rantool2,2021.1.4,Win32,60.05645307,6135e006383e6ea6c3d06a28,613640d3159f4bfbb6812000,"[""period""]",0,[0.45010000002383777],34,0,34,0,1
,,,,,,,5ece5c9337ddf22014ae19a1,,,,,,5ece5c9337ddf22014ae19a1,Mężczyzna,21,2021-09-06_18h26.31.878,rantool2,2021.1.4,Win32,60.05645307,6135e006383e6ea6c3d06a28,613640d3159f4bfbb6812000,"[""comma""]",0,[0.48409999999404363],35,0,35,0,1
,,,,,,,5ece5c9337ddf22014ae19a1,,,,,,5ece5c9337ddf22014ae19a1,Mężczyzna,21,2021-09-06_18h26.31.878,rantool2,2021.1.4,Win32,60.05645307,6135e006383e6ea6c3d06a28,613640d3159f4bfbb6812000,"[""comma""]",0,[0.23400000000000887],36,0,36,0,1
,,,,,,,5ece5c9337ddf22014ae19a1,,,,,,5ece5c9337ddf22014ae19a1,Mężczyzna,21,2021-09-06_18h26.31.878,rantool2,2021.1.4,Win32,60.05645307,6135e006383e6ea6c3d06a28,613640d3159f4bfbb6812000,"[""comma""]",0,[0.10120000001788299],37,0,37,0,1
,,,,,,,5ece5c9337ddf22014ae19a1,,,,,,5ece5c9337ddf22014ae19a1,Mężczyzna,21,2021-09-06_18h26.31.878,rantool2,2021.1.4,Win32,60.05645307,6135e006383e6ea6c3d06a28,613640d3159f4bfbb6812000,"[""period""]",0,[0.22869999998806634],38,0,38,0,1
,,,,,,,5ece5c9337ddf22014ae19a1,,,,,,5ece5c9337ddf22014ae19a1,Mężczyzna,21,2021-09-06_18h26.31.878,rantool2,2021.1.4,Win32,60.05645307,6135e006383e6ea6c3d06a28,613640d3159f4bfbb6812000,"[""period""]",0,[0.2524000000059914],39,0,39,0,1
,,,,,,,5ece5c9337ddf22014ae19a1,,,,,,5ece5c9337ddf22014ae19a1,Mężczyzna,21,2021-09-06_18h26.31.878,rantool2,2021.1.4,Win32,60.05645307,6135e006383e6ea6c3d06a28,613640d3159f4bfbb6812000,"[""period""]",0,[-0.015799999982107238],40,0,40,0,1
,,,,,,,5ece5c9337ddf22014ae19a1,,,,,,5ece5c9337ddf22014ae19a1,Mężczyzna,21,2021-09-06_18h26.31.878,rantool2,2021.1.4,Win32,60.05645307,6135e006383e6ea6c3d06a28,613640d3159f4bfbb6812000,"[""period""]",0,[0.034099999994055],41,0,41,0,1
,,,,,,,5ece5c9337ddf22014ae19a1,,,,,,5ece5c9337ddf22014ae19a1,Mężczyzna,21,2021-09-06_18h26.31.878,rantool2,2021.1.4,Win32,60.05645307,6135e006383e6ea6c3d06a28,613640d3159f4bfbb6812000,"[""comma""]",0,[0.10069999998808044],42,0,42,0,1
,,,,,,,5ece5c9337ddf22014ae19a1,,,,,,5ece5c9337ddf22014ae19a1,Mężczyzna,21,2021-09-06_18h26.31.878,rantool2,2021.1.4,Win32,60.05645307,6135e006383e6ea6c3d06a28,613640d3159f4bfbb6812000,"[""period""]",0,[0.15100000000001046],43,0,43,0,1
,,,,,,,5ece5c9337ddf22014ae19a1,,,,,,5ece5c9337ddf22014ae19a1,Mężczyzna,21,2021-09-06_18h26.31.878,rantool2,2021.1.4,Win32,60.05645307,6135e006383e6ea6c3d06a28,613640d3159f4bfbb6812000,"[""period"",""comma""]",0,"[0.2493000000119423,1.8656000000238464]",44,0,44,0,1
,,,,,,,5ece5c9337ddf22014ae19a1,,,,,,5ece5c9337ddf22014ae19a1,Mężczyzna,21,2021-09-06_18h26.31.878,rantool2,2021.1.4,Win32,60.05645307,6135e006383e6ea6c3d06a28,613640d3159f4bfbb6812000,0,0,,45,0,45,0,1
,,,,,,,5ece5c9337ddf22014ae19a1,,,,,,5ece5c9337ddf22014ae19a1,Mężczyzna,21,2021-09-06_18h26.31.878,rantool2,2021.1.4,Win32,60.05645307,6135e006383e6ea6c3d06a28,613640d3159f4bfbb6812000,"[""period""]",0,[0.20119999998809135],46,0,46,0,1
,,,,,,,5ece5c9337ddf22014ae19a1,,,,,,5ece5c9337ddf22014ae19a1,Mężczyzna,21,2021-09-06_18h26.31.878,rantool2,2021.1.4,Win32,60.05645307,6135e006383e6ea6c3d06a28,613640d3159f4bfbb6812000,0,0,,47,0,47,0,1
,,,,,,,5ece5c9337ddf22014ae19a1,,,,,,5ece5c9337ddf22014ae19a1,Mężczyzna,21,2021-09-06_18h26.31.878,rantool2,2021.1.4,Win32,60.05645307,6135e006383e6ea6c3d06a28,613640d3159f4bfbb6812000,"[""comma"",""comma""]",0,"[1.1443999999761445,1.4233999999761409]",48,0,48,0,1
,,,,,,,5ece5c9337ddf22014ae19a1,,,,,,5ece5c9337ddf22014ae19a1,Mężczyzna,21,2021-09-06_18h26.31.878,rantool2,2021.1.4,Win32,60.05645307,6135e006383e6ea6c3d06a28,613640d3159f4bfbb6812000,"[""period""]",0,[0.3570999999940341],49,0,49,0,1
,,,,,,,5ece5c9337ddf22014ae19a1,,,,,,5ece5c9337ddf22014ae19a1,Mężczyzna,21,2021-09-06_18h26.31.878,rantool2,2021.1.4,Win32,60.05645307,6135e006383e6ea6c3d06a28,613640d3159f4bfbb6812000,"[""comma""]",0,[0.25600000000002865],50,0,50,0,1
,,,,,,,5ece5c9337ddf22014ae19a1,,,,,,5ece5c9337ddf22014ae19a1,Mężczyzna,21,2021-09-06_18h26.31.878,rantool2,2021.1.4,Win32,60.05645307,6135e006383e6ea6c3d06a28,613640d3159f4bfbb6812000,"[""comma""]",0,[0.4145000000000323],51,0,51,0,1
,,,,,,,5ece5c9337ddf22014ae19a1,,,,,,5ece5c9337ddf22014ae19a1,Mężczyzna,21,2021-09-06_18h26.31.878,rantool2,2021.1.4,Win32,60.05645307,6135e006383e6ea6c3d06a28,613640d3159f4bfbb6812000,"[""period""]",0,[0.5869000000059827],52,0,52,0,1
,,,,,,,5ece5c9337ddf22014ae19a1,,,,,,5ece5c9337ddf22014ae19a1,Mężczyzna,21,2021-09-06_18h26.31.878,rantool2,2021.1.4,Win32,60.05645307,6135e006383e6ea6c3d06a28,613640d3159f4bfbb6812000,"[""comma""]",0,[0.6009999999999991],53,0,53,0,1
,,,,,,,5ece5c9337ddf22014ae19a1,,,,,,5ece5c9337ddf22014ae19a1,Mężczyzna,21,2021-09-06_18h26.31.878,rantool2,2021.1.4,Win32,60.05645307,6135e006383e6ea6c3d06a28,613640d3159f4bfbb6812000,"[""comma""]",0,[0.30390000000591044],54,0,54,0,1
,,,,,,,5ece5c9337ddf22014ae19a1,,,,,,5ece5c9337ddf22014ae19a1,Mężczyzna,21,2021-09-06_18h26.31.878,rantool2,2021.1.4,Win32,60.05645307,6135e006383e6ea6c3d06a28,613640d3159f4bfbb6812000,"[""period""]",0,[0.4549999999999841],55,0,55,0,1
,,,,,,,5ece5c9337ddf22014ae19a1,,,,,,5ece5c9337ddf22014ae19a1,Mężczyzna,21,2021-09-06_18h26.31.878,rantool2,2021.1.4,Win32,60.05645307,6135e006383e6ea6c3d06a28,613640d3159f4bfbb6812000,"[""period""]",0,[0.2842999999821245],56,0,56,0,1
,,,,,,,5ece5c9337ddf22014ae19a1,,,,,,5ece5c9337ddf22014ae19a1,Mężczyzna,21,2021-09-06_18h26.31.878,rantool2,2021.1.4,Win32,60.05645307,6135e006383e6ea6c3d06a28,613640d3159f4bfbb6812000,"[""period""]",0,[0.167400000005955],57,0,57,0,1
,,,,,,,5ece5c9337ddf22014ae19a1,,,,,,5ece5c9337ddf22014ae19a1,Mężczyzna,21,2021-09-06_18h26.31.878,rantool2,2021.1.4,Win32,60.05645307,6135e006383e6ea6c3d06a28,613640d3159f4bfbb6812000,"[""comma"",""period""]",0,"[0.05120000001790004,1.8541000000238341]",58,0,58,0,1
,,,,,,,5ece5c9337ddf22014ae19a1,,,,,,5ece5c9337ddf22014ae19a1,Mężczyzna,21,2021-09-06_18h26.31.878,rantool2,2021.1.4,Win32,60.05645307,6135e006383e6ea6c3d06a28,613640d3159f4bfbb6812000,0,0,,59,0,59,0,1
,,,,,,,5ece5c9337ddf22014ae19a1,,,,,,5ece5c9337ddf22014ae19a1,Mężczyzna,21,2021-09-06_18h26.31.878,rantool2,2021.1.4,Win32,60.05645307,6135e006383e6ea6c3d06a28,613640d3159f4bfbb6812000,"[""comma"",""period""]",0,"[0.038099999994074096,1.784099999994055]",60,0,60,0,1
,,,,,,,5ece5c9337ddf22014ae19a1,,,,,,5ece5c9337ddf22014ae19a1,Mężczyzna,21,2021-09-06_18h26.31.878,rantool2,2021.1.4,Win32,60.05645307,6135e006383e6ea6c3d06a28,613640d3159f4bfbb6812000,0,0,,61,0,61,0,1
,,,,,,,5ece5c9337ddf22014ae19a1,,,,,,5ece5c9337ddf22014ae19a1,Mężczyzna,21,2021-09-06_18h26.31.878,rantool2,2021.1.4,Win32,60.05645307,6135e006383e6ea6c3d06a28,613640d3159f4bfbb6812000,"[""comma""]",0,[0.28490000000596183],62,0,62,0,1
,,,,,,,5ece5c9337ddf22014ae19a1,,,,,,5ece5c9337ddf22014ae19a1,Mężczyzna,21,2021-09-06_18h26.31.878,rantool2,2021.1.4,Win32,60.05645307,6135e006383e6ea6c3d06a28,613640d3159f4bfbb6812000,"[""comma""]",0,[0.4506999999881032],63,0,63,0,1
,,,,,,,5ece5c9337ddf22014ae19a1,,,,,,5ece5c9337ddf22014ae19a1,Mężczyzna,21,2021-09-06_18h26.31.878,rantool2,2021.1.4,Win32,60.05645307,6135e006383e6ea6c3d06a28,613640d3159f4bfbb6812000,"[""comma""]",0,[0.2511999999881027],64,0,64,0,1
,,,,,,,5ece5c9337ddf22014ae19a1,,,,,,5ece5c9337ddf22014ae19a1,Mężczyzna,21,2021-09-06_18h26.31.878,rantool2,2021.1.4,Win32,60.05645307,6135e006383e6ea6c3d06a28,613640d3159f4bfbb6812000,"[""period""]",0,[0.1345999999940659],65,0,65,0,1
,,,,,,,5ece5c9337ddf22014ae19a1,,,,,,5ece5c9337ddf22014ae19a1,Mężczyzna,21,2021-09-06_18h26.31.878,rantool2,2021.1.4,Win32,60.05645307,6135e006383e6ea6c3d06a28,613640d3159f4bfbb6812000,"[""period"",""comma""]",0,"[0.0009000000059700142,1.5350999999940314]",66,0,66,0,1
,,,,,,,5ece5c9337ddf22014ae19a1,,,,,,5ece5c9337ddf22014ae19a1,Mężczyzna,21,2021-09-06_18h26.31.878,rantool2,2021.1.4,Win32,60.05645307,6135e006383e6ea6c3d06a28,613640d3159f4bfbb6812000,"[""period""]",0,[1.3644000000059577],67,0,67,0,1
,,,,,,,5ece5c9337ddf22014ae19a1,,,,,,5ece5c9337ddf22014ae19a1,Mężczyzna,21,2021-09-06_18h26.31.878,rantool2,2021.1.4,Win32,60.05645307,6135e006383e6ea6c3d06a28,613640d3159f4bfbb6812000,"[""period""]",0,[1.7840999999939982],68,0,68,0,1
,,,,,,,5ece5c9337ddf22014ae19a1,,,,,,5ece5c9337ddf22014ae19a1,Mężczyzna,21,2021-09-06_18h26.31.878,rantool2,2021.1.4,Win32,60.05645307,6135e006383e6ea6c3d06a28,613640d3159f4bfbb6812000,0,0,,69,0,69,0,1
,,,,,,,5ece5c9337ddf22014ae19a1,,,,,,5ece5c9337ddf22014ae19a1,Mężczyzna,21,2021-09-06_18h26.31.878,rantool2,2021.1.4,Win32,60.05645307,6135e006383e6ea6c3d06a28,613640d3159f4bfbb6812000,"[""comma""]",0,[0.28480000001189865],70,0,70,0,1
,,,,,,,5ece5c9337ddf22014ae19a1,,,,,,5ece5c9337ddf22014ae19a1,Mężczyzna,21,2021-09-06_18h26.31.878,rantool2,2021.1.4,Win32,60.05645307,6135e006383e6ea6c3d06a28,613640d3159f4bfbb6812000,"[""period""]",0,[0.2995999999940864],71,0,71,0,1
,,,,,,,5ece5c9337ddf22014ae19a1,,,,,,5ece5c9337ddf22014ae19a1,Mężczyzna,21,2021-09-06_18h26.31.878,rantool2,2021.1.4,Win32,60.05645307,6135e006383e6ea6c3d06a28,613640d3159f4bfbb6812000,"[""comma""]",0,[0.2663000000119382],72,0,72,0,1
,,,,,,,5ece5c9337ddf22014ae19a1,,,,,,5ece5c9337ddf22014ae19a1,Mężczyzna,21,2021-09-06_18h26.31.878,rantool2,2021.1.4,Win32,60.05645307,6135e006383e6ea6c3d06a28,613640d3159f4bfbb6812000,"[""comma""]",0,[-0.01940000000593045],73,0,73,0,1
,,,,,,,5ece5c9337ddf22014ae19a1,,,,,,5ece5c9337ddf22014ae19a1,Mężczyzna,21,2021-09-06_18h26.31.878,rantool2,2021.1.4,Win32,60.05645307,6135e006383e6ea6c3d06a28,613640d3159f4bfbb6812000,"[""period""]",0,[0.041599999994048176],74,0,74,0,1
,,,,,,,5ece5c9337ddf22014ae19a1,,,,,,5ece5c9337ddf22014ae19a1,Mężczyzna,21,2021-09-06_18h26.31.878,rantool2,2021.1.4,Win32,60.05645307,6135e006383e6ea6c3d06a28,613640d3159f4bfbb6812000,"[""period""]",0,[0.3178000000119141],75,0,75,0,1
,,,,,,,5ece5c9337ddf22014ae19a1,,,,,,5ece5c9337ddf22014ae19a1,Mężczyzna,21,2021-09-06_18h26.31.878,rantool2,2021.1.4,Win32,60.05645307,6135e006383e6ea6c3d06a28,613640d3159f4bfbb6812000,"[""comma""]",0,[0.2835999999940668],76,0,76,0,1
,,,,,,,5ece5c9337ddf22014ae19a1,,,,,,5ece5c9337ddf22014ae19a1,Mężczyzna,21,2021-09-06_18h26.31.878,rantool2,2021.1.4,Win32,60.05645307,6135e006383e6ea6c3d06a28,613640d3159f4bfbb6812000,"[""comma""]",0,[0.24040000000599093],77,0,77,0,1
,,,,,,,5ece5c9337ddf22014ae19a1,,,,,,5ece5c9337ddf22014ae19a1,Mężczyzna,21,2021-09-06_18h26.31.878,rantool2,2021.1.4,Win32,60.05645307,6135e006383e6ea6c3d06a28,613640d3159f4bfbb6812000,"[""comma""]",0,[0.44570000001789367],78,0,78,0,1
,,,,,,,5ece5c9337ddf22014ae19a1,,,,,,5ece5c9337ddf22014ae19a1,Mężczyzna,21,2021-09-06_18h26.31.878,rantool2,2021.1.4,Win32,60.05645307,6135e006383e6ea6c3d06a28,613640d3159f4bfbb6812000,"[""period""]",0,[0.3520999999940386],79,0,79,0,1
,,,,,,,5ece5c9337ddf22014ae19a1,,,,,,5ece5c9337ddf22014ae19a1,Mężczyzna,21,2021-09-06_18h26.31.878,rantool2,2021.1.4,Win32,60.05645307,6135e006383e6ea6c3d06a28,613640d3159f4bfbb6812000,"[""period""]",0,[0.23420000001789276],80,0,80,0,1
,,,,,,,5ece5c9337ddf22014ae19a1,,,,,,5ece5c9337ddf22014ae19a1,Mężczyzna,21,2021-09-06_18h26.31.878,rantool2,2021.1.4,Win32,60.05645307,6135e006383e6ea6c3d06a28,613640d3159f4bfbb6812000,"[""comma""]",0,[0.40109999999407364],81,0,81,0,1
,,,,,,,5ece5c9337ddf22014ae19a1,,,,,,5ece5c9337ddf22014ae19a1,Mężczyzna,21,2021-09-06_18h26.31.878,rantool2,2021.1.4,Win32,60.05645307,6135e006383e6ea6c3d06a28,613640d3159f4bfbb6812000,"[""comma""]",0,[0.21780000001189137],82,0,82,0,1
,,,,,,,5ece5c9337ddf22014ae19a1,,,,,,5ece5c9337ddf22014ae19a1,Mężczyzna,21,2021-09-06_18h26.31.878,rantool2,2021.1.4,Win32,60.05645307,6135e006383e6ea6c3d06a28,613640d3159f4bfbb6812000,"[""period""]",0,[0.04730000001194412],83,0,83,0,1
,,,,,,,5ece5c9337ddf22014ae19a1,,,,,,5ece5c9337ddf22014ae19a1,Mężczyzna,21,2021-09-06_18h26.31.878,rantool2,2021.1.4,Win32,60.05645307,6135e006383e6ea6c3d06a28,613640d3159f4bfbb6812000,"[""period""]",0,[0.2558000000119023],84,0,84,0,1
,,,,,,,5ece5c9337ddf22014ae19a1,,,,,,5ece5c9337ddf22014ae19a1,Mężczyzna,21,2021-09-06_18h26.31.878,rantool2,2021.1.4,Win32,60.05645307,6135e006383e6ea6c3d06a28,613640d3159f4bfbb6812000,"[""comma""]",0,[0.284099999994055],85,0,85,0,1
,,,,,,,5ece5c9337ddf22014ae19a1,,,,,,5ece5c9337ddf22014ae19a1,Mężczyzna,21,2021-09-06_18h26.31.878,rantool2,2021.1.4,Win32,60.05645307,6135e006383e6ea6c3d06a28,613640d3159f4bfbb6812000,"[""period""]",0,[0.32129999998210224],86,0,86,0,1
,,,,,,,5ece5c9337ddf22014ae19a1,,,,,,5ece5c9337ddf22014ae19a1,Mężczyzna,21,2021-09-06_18h26.31.878,rantool2,2021.1.4,Win32,60.05645307,6135e006383e6ea6c3d06a28,613640d3159f4bfbb6812000,"[""comma""]",0,[0.19159999999402544],87,0,87,0,1
,,,,,,,5ece5c9337ddf22014ae19a1,,,,,,5ece5c9337ddf22014ae19a1,Mężczyzna,21,2021-09-06_18h26.31.878,rantool2,2021.1.4,Win32,60.05645307,6135e006383e6ea6c3d06a28,613640d3159f4bfbb6812000,"[""period""]",0,[0.0008999999761272193],88,0,88,0,1
,,,,,,,5ece5c9337ddf22014ae19a1,,,,,,5ece5c9337ddf22014ae19a1,Mężczyzna,21,2021-09-06_18h26.31.878,rantool2,2021.1.4,Win32,60.05645307,6135e006383e6ea6c3d06a28,613640d3159f4bfbb6812000,"[""comma""]",0,[-0.015800000011950033],89,0,89,0,1
,,,,,,,5ece5c9337ddf22014ae19a1,,,,,,5ece5c9337ddf22014ae19a1,Mężczyzna,21,2021-09-06_18h26.31.878,rantool2,2021.1.4,Win32,60.05645307,6135e006383e6ea6c3d06a28,613640d3159f4bfbb6812000,"[""period""]",0,[0.24399999999997135],90,0,90,0,1
,,,,,,,5ece5c9337ddf22014ae19a1,,,,,,5ece5c9337ddf22014ae19a1,Mężczyzna,21,2021-09-06_18h26.31.878,rantool2,2021.1.4,Win32,60.05645307,6135e006383e6ea6c3d06a28,613640d3159f4bfbb6812000,"[""comma""]",0,[0.1560000000000059],91,0,91,0,1
,,,,,,,5ece5c9337ddf22014ae19a1,,,,,,5ece5c9337ddf22014ae19a1,Mężczyzna,21,2021-09-06_18h26.31.878,rantool2,2021.1.4,Win32,60.05645307,6135e006383e6ea6c3d06a28,613640d3159f4bfbb6812000,"[""period""]",0,[0.0007000000179004928],92,0,92,0,1
,,,,,,,5ece5c9337ddf22014ae19a1,,,,,,5ece5c9337ddf22014ae19a1,Mężczyzna,21,2021-09-06_18h26.31.878,rantool2,2021.1.4,Win32,60.05645307,6135e006383e6ea6c3d06a28,613640d3159f4bfbb6812000,"[""comma""]",0,[0.12089999997618861],93,0,93,0,1
,,,,,,,5ece5c9337ddf22014ae19a1,,,,,,5ece5c9337ddf22014ae19a1,Mężczyzna,21,2021-09-06_18h26.31.878,rantool2,2021.1.4,Win32,60.05645307,6135e006383e6ea6c3d06a28,613640d3159f4bfbb6812000,"[""period""]",0,[0.03230000001190092],94,0,94,0,1
,,,,,,,5ece5c9337ddf22014ae19a1,,,,,,5ece5c9337ddf22014ae19a1,Mężczyzna,21,2021-09-06_18h26.31.878,rantool2,2021.1.4,Win32,60.05645307,6135e006383e6ea6c3d06a28,613640d3159f4bfbb6812000,"[""period""]",0,[0.26600000000001955],95,0,95,0,1
,,,,,,,5ece5c9337ddf22014ae19a1,,,,,,5ece5c9337ddf22014ae19a1,Mężczyzna,21,2021-09-06_18h26.31.878,rantool2,2021.1.4,Win32,60.05645307,6135e006383e6ea6c3d06a28,613640d3159f4bfbb6812000,"[""comma""]",0,[0.2686000000238664],96,0,96,0,1
,,,,,,,5ece5c9337ddf22014ae19a1,,,,,,5ece5c9337ddf22014ae19a1,Mężczyzna,21,2021-09-06_18h26.31.878,rantool2,2021.1.4,Win32,60.05645307,6135e006383e6ea6c3d06a28,613640d3159f4bfbb6812000,"[""comma""]",0,[0.08310000002381912],97,0,97,0,1
,,,,,,,5ece5c9337ddf22014ae19a1,,,,,,5ece5c9337ddf22014ae19a1,Mężczyzna,21,2021-09-06_18h26.31.878,rantool2,2021.1.4,Win32,60.05645307,6135e006383e6ea6c3d06a28,613640d3159f4bfbb6812000,"[""comma"",""period""]",0,"[0.09820000001786866,1.9169999999999732]",98,0,98,0,1
,,,,,,,5ece5c9337ddf22014ae19a1,,,,,,5ece5c9337ddf22014ae19a1,Mężczyzna,21,2021-09-06_18h26.31.878,rantool2,2021.1.4,Win32,60.05645307,6135e006383e6ea6c3d06a28,613640d3159f4bfbb6812000,"[""period""]",0,[1.7015999999940163],99,0,99,0,1
,,,,,,,5ece5c9337ddf22014ae19a1,,,,,,5ece5c9337ddf22014ae19a1,Mężczyzna,21,2021-09-06_18h26.31.878,rantool2,2021.1.4,Win32,60.05645307,6135e006383e6ea6c3d06a28,613640d3159f4bfbb6812000,"[""comma""]",0,[1.8021999999880904],100,0,100,0,1
,,,,,,,5ece5c9337ddf22014ae19a1,,,,,,5ece5c9337ddf22014ae19a1,Mężczyzna,21,2021-09-06_18h26.31.878,rantool2,2021.1.4,Win32,60.05645307,6135e006383e6ea6c3d06a28,613640d3159f4bfbb6812000,0,0,,101,0,101,0,1
,,,,,,,5ece5c9337ddf22014ae19a1,,,,,,5ece5c9337ddf22014ae19a1,Mężczyzna,21,2021-09-06_18h26.31.878,rantool2,2021.1.4,Win32,60.05645307,6135e006383e6ea6c3d06a28,613640d3159f4bfbb6812000,"[""period""]",0,[0.06729999998208314],102,0,102,0,1
,,,,,,,5ece5c9337ddf22014ae19a1,,,,,,5ece5c9337ddf22014ae19a1,Mężczyzna,21,2021-09-06_18h26.31.878,rantool2,2021.1.4,Win32,60.05645307,6135e006383e6ea6c3d06a28,613640d3159f4bfbb6812000,"[""period""]",0,[0.13460000002385186],103,0,103,0,1
,,,,,,,5ece5c9337ddf22014ae19a1,,,,,,5ece5c9337ddf22014ae19a1,Mężczyzna,21,2021-09-06_18h26.31.878,rantool2,2021.1.4,Win32,60.05645307,6135e006383e6ea6c3d06a28,613640d3159f4bfbb6812000,"[""period""]",0,[0.20090000000595865],104,0,104,0,1
,,,,,,,5ece5c9337ddf22014ae19a1,,,,,,5ece5c9337ddf22014ae19a1,Mężczyzna,21,2021-09-06_18h26.31.878,rantool2,2021.1.4,Win32,60.05645307,6135e006383e6ea6c3d06a28,613640d3159f4bfbb6812000,"[""comma""]",0,[0.3013999999761836],105,0,105,0,1
,,,,,,,5ece5c9337ddf22014ae19a1,,,,,,5ece5c9337ddf22014ae19a1,Mężczyzna,21,2021-09-06_18h26.31.878,rantool2,2021.1.4,Win32,60.05645307,6135e006383e6ea6c3d06a28,613640d3159f4bfbb6812000,"[""comma"",""period""]",0,"[0.21769999998809908,1.9341999999880954]",106,0,106,0,1
,,,,,,,5ece5c9337ddf22014ae19a1,,,,,,5ece5c9337ddf22014ae19a1,Mężczyzna,21,2021-09-06_18h26.31.878,rantool2,2021.1.4,Win32,60.05645307,6135e006383e6ea6c3d06a28,613640d3159f4bfbb6812000,"[""comma""]",0,[1.6685000000000514],107,0,107,0,1
,,,,,,,5ece5c9337ddf22014ae19a1,,,,,,5ece5c9337ddf22014ae19a1,Mężczyzna,21,2021-09-06_18h26.31.878,rantool2,2021.1.4,Win32,60.05645307,6135e006383e6ea6c3d06a28,613640d3159f4bfbb6812000,"[""comma""]",0,[1.6346999999880722],108,0,108,0,1
,,,,,,,5ece5c9337ddf22014ae19a1,,,,,,5ece5c9337ddf22014ae19a1,Mężczyzna,21,2021-09-06_18h26.31.878,rantool2,2021.1.4,Win32,60.05645307,6135e006383e6ea6c3d06a28,613640d3159f4bfbb6812000,"[""comma""]",0,[1.651599999994005],109,0,109,0,1
,,,,,,,5ece5c9337ddf22014ae19a1,,,,,,5ece5c9337ddf22014ae19a1,Mężczyzna,21,2021-09-06_18h26.31.878,rantool2,2021.1.4,Win32,60.05645307,6135e006383e6ea6c3d06a28,613640d3159f4bfbb6812000,"[""period""]",0,[1.7350000000000136],110,0,110,0,1
,,,,,,,5ece5c9337ddf22014ae19a1,,,,,,5ece5c9337ddf22014ae19a1,Mężczyzna,21,2021-09-06_18h26.31.878,rantool2,2021.1.4,Win32,60.05645307,6135e006383e6ea6c3d06a28,613640d3159f4bfbb6812000,0,0,,111,0,111,0,1
,,,,,,,5ece5c9337ddf22014ae19a1,,,,,,5ece5c9337ddf22014ae19a1,Mężczyzna,21,2021-09-06_18h26.31.878,rantool2,2021.1.4,Win32,60.05645307,6135e006383e6ea6c3d06a28,613640d3159f4bfbb6812000,"[""comma""]",0,[0.15080000001194094],112,0,112,0,1
,,,,,,,5ece5c9337ddf22014ae19a1,,,,,,5ece5c9337ddf22014ae19a1,Mężczyzna,21,2021-09-06_18h26.31.878,rantool2,2021.1.4,Win32,60.05645307,6135e006383e6ea6c3d06a28,613640d3159f4bfbb6812000,"[""comma""]",0,[0.1668000000119605],113,0,113,0,1
,,,,,,,5ece5c9337ddf22014ae19a1,,,,,,5ece5c9337ddf22014ae19a1,Mężczyzna,21,2021-09-06_18h26.31.878,rantool2,2021.1.4,Win32,60.05645307,6135e006383e6ea6c3d06a28,613640d3159f4bfbb6812000,"[""comma""]",0,[0.25109999999403954],114,0,114,0,1
,,,,,,,5ece5c9337ddf22014ae19a1,,,,,,5ece5c9337ddf22014ae19a1,Mężczyzna,21,2021-09-06_18h26.31.878,rantool2,2021.1.4,Win32,60.05645307,6135e006383e6ea6c3d06a28,613640d3159f4bfbb6812000,"[""comma""]",0,[0.3197000000179173],115,0,115,0,1
,,,,,,,5ece5c9337ddf22014ae19a1,,,,,,5ece5c9337ddf22014ae19a1,Mężczyzna,21,2021-09-06_18h26.31.878,rantool2,2021.1.4,Win32,60.05645307,6135e006383e6ea6c3d06a28,613640d3159f4bfbb6812000,"[""period""]",0,[0.2661999999880891],116,0,116,0,1
,,,,,,,5ece5c9337ddf22014ae19a1,,,,,,5ece5c9337ddf22014ae19a1,Mężczyzna,21,2021-09-06_18h26.31.878,rantool2,2021.1.4,Win32,60.05645307,6135e006383e6ea6c3d06a28,613640d3159f4bfbb6812000,"[""period"",""period"",""period""]",0,"[0.05709999999402271,1.8348999999761304,1.8670000000000186]",117,0,117,0,1
,,,,,,,5ece5c9337ddf22014ae19a1,,,,,,5ece5c9337ddf22014ae19a1,Mężczyzna,21,2021-09-06_18h26.31.878,rantool2,2021.1.4,Win32,60.05645307,6135e006383e6ea6c3d06a28,613640d3159f4bfbb6812000,"[""comma""]",0,[1.5508000000119182],118,0,118,0,1
,,,,,,,5ece5c9337ddf22014ae19a1,,,,,,5ece5c9337ddf22014ae19a1,Mężczyzna,21,2021-09-06_18h26.31.878,rantool2,2021.1.4,Win32,60.05645307,6135e006383e6ea6c3d06a28,613640d3159f4bfbb6812000,"[""comma""]",0,[1.78449999999998],119,0,119,0,1
