key_resp_7.keys,key_resp_7.rt,trials_2.thisRepN,trials_2.thisTrialN,trials_2.thisN,trials_2.thisIndex,trials_2.ran,id,series_0,series_1,acss_0,acss_1,comparison,id*,Płeć*,Wiek*,date,expName,psychopyVersion,OS,frameRate,STUDY_ID,SESSION_ID,key_resp_5.keys,key_resp_5.corr,key_resp_5.rt,trials.thisRepN,trials.thisTrialN,trials.thisN,trials.thisIndex,trials.ran
f,4.3195,0,0,0,59,1,60ffede96075f470f71b6ce1,RRRORRO,RRRORRR,21.56657303,20.89823192,series_0,60ffede96075f470f71b6ce1,Mężczyzna,18,2021-09-06_19h21.52.185,rantool2,2021.1.4,Win32,74.91759065,6135e006383e6ea6c3d06a28,61364e0cef89c74b391a73d1,,,,,,,,
f,2.6947,0,1,1,26,1,60ffede96075f470f71b6ce1,ORROROO,ORROROR,22.02732763,21.71443381,series_0,60ffede96075f470f71b6ce1,Mężczyzna,18,2021-09-06_19h21.52.185,rantool2,2021.1.4,Win32,74.91759065,6135e006383e6ea6c3d06a28,61364e0cef89c74b391a73d1,,,,,,,,
j,2.6814,0,2,2,1,1,60ffede96075f470f71b6ce1,OOOOORO,OOOOORR,19.92253567,20.74050628,series_1,60ffede96075f470f71b6ce1,Mężczyzna,18,2021-09-06_19h21.52.185,rantool2,2021.1.4,Win32,74.91759065,6135e006383e6ea6c3d06a28,61364e0cef89c74b391a73d1,,,,,,,,
j,2.6763,0,3,3,61,1,60ffede96075f470f71b6ce1,RRRRORO,RRRRORR,21.81333602,21.17347734,series_0,60ffede96075f470f71b6ce1,Mężczyzna,18,2021-09-06_19h21.52.185,rantool2,2021.1.4,Win32,74.91759065,6135e006383e6ea6c3d06a28,61364e0cef89c74b391a73d1,,,,,,,,
j,2.215,0,4,4,28,1,60ffede96075f470f71b6ce1,ORRROOO,ORRROOR,22.24142883,22.53364006,series_1,60ffede96075f470f71b6ce1,Mężczyzna,18,2021-09-06_19h21.52.185,rantool2,2021.1.4,Win32,74.91759065,6135e006383e6ea6c3d06a28,61364e0cef89c74b391a73d1,,,,,,,,
f,1.8676,0,5,5,34,1,60ffede96075f470f71b6ce1,ROOOROO,ROOOROR,21.03750787,21.24781509,series_1,60ffede96075f470f71b6ce1,Mężczyzna,18,2021-09-06_19h21.52.185,rantool2,2021.1.4,Win32,74.91759065,6135e006383e6ea6c3d06a28,61364e0cef89c74b391a73d1,,,,,,,,
j,1.5877,0,6,6,10,1,60ffede96075f470f71b6ce1,OOROROO,OOROROR,21.31236711,21.07490964,series_0,60ffede96075f470f71b6ce1,Mężczyzna,18,2021-09-06_19h21.52.185,rantool2,2021.1.4,Win32,74.91759065,6135e006383e6ea6c3d06a28,61364e0cef89c74b391a73d1,,,,,,,,
f,2.4476,0,7,7,14,1,60ffede96075f470f71b6ce1,OORRROO,OORRROR,22.24142883,22.16977179,series_0,60ffede96075f470f71b6ce1,Mężczyzna,18,2021-09-06_19h21.52.185,rantool2,2021.1.4,Win32,74.91759065,6135e006383e6ea6c3d06a28,61364e0cef89c74b391a73d1,,,,,,,,
j,1.7891,0,8,8,35,1,60ffede96075f470f71b6ce1,ROOORRO,ROOORRR,21.76276513,22.16977179,series_1,60ffede96075f470f71b6ce1,Mężczyzna,18,2021-09-06_19h21.52.185,rantool2,2021.1.4,Win32,74.91759065,6135e006383e6ea6c3d06a28,61364e0cef89c74b391a73d1,,,,,,,,
j,3.0815,0,9,9,49,1,60ffede96075f470f71b6ce1,RROOORO,RROOORR,21.76276513,22.53364006,series_1,60ffede96075f470f71b6ce1,Mężczyzna,18,2021-09-06_19h21.52.185,rantool2,2021.1.4,Win32,74.91759065,6135e006383e6ea6c3d06a28,61364e0cef89c74b391a73d1,,,,,,,,
j,2.7903,0,10,10,40,1,60ffede96075f470f71b6ce1,ROROOOO,ROROOOR,20.87963819,21.37121559,series_1,60ffede96075f470f71b6ce1,Mężczyzna,18,2021-09-06_19h21.52.185,rantool2,2021.1.4,Win32,74.91759065,6135e006383e6ea6c3d06a28,61364e0cef89c74b391a73d1,,,,,,,,
j,2.5181,0,11,11,60,1,60ffede96075f470f71b6ce1,RRRROOO,RRRROOR,22.10108823,22.15934078,series_1,60ffede96075f470f71b6ce1,Mężczyzna,18,2021-09-06_19h21.52.185,rantool2,2021.1.4,Win32,74.91759065,6135e006383e6ea6c3d06a28,61364e0cef89c74b391a73d1,,,,,,,,
f,0.7338,0,12,12,58,1,60ffede96075f470f71b6ce1,RRROROO,RRROROR,22.1285618,21.37121559,series_0,60ffede96075f470f71b6ce1,Mężczyzna,18,2021-09-06_19h21.52.185,rantool2,2021.1.4,Win32,74.91759065,6135e006383e6ea6c3d06a28,61364e0cef89c74b391a73d1,,,,,,,,
j,1.5875,0,13,13,36,1,60ffede96075f470f71b6ce1,ROOROOO,ROOROOR,21.07991943,20.9984461,series_0,60ffede96075f470f71b6ce1,Mężczyzna,18,2021-09-06_19h21.52.185,rantool2,2021.1.4,Win32,74.91759065,6135e006383e6ea6c3d06a28,61364e0cef89c74b391a73d1,,,,,,,,
f,1.054,0,14,14,42,1,60ffede96075f470f71b6ce1,ROROROO,ROROROR,20.39515459,19.8361834,series_0,60ffede96075f470f71b6ce1,Mężczyzna,18,2021-09-06_19h21.52.185,rantool2,2021.1.4,Win32,74.91759065,6135e006383e6ea6c3d06a28,61364e0cef89c74b391a73d1,,,,,,,,
f,1.815,0,15,15,52,1,60ffede96075f470f71b6ce1,RROROOO,RROROOR,22.18365867,22.11097995,series_0,60ffede96075f470f71b6ce1,Mężczyzna,18,2021-09-06_19h21.52.185,rantool2,2021.1.4,Win32,74.91759065,6135e006383e6ea6c3d06a28,61364e0cef89c74b391a73d1,,,,,,,,
f,1.8313,0,16,16,37,1,60ffede96075f470f71b6ce1,ROORORO,ROORORR,20.42602454,21.57657071,series_1,60ffede96075f470f71b6ce1,Mężczyzna,18,2021-09-06_19h21.52.185,rantool2,2021.1.4,Win32,74.91759065,6135e006383e6ea6c3d06a28,61364e0cef89c74b391a73d1,,,,,,,,
f,3.1447,0,17,17,31,1,60ffede96075f470f71b6ce1,ORRRRRO,ORRRRRR,22.16413392,20.74050628,series_0,60ffede96075f470f71b6ce1,Mężczyzna,18,2021-09-06_19h21.52.185,rantool2,2021.1.4,Win32,74.91759065,6135e006383e6ea6c3d06a28,61364e0cef89c74b391a73d1,,,,,,,,
j,2.3698,0,18,18,41,1,60ffede96075f470f71b6ce1,ROROORO,ROROORR,20.42602454,21.71443381,series_1,60ffede96075f470f71b6ce1,Mężczyzna,18,2021-09-06_19h21.52.185,rantool2,2021.1.4,Win32,74.91759065,6135e006383e6ea6c3d06a28,61364e0cef89c74b391a73d1,,,,,,,,
f,1.898,0,19,19,63,1,60ffede96075f470f71b6ce1,RRRRRRO,RRRRRRR,21.35278725,19.62521613,series_0,60ffede96075f470f71b6ce1,Mężczyzna,18,2021-09-06_19h21.52.185,rantool2,2021.1.4,Win32,74.91759065,6135e006383e6ea6c3d06a28,61364e0cef89c74b391a73d1,,,,,,,,
j,1.3474,0,20,20,8,1,60ffede96075f470f71b6ce1,OOROOOO,OOROOOR,19.91402015,20.89823192,series_1,60ffede96075f470f71b6ce1,Mężczyzna,18,2021-09-06_19h21.52.185,rantool2,2021.1.4,Win32,74.91759065,6135e006383e6ea6c3d06a28,61364e0cef89c74b391a73d1,,,,,,,,
f,1.7816,0,21,21,55,1,60ffede96075f470f71b6ce1,RRORRRO,RRORRRR,21.56657303,21.21223021,series_0,60ffede96075f470f71b6ce1,Mężczyzna,18,2021-09-06_19h21.52.185,rantool2,2021.1.4,Win32,74.91759065,6135e006383e6ea6c3d06a28,61364e0cef89c74b391a73d1,,,,,,,,
j,1.5839,0,22,22,48,1,60ffede96075f470f71b6ce1,RROOOOO,RROOOOR,20.90986523,22.15934078,series_1,60ffede96075f470f71b6ce1,Mężczyzna,18,2021-09-06_19h21.52.185,rantool2,2021.1.4,Win32,74.91759065,6135e006383e6ea6c3d06a28,61364e0cef89c74b391a73d1,,,,,,,,
f,4.0903,0,23,23,16,1,60ffede96075f470f71b6ce1,OROOOOO,OROOOOR,20.43051175,21.17347734,series_1,60ffede96075f470f71b6ce1,Mężczyzna,18,2021-09-06_19h21.52.185,rantool2,2021.1.4,Win32,74.91759065,6135e006383e6ea6c3d06a28,61364e0cef89c74b391a73d1,,,,,,,,
f,3.0719,0,24,24,7,1,60ffede96075f470f71b6ce1,OOORRRO,OOORRRR,21.6194508,21.899017,series_1,60ffede96075f470f71b6ce1,Mężczyzna,18,2021-09-06_19h21.52.185,rantool2,2021.1.4,Win32,74.91759065,6135e006383e6ea6c3d06a28,61364e0cef89c74b391a73d1,,,,,,,,
j,3.4972,0,25,25,46,1,60ffede96075f470f71b6ce1,RORRROO,RORRROR,22.00300695,21.24781509,series_0,60ffede96075f470f71b6ce1,Mężczyzna,18,2021-09-06_19h21.52.185,rantool2,2021.1.4,Win32,74.91759065,6135e006383e6ea6c3d06a28,61364e0cef89c74b391a73d1,,,,,,,,
j,3.222,0,26,26,39,1,60ffede96075f470f71b6ce1,ROORRRO,ROORRRR,21.82425538,21.38562617,series_0,60ffede96075f470f71b6ce1,Mężczyzna,18,2021-09-06_19h21.52.185,rantool2,2021.1.4,Win32,74.91759065,6135e006383e6ea6c3d06a28,61364e0cef89c74b391a73d1,,,,,,,,
j,2.6023,0,27,27,27,1,60ffede96075f470f71b6ce1,ORRORRO,ORRORRR,21.55250791,22.2428857,series_1,60ffede96075f470f71b6ce1,Mężczyzna,18,2021-09-06_19h21.52.185,rantool2,2021.1.4,Win32,74.91759065,6135e006383e6ea6c3d06a28,61364e0cef89c74b391a73d1,,,,,,,,
j,2.3746,0,28,28,23,1,60ffede96075f470f71b6ce1,ORORRRO,ORORRRR,22.1285618,21.9921709,series_0,60ffede96075f470f71b6ce1,Mężczyzna,18,2021-09-06_19h21.52.185,rantool2,2021.1.4,Win32,74.91759065,6135e006383e6ea6c3d06a28,61364e0cef89c74b391a73d1,,,,,,,,
f,2.9452,0,29,29,24,1,60ffede96075f470f71b6ce1,ORROOOO,ORROOOR,21.12383932,22.07102821,series_1,60ffede96075f470f71b6ce1,Mężczyzna,18,2021-09-06_19h21.52.185,rantool2,2021.1.4,Win32,74.91759065,6135e006383e6ea6c3d06a28,61364e0cef89c74b391a73d1,,,,,,,,
f,2.0175,0,30,30,22,1,60ffede96075f470f71b6ce1,ORORROO,ORORROR,22.02732763,21.57657071,series_0,60ffede96075f470f71b6ce1,Mężczyzna,18,2021-09-06_19h21.52.185,rantool2,2021.1.4,Win32,74.91759065,6135e006383e6ea6c3d06a28,61364e0cef89c74b391a73d1,,,,,,,,
f,2.6761,0,31,31,18,1,60ffede96075f470f71b6ce1,OROOROO,OROOROR,20.84860893,21.22513037,series_1,60ffede96075f470f71b6ce1,Mężczyzna,18,2021-09-06_19h21.52.185,rantool2,2021.1.4,Win32,74.91759065,6135e006383e6ea6c3d06a28,61364e0cef89c74b391a73d1,,,,,,,,
j,1.6354,0,32,32,62,1,60ffede96075f470f71b6ce1,RRRRROO,RRRRROR,22.16413392,21.27974287,series_0,60ffede96075f470f71b6ce1,Mężczyzna,18,2021-09-06_19h21.52.185,rantool2,2021.1.4,Win32,74.91759065,6135e006383e6ea6c3d06a28,61364e0cef89c74b391a73d1,,,,,,,,
f,2.1479,0,33,33,44,1,60ffede96075f470f71b6ce1,RORROOO,RORROOR,21.66733484,22.02566557,series_1,60ffede96075f470f71b6ce1,Mężczyzna,18,2021-09-06_19h21.52.185,rantool2,2021.1.4,Win32,74.91759065,6135e006383e6ea6c3d06a28,61364e0cef89c74b391a73d1,,,,,,,,
j,2.3975,0,34,34,21,1,60ffede96075f470f71b6ce1,ORORORO,ORORORR,20.39515459,22.06781359,series_1,60ffede96075f470f71b6ce1,Mężczyzna,18,2021-09-06_19h21.52.185,rantool2,2021.1.4,Win32,74.91759065,6135e006383e6ea6c3d06a28,61364e0cef89c74b391a73d1,,,,,,,,
f,3.8959,0,35,35,43,1,60ffede96075f470f71b6ce1,RORORRO,RORORRR,20.71309134,21.07490964,series_1,60ffede96075f470f71b6ce1,Mężczyzna,18,2021-09-06_19h21.52.185,rantool2,2021.1.4,Win32,74.91759065,6135e006383e6ea6c3d06a28,61364e0cef89c74b391a73d1,,,,,,,,
j,2.0473,0,36,36,38,1,60ffede96075f470f71b6ce1,ROORROO,ROORROR,21.79500819,21.36812781,series_0,60ffede96075f470f71b6ce1,Mężczyzna,18,2021-09-06_19h21.52.185,rantool2,2021.1.4,Win32,74.91759065,6135e006383e6ea6c3d06a28,61364e0cef89c74b391a73d1,,,,,,,,
f,1.4384,0,37,37,57,1,60ffede96075f470f71b6ce1,RRROORO,RRROORR,21.82425538,22.07102821,series_1,60ffede96075f470f71b6ce1,Mężczyzna,18,2021-09-06_19h21.52.185,rantool2,2021.1.4,Win32,74.91759065,6135e006383e6ea6c3d06a28,61364e0cef89c74b391a73d1,,,,,,,,
j,1.3637,0,38,38,4,1,60ffede96075f470f71b6ce1,OOOROOO,OOOROOR,19.91402015,21.21223021,series_1,60ffede96075f470f71b6ce1,Mężczyzna,18,2021-09-06_19h21.52.185,rantool2,2021.1.4,Win32,74.91759065,6135e006383e6ea6c3d06a28,61364e0cef89c74b391a73d1,,,,,,,,
j,2.5971,0,39,39,11,1,60ffede96075f470f71b6ce1,OORORRO,OORORRR,22.18365867,22.6797523,series_1,60ffede96075f470f71b6ce1,Mężczyzna,18,2021-09-06_19h21.52.185,rantool2,2021.1.4,Win32,74.91759065,6135e006383e6ea6c3d06a28,61364e0cef89c74b391a73d1,,,,,,,,
j,1.7422,0,40,40,54,1,60ffede96075f470f71b6ce1,RRORROO,RRORROR,21.55250791,20.9984461,series_0,60ffede96075f470f71b6ce1,Mężczyzna,18,2021-09-06_19h21.52.185,rantool2,2021.1.4,Win32,74.91759065,6135e006383e6ea6c3d06a28,61364e0cef89c74b391a73d1,,,,,,,,
j,2.0944,0,41,41,30,1,60ffede96075f470f71b6ce1,ORRRROO,ORRRROR,22.46748491,22.03072203,series_0,60ffede96075f470f71b6ce1,Mężczyzna,18,2021-09-06_19h21.52.185,rantool2,2021.1.4,Win32,74.91759065,6135e006383e6ea6c3d06a28,61364e0cef89c74b391a73d1,,,,,,,,
j,1.7339,0,42,42,33,1,60ffede96075f470f71b6ce1,ROOOORO,ROOOORR,20.83779602,22.03072203,series_1,60ffede96075f470f71b6ce1,Mężczyzna,18,2021-09-06_19h21.52.185,rantool2,2021.1.4,Win32,74.91759065,6135e006383e6ea6c3d06a28,61364e0cef89c74b391a73d1,,,,,,,,
f,1.9022,0,43,43,3,1,60ffede96075f470f71b6ce1,OOOORRO,OOOORRR,20.90986523,21.74922619,series_1,60ffede96075f470f71b6ce1,Mężczyzna,18,2021-09-06_19h21.52.185,rantool2,2021.1.4,Win32,74.91759065,6135e006383e6ea6c3d06a28,61364e0cef89c74b391a73d1,,,,,,,,
j,1.4027,0,44,44,20,1,60ffede96075f470f71b6ce1,OROROOO,OROROOR,21.31236711,21.90565814,series_1,60ffede96075f470f71b6ce1,Mężczyzna,18,2021-09-06_19h21.52.185,rantool2,2021.1.4,Win32,74.91759065,6135e006383e6ea6c3d06a28,61364e0cef89c74b391a73d1,,,,,,,,
f,1.3971,0,45,45,12,1,60ffede96075f470f71b6ce1,OORROOO,OORROOR,21.30250474,22.02786418,series_1,60ffede96075f470f71b6ce1,Mężczyzna,18,2021-09-06_19h21.52.185,rantool2,2021.1.4,Win32,74.91759065,6135e006383e6ea6c3d06a28,61364e0cef89c74b391a73d1,,,,,,,,
j,2.0302,0,46,46,32,1,60ffede96075f470f71b6ce1,ROOOOOO,ROOOOOR,19.92253567,21.27974287,series_1,60ffede96075f470f71b6ce1,Mężczyzna,18,2021-09-06_19h21.52.185,rantool2,2021.1.4,Win32,74.91759065,6135e006383e6ea6c3d06a28,61364e0cef89c74b391a73d1,,,,,,,,
j,1.5547,0,47,47,19,1,60ffede96075f470f71b6ce1,OROORRO,OROORRR,21.73568164,22.11181017,series_1,60ffede96075f470f71b6ce1,Mężczyzna,18,2021-09-06_19h21.52.185,rantool2,2021.1.4,Win32,74.91759065,6135e006383e6ea6c3d06a28,61364e0cef89c74b391a73d1,,,,,,,,
j,1.1936,0,48,48,5,1,60ffede96075f470f71b6ce1,OOORORO,OOORORR,20.87963819,21.9921709,series_1,60ffede96075f470f71b6ce1,Mężczyzna,18,2021-09-06_19h21.52.185,rantool2,2021.1.4,Win32,74.91759065,6135e006383e6ea6c3d06a28,61364e0cef89c74b391a73d1,,,,,,,,
f,0.7239,0,49,49,50,1,60ffede96075f470f71b6ce1,RROOROO,RROOROR,21.73568164,22.02566557,series_1,60ffede96075f470f71b6ce1,Mężczyzna,18,2021-09-06_19h21.52.185,rantool2,2021.1.4,Win32,74.91759065,6135e006383e6ea6c3d06a28,61364e0cef89c74b391a73d1,,,,,,,,
j,1.2673,0,50,50,25,1,60ffede96075f470f71b6ce1,ORROORO,ORROORR,21.79500819,22.61624387,series_1,60ffede96075f470f71b6ce1,Mężczyzna,18,2021-09-06_19h21.52.185,rantool2,2021.1.4,Win32,74.91759065,6135e006383e6ea6c3d06a28,61364e0cef89c74b391a73d1,,,,,,,,
f,1.8144,0,51,51,0,1,60ffede96075f470f71b6ce1,OOOOOOO,OOOOOOR,18.52739004,19.62521613,series_1,60ffede96075f470f71b6ce1,Mężczyzna,18,2021-09-06_19h21.52.185,rantool2,2021.1.4,Win32,74.91759065,6135e006383e6ea6c3d06a28,61364e0cef89c74b391a73d1,,,,,,,,
j,1.7316,0,52,52,56,1,60ffede96075f470f71b6ce1,RRROOOO,RRROOOR,21.6194508,22.31681875,series_1,60ffede96075f470f71b6ce1,Mężczyzna,18,2021-09-06_19h21.52.185,rantool2,2021.1.4,Win32,74.91759065,6135e006383e6ea6c3d06a28,61364e0cef89c74b391a73d1,,,,,,,,
j,1.8619,0,53,53,51,1,60ffede96075f470f71b6ce1,RROORRO,RROORRR,21.89852628,22.02786418,series_1,60ffede96075f470f71b6ce1,Mężczyzna,18,2021-09-06_19h21.52.185,rantool2,2021.1.4,Win32,74.91759065,6135e006383e6ea6c3d06a28,61364e0cef89c74b391a73d1,,,,,,,,
f,1.3898,0,54,54,53,1,60ffede96075f470f71b6ce1,RRORORO,RRORORR,20.71309134,21.90565814,series_1,60ffede96075f470f71b6ce1,Mężczyzna,18,2021-09-06_19h21.52.185,rantool2,2021.1.4,Win32,74.91759065,6135e006383e6ea6c3d06a28,61364e0cef89c74b391a73d1,,,,,,,,
j,1.1491,0,55,55,6,1,60ffede96075f470f71b6ce1,OOORROO,OOORROR,21.12383932,21.38562617,series_1,60ffede96075f470f71b6ce1,Mężczyzna,18,2021-09-06_19h21.52.185,rantool2,2021.1.4,Win32,74.91759065,6135e006383e6ea6c3d06a28,61364e0cef89c74b391a73d1,,,,,,,,
f,1.0707,0,56,56,9,1,60ffede96075f470f71b6ce1,OOROORO,OOROORR,21.07991943,22.2428857,series_1,60ffede96075f470f71b6ce1,Mężczyzna,18,2021-09-06_19h21.52.185,rantool2,2021.1.4,Win32,74.91759065,6135e006383e6ea6c3d06a28,61364e0cef89c74b391a73d1,,,,,,,,
f,1.8945,0,57,57,47,1,60ffede96075f470f71b6ce1,RORRRRO,RORRRRR,21.81333602,21.02936224,series_0,60ffede96075f470f71b6ce1,Mężczyzna,18,2021-09-06_19h21.52.185,rantool2,2021.1.4,Win32,74.91759065,6135e006383e6ea6c3d06a28,61364e0cef89c74b391a73d1,,,,,,,,
j,0.8732,0,58,58,13,1,60ffede96075f470f71b6ce1,OORRORO,OORRORR,21.66733484,22.11181017,series_1,60ffede96075f470f71b6ce1,Mężczyzna,18,2021-09-06_19h21.52.185,rantool2,2021.1.4,Win32,74.91759065,6135e006383e6ea6c3d06a28,61364e0cef89c74b391a73d1,,,,,,,,
f,2.4823,0,59,59,29,1,60ffede96075f470f71b6ce1,ORRRORO,ORRRORR,22.00300695,22.12173012,series_1,60ffede96075f470f71b6ce1,Mężczyzna,18,2021-09-06_19h21.52.185,rantool2,2021.1.4,Win32,74.91759065,6135e006383e6ea6c3d06a28,61364e0cef89c74b391a73d1,,,,,,,,
f,2.0477,0,60,60,45,1,60ffede96075f470f71b6ce1,RORRORO,RORRORR,20.78182524,21.22513037,series_1,60ffede96075f470f71b6ce1,Mężczyzna,18,2021-09-06_19h21.52.185,rantool2,2021.1.4,Win32,74.91759065,6135e006383e6ea6c3d06a28,61364e0cef89c74b391a73d1,,,,,,,,
f,1.522,0,61,61,2,1,60ffede96075f470f71b6ce1,OOOOROO,OOOOROR,20.43051175,21.02936224,series_1,60ffede96075f470f71b6ce1,Mężczyzna,18,2021-09-06_19h21.52.185,rantool2,2021.1.4,Win32,74.91759065,6135e006383e6ea6c3d06a28,61364e0cef89c74b391a73d1,,,,,,,,
j,0.6387,0,62,62,17,1,60ffede96075f470f71b6ce1,OROOORO,OROOORR,21.03750787,22.12173012,series_1,60ffede96075f470f71b6ce1,Mężczyzna,18,2021-09-06_19h21.52.185,rantool2,2021.1.4,Win32,74.91759065,6135e006383e6ea6c3d06a28,61364e0cef89c74b391a73d1,,,,,,,,
f,1.0007,0,63,63,15,1,60ffede96075f470f71b6ce1,OORRRRO,OORRRRR,22.10108823,21.74922619,series_0,60ffede96075f470f71b6ce1,Mężczyzna,18,2021-09-06_19h21.52.185,rantool2,2021.1.4,Win32,74.91759065,6135e006383e6ea6c3d06a28,61364e0cef89c74b391a73d1,,,,,,,,
,,,,,,,60ffede96075f470f71b6ce1,,,,,,60ffede96075f470f71b6ce1,Mężczyzna,18,2021-09-06_19h21.52.185,rantool2,2021.1.4,Win32,74.91759065,6135e006383e6ea6c3d06a28,61364e0cef89c74b391a73d1,"[""comma""]",0,[1.8530999999940718],0,0,0,0,1
,,,,,,,60ffede96075f470f71b6ce1,,,,,,60ffede96075f470f71b6ce1,Mężczyzna,18,2021-09-06_19h21.52.185,rantool2,2021.1.4,Win32,74.91759065,6135e006383e6ea6c3d06a28,61364e0cef89c74b391a73d1,"[""comma""]",0,[1.5623999999911007],1,0,1,0,1
,,,,,,,60ffede96075f470f71b6ce1,,,,,,60ffede96075f470f71b6ce1,Mężczyzna,18,2021-09-06_19h21.52.185,rantool2,2021.1.4,Win32,74.91759065,6135e006383e6ea6c3d06a28,61364e0cef89c74b391a73d1,"[""period""]",0,[1.3604000000059955],2,0,2,0,1
,,,,,,,60ffede96075f470f71b6ce1,,,,,,60ffede96075f470f71b6ce1,Mężczyzna,18,2021-09-06_19h21.52.185,rantool2,2021.1.4,Win32,74.91759065,6135e006383e6ea6c3d06a28,61364e0cef89c74b391a73d1,"[""comma""]",0,[1.1588999999910925],3,0,3,0,1
,,,,,,,60ffede96075f470f71b6ce1,,,,,,60ffede96075f470f71b6ce1,Mężczyzna,18,2021-09-06_19h21.52.185,rantool2,2021.1.4,Win32,74.91759065,6135e006383e6ea6c3d06a28,61364e0cef89c74b391a73d1,"[""period""]",0,[0.7239000000059264],4,0,4,0,1
,,,,,,,60ffede96075f470f71b6ce1,,,,,,60ffede96075f470f71b6ce1,Mężczyzna,18,2021-09-06_19h21.52.185,rantool2,2021.1.4,Win32,74.91759065,6135e006383e6ea6c3d06a28,61364e0cef89c74b391a73d1,"[""comma""]",0,[1.0697000000029675],5,0,5,0,1
,,,,,,,60ffede96075f470f71b6ce1,,,,,,60ffede96075f470f71b6ce1,Mężczyzna,18,2021-09-06_19h21.52.185,rantool2,2021.1.4,Win32,74.91759065,6135e006383e6ea6c3d06a28,61364e0cef89c74b391a73d1,"[""comma""]",0,[1.1807000000029575],6,0,6,0,1
,,,,,,,60ffede96075f470f71b6ce1,,,,,,60ffede96075f470f71b6ce1,Mężczyzna,18,2021-09-06_19h21.52.185,rantool2,2021.1.4,Win32,74.91759065,6135e006383e6ea6c3d06a28,61364e0cef89c74b391a73d1,"[""period""]",0,[1.2925000000000182],7,0,7,0,1
,,,,,,,60ffede96075f470f71b6ce1,,,,,,60ffede96075f470f71b6ce1,Mężczyzna,18,2021-09-06_19h21.52.185,rantool2,2021.1.4,Win32,74.91759065,6135e006383e6ea6c3d06a28,61364e0cef89c74b391a73d1,"[""period""]",0,[1.0925000000000296],8,0,8,0,1
,,,,,,,60ffede96075f470f71b6ce1,,,,,,60ffede96075f470f71b6ce1,Mężczyzna,18,2021-09-06_19h21.52.185,rantool2,2021.1.4,Win32,74.91759065,6135e006383e6ea6c3d06a28,61364e0cef89c74b391a73d1,"[""comma""]",0,[1.02049999999997],9,0,9,0,1
,,,,,,,60ffede96075f470f71b6ce1,,,,,,60ffede96075f470f71b6ce1,Mężczyzna,18,2021-09-06_19h21.52.185,rantool2,2021.1.4,Win32,74.91759065,6135e006383e6ea6c3d06a28,61364e0cef89c74b391a73d1,"[""comma""]",0,[1.052899999991098],10,0,10,0,1
,,,,,,,60ffede96075f470f71b6ce1,,,,,,60ffede96075f470f71b6ce1,Mężczyzna,18,2021-09-06_19h21.52.185,rantool2,2021.1.4,Win32,74.91759065,6135e006383e6ea6c3d06a28,61364e0cef89c74b391a73d1,"[""comma""]",0,[1.0487000000029525],11,0,11,0,1
,,,,,,,60ffede96075f470f71b6ce1,,,,,,60ffede96075f470f71b6ce1,Mężczyzna,18,2021-09-06_19h21.52.185,rantool2,2021.1.4,Win32,74.91759065,6135e006383e6ea6c3d06a28,61364e0cef89c74b391a73d1,"[""period""]",0,[1.016200000002982],12,0,12,0,1
,,,,,,,60ffede96075f470f71b6ce1,,,,,,60ffede96075f470f71b6ce1,Mężczyzna,18,2021-09-06_19h21.52.185,rantool2,2021.1.4,Win32,74.91759065,6135e006383e6ea6c3d06a28,61364e0cef89c74b391a73d1,"[""comma""]",0,[1.0487000000030093],13,0,13,0,1
,,,,,,,60ffede96075f470f71b6ce1,,,,,,60ffede96075f470f71b6ce1,Mężczyzna,18,2021-09-06_19h21.52.185,rantool2,2021.1.4,Win32,74.91759065,6135e006383e6ea6c3d06a28,61364e0cef89c74b391a73d1,"[""comma""]",0,[1.356200000002957],14,0,14,0,1
,,,,,,,60ffede96075f470f71b6ce1,,,,,,60ffede96075f470f71b6ce1,Mężczyzna,18,2021-09-06_19h21.52.185,rantool2,2021.1.4,Win32,74.91759065,6135e006383e6ea6c3d06a28,61364e0cef89c74b391a73d1,"[""period""]",0,[1.0399999999999636],15,0,15,0,1
,,,,,,,60ffede96075f470f71b6ce1,,,,,,60ffede96075f470f71b6ce1,Mężczyzna,18,2021-09-06_19h21.52.185,rantool2,2021.1.4,Win32,74.91759065,6135e006383e6ea6c3d06a28,61364e0cef89c74b391a73d1,"[""comma""]",0,[1.1882000000029507],16,0,16,0,1
,,,,,,,60ffede96075f470f71b6ce1,,,,,,60ffede96075f470f71b6ce1,Mężczyzna,18,2021-09-06_19h21.52.185,rantool2,2021.1.4,Win32,74.91759065,6135e006383e6ea6c3d06a28,61364e0cef89c74b391a73d1,"[""period""]",0,[1.1062999999970202],17,0,17,0,1
,,,,,,,60ffede96075f470f71b6ce1,,,,,,60ffede96075f470f71b6ce1,Mężczyzna,18,2021-09-06_19h21.52.185,rantool2,2021.1.4,Win32,74.91759065,6135e006383e6ea6c3d06a28,61364e0cef89c74b391a73d1,"[""comma""]",0,[0.8777000000029602],18,0,18,0,1
,,,,,,,60ffede96075f470f71b6ce1,,,,,,60ffede96075f470f71b6ce1,Mężczyzna,18,2021-09-06_19h21.52.185,rantool2,2021.1.4,Win32,74.91759065,6135e006383e6ea6c3d06a28,61364e0cef89c74b391a73d1,"[""period""]",0,[1.1465999999940664],19,0,19,0,1
,,,,,,,60ffede96075f470f71b6ce1,,,,,,60ffede96075f470f71b6ce1,Mężczyzna,18,2021-09-06_19h21.52.185,rantool2,2021.1.4,Win32,74.91759065,6135e006383e6ea6c3d06a28,61364e0cef89c74b391a73d1,"[""period""]",0,[0.6315999999940232],20,0,20,0,1
,,,,,,,60ffede96075f470f71b6ce1,,,,,,60ffede96075f470f71b6ce1,Mężczyzna,18,2021-09-06_19h21.52.185,rantool2,2021.1.4,Win32,74.91759065,6135e006383e6ea6c3d06a28,61364e0cef89c74b391a73d1,"[""comma""]",0,[0.15670000000295659],21,0,21,0,1
,,,,,,,60ffede96075f470f71b6ce1,,,,,,60ffede96075f470f71b6ce1,Mężczyzna,18,2021-09-06_19h21.52.185,rantool2,2021.1.4,Win32,74.91759065,6135e006383e6ea6c3d06a28,61364e0cef89c74b391a73d1,"[""period""]",0,[1.0110999999940873],22,0,22,0,1
,,,,,,,60ffede96075f470f71b6ce1,,,,,,60ffede96075f470f71b6ce1,Mężczyzna,18,2021-09-06_19h21.52.185,rantool2,2021.1.4,Win32,74.91759065,6135e006383e6ea6c3d06a28,61364e0cef89c74b391a73d1,"[""comma""]",0,[0.6142999999970016],23,0,23,0,1
,,,,,,,60ffede96075f470f71b6ce1,,,,,,60ffede96075f470f71b6ce1,Mężczyzna,18,2021-09-06_19h21.52.185,rantool2,2021.1.4,Win32,74.91759065,6135e006383e6ea6c3d06a28,61364e0cef89c74b391a73d1,"[""period""]",0,[0.7805000000000177],24,0,24,0,1
,,,,,,,60ffede96075f470f71b6ce1,,,,,,60ffede96075f470f71b6ce1,Mężczyzna,18,2021-09-06_19h21.52.185,rantool2,2021.1.4,Win32,74.91759065,6135e006383e6ea6c3d06a28,61364e0cef89c74b391a73d1,"[""comma""]",0,[0.81340000000597],25,0,25,0,1
,,,,,,,60ffede96075f470f71b6ce1,,,,,,60ffede96075f470f71b6ce1,Mężczyzna,18,2021-09-06_19h21.52.185,rantool2,2021.1.4,Win32,74.91759065,6135e006383e6ea6c3d06a28,61364e0cef89c74b391a73d1,"[""comma""]",0,[0.7683999999910611],26,0,26,0,1
,,,,,,,60ffede96075f470f71b6ce1,,,,,,60ffede96075f470f71b6ce1,Mężczyzna,18,2021-09-06_19h21.52.185,rantool2,2021.1.4,Win32,74.91759065,6135e006383e6ea6c3d06a28,61364e0cef89c74b391a73d1,"[""period""]",0,[0.9592999999970289],27,0,27,0,1
,,,,,,,60ffede96075f470f71b6ce1,,,,,,60ffede96075f470f71b6ce1,Mężczyzna,18,2021-09-06_19h21.52.185,rantool2,2021.1.4,Win32,74.91759065,6135e006383e6ea6c3d06a28,61364e0cef89c74b391a73d1,"[""comma""]",0,[0.8749000000059368],28,0,28,0,1
,,,,,,,60ffede96075f470f71b6ce1,,,,,,60ffede96075f470f71b6ce1,Mężczyzna,18,2021-09-06_19h21.52.185,rantool2,2021.1.4,Win32,74.91759065,6135e006383e6ea6c3d06a28,61364e0cef89c74b391a73d1,"[""period""]",0,[0.8286000000089189],29,0,29,0,1
,,,,,,,60ffede96075f470f71b6ce1,,,,,,60ffede96075f470f71b6ce1,Mężczyzna,18,2021-09-06_19h21.52.185,rantool2,2021.1.4,Win32,74.91759065,6135e006383e6ea6c3d06a28,61364e0cef89c74b391a73d1,"[""comma""]",0,[0.27609999999407364],30,0,30,0,1
,,,,,,,60ffede96075f470f71b6ce1,,,,,,60ffede96075f470f71b6ce1,Mężczyzna,18,2021-09-06_19h21.52.185,rantool2,2021.1.4,Win32,74.91759065,6135e006383e6ea6c3d06a28,61364e0cef89c74b391a73d1,"[""period""]",0,[0.4264999999999759],31,0,31,0,1
,,,,,,,60ffede96075f470f71b6ce1,,,,,,60ffede96075f470f71b6ce1,Mężczyzna,18,2021-09-06_19h21.52.185,rantool2,2021.1.4,Win32,74.91759065,6135e006383e6ea6c3d06a28,61364e0cef89c74b391a73d1,"[""comma""]",0,[0.4214000000059741],32,0,32,0,1
,,,,,,,60ffede96075f470f71b6ce1,,,,,,60ffede96075f470f71b6ce1,Mężczyzna,18,2021-09-06_19h21.52.185,rantool2,2021.1.4,Win32,74.91759065,6135e006383e6ea6c3d06a28,61364e0cef89c74b391a73d1,"[""period""]",0,[0.4157999999970343],33,0,33,0,1
,,,,,,,60ffede96075f470f71b6ce1,,,,,,60ffede96075f470f71b6ce1,Mężczyzna,18,2021-09-06_19h21.52.185,rantool2,2021.1.4,Win32,74.91759065,6135e006383e6ea6c3d06a28,61364e0cef89c74b391a73d1,"[""period""]",0,[0.48840000000592454],34,0,34,0,1
,,,,,,,60ffede96075f470f71b6ce1,,,,,,60ffede96075f470f71b6ce1,Mężczyzna,18,2021-09-06_19h21.52.185,rantool2,2021.1.4,Win32,74.91759065,6135e006383e6ea6c3d06a28,61364e0cef89c74b391a73d1,"[""period""]",0,[0.8864000000059491],35,0,35,0,1
,,,,,,,60ffede96075f470f71b6ce1,,,,,,60ffede96075f470f71b6ce1,Mężczyzna,18,2021-09-06_19h21.52.185,rantool2,2021.1.4,Win32,74.91759065,6135e006383e6ea6c3d06a28,61364e0cef89c74b391a73d1,"[""comma""]",0,[0.33379999999698384],36,0,36,0,1
,,,,,,,60ffede96075f470f71b6ce1,,,,,,60ffede96075f470f71b6ce1,Mężczyzna,18,2021-09-06_19h21.52.185,rantool2,2021.1.4,Win32,74.91759065,6135e006383e6ea6c3d06a28,61364e0cef89c74b391a73d1,"[""period""]",0,[0.6400999999940495],37,0,37,0,1
,,,,,,,60ffede96075f470f71b6ce1,,,,,,60ffede96075f470f71b6ce1,Mężczyzna,18,2021-09-06_19h21.52.185,rantool2,2021.1.4,Win32,74.91759065,6135e006383e6ea6c3d06a28,61364e0cef89c74b391a73d1,"[""period""]",0,[0.7908999999910407],38,0,38,0,1
,,,,,,,60ffede96075f470f71b6ce1,,,,,,60ffede96075f470f71b6ce1,Mężczyzna,18,2021-09-06_19h21.52.185,rantool2,2021.1.4,Win32,74.91759065,6135e006383e6ea6c3d06a28,61364e0cef89c74b391a73d1,"[""comma""]",0,[0.39379999999704296],39,0,39,0,1
,,,,,,,60ffede96075f470f71b6ce1,,,,,,60ffede96075f470f71b6ce1,Mężczyzna,18,2021-09-06_19h21.52.185,rantool2,2021.1.4,Win32,74.91759065,6135e006383e6ea6c3d06a28,61364e0cef89c74b391a73d1,"[""period"",""comma""]",0,"[0.32359999999403044,1.7706999999880964]",40,0,40,0,1
,,,,,,,60ffede96075f470f71b6ce1,,,,,,60ffede96075f470f71b6ce1,Mężczyzna,18,2021-09-06_19h21.52.185,rantool2,2021.1.4,Win32,74.91759065,6135e006383e6ea6c3d06a28,61364e0cef89c74b391a73d1,0,0,,41,0,41,0,1
,,,,,,,60ffede96075f470f71b6ce1,,,,,,60ffede96075f470f71b6ce1,Mężczyzna,18,2021-09-06_19h21.52.185,rantool2,2021.1.4,Win32,74.91759065,6135e006383e6ea6c3d06a28,61364e0cef89c74b391a73d1,"[""period""]",0,[0.48289999999104793],42,0,42,0,1
,,,,,,,60ffede96075f470f71b6ce1,,,,,,60ffede96075f470f71b6ce1,Mężczyzna,18,2021-09-06_19h21.52.185,rantool2,2021.1.4,Win32,74.91759065,6135e006383e6ea6c3d06a28,61364e0cef89c74b391a73d1,"[""comma"",""comma""]",0,"[0.20359999999408274,1.6128999999911002]",43,0,43,0,1
,,,,,,,60ffede96075f470f71b6ce1,,,,,,60ffede96075f470f71b6ce1,Mężczyzna,18,2021-09-06_19h21.52.185,rantool2,2021.1.4,Win32,74.91759065,6135e006383e6ea6c3d06a28,61364e0cef89c74b391a73d1,0,0,,44,0,44,0,1
,,,,,,,60ffede96075f470f71b6ce1,,,,,,60ffede96075f470f71b6ce1,Mężczyzna,18,2021-09-06_19h21.52.185,rantool2,2021.1.4,Win32,74.91759065,6135e006383e6ea6c3d06a28,61364e0cef89c74b391a73d1,"[""period""]",0,[0.6615000000000464],45,0,45,0,1
,,,,,,,60ffede96075f470f71b6ce1,,,,,,60ffede96075f470f71b6ce1,Mężczyzna,18,2021-09-06_19h21.52.185,rantool2,2021.1.4,Win32,74.91759065,6135e006383e6ea6c3d06a28,61364e0cef89c74b391a73d1,"[""period""]",0,[0.42120000000295477],46,0,46,0,1
,,,,,,,60ffede96075f470f71b6ce1,,,,,,60ffede96075f470f71b6ce1,Mężczyzna,18,2021-09-06_19h21.52.185,rantool2,2021.1.4,Win32,74.91759065,6135e006383e6ea6c3d06a28,61364e0cef89c74b391a73d1,"[""comma""]",0,[0.025500000000022283],47,0,47,0,1
,,,,,,,60ffede96075f470f71b6ce1,,,,,,60ffede96075f470f71b6ce1,Mężczyzna,18,2021-09-06_19h21.52.185,rantool2,2021.1.4,Win32,74.91759065,6135e006383e6ea6c3d06a28,61364e0cef89c74b391a73d1,"[""comma""]",0,[0.5660999999940373],48,0,48,0,1
,,,,,,,60ffede96075f470f71b6ce1,,,,,,60ffede96075f470f71b6ce1,Mężczyzna,18,2021-09-06_19h21.52.185,rantool2,2021.1.4,Win32,74.91759065,6135e006383e6ea6c3d06a28,61364e0cef89c74b391a73d1,"[""comma""]",0,[0.5217000000029657],49,0,49,0,1
,,,,,,,60ffede96075f470f71b6ce1,,,,,,60ffede96075f470f71b6ce1,Mężczyzna,18,2021-09-06_19h21.52.185,rantool2,2021.1.4,Win32,74.91759065,6135e006383e6ea6c3d06a28,61364e0cef89c74b391a73d1,"[""period""]",0,[0.5544999999999618],50,0,50,0,1
,,,,,,,60ffede96075f470f71b6ce1,,,,,,60ffede96075f470f71b6ce1,Mężczyzna,18,2021-09-06_19h21.52.185,rantool2,2021.1.4,Win32,74.91759065,6135e006383e6ea6c3d06a28,61364e0cef89c74b391a73d1,"[""period"",""comma""]",0,"[0.4848999999910575,1.5020999999940727]",51,0,51,0,1
,,,,,,,60ffede96075f470f71b6ce1,,,,,,60ffede96075f470f71b6ce1,Mężczyzna,18,2021-09-06_19h21.52.185,rantool2,2021.1.4,Win32,74.91759065,6135e006383e6ea6c3d06a28,61364e0cef89c74b391a73d1,0,0,,52,0,52,0,1
,,,,,,,60ffede96075f470f71b6ce1,,,,,,60ffede96075f470f71b6ce1,Mężczyzna,18,2021-09-06_19h21.52.185,rantool2,2021.1.4,Win32,74.91759065,6135e006383e6ea6c3d06a28,61364e0cef89c74b391a73d1,"[""period""]",0,[0.44689999999104657],53,0,53,0,1
,,,,,,,60ffede96075f470f71b6ce1,,,,,,60ffede96075f470f71b6ce1,Mężczyzna,18,2021-09-06_19h21.52.185,rantool2,2021.1.4,Win32,74.91759065,6135e006383e6ea6c3d06a28,61364e0cef89c74b391a73d1,"[""comma""]",0,[0.45679999999703114],54,0,54,0,1
,,,,,,,60ffede96075f470f71b6ce1,,,,,,60ffede96075f470f71b6ce1,Mężczyzna,18,2021-09-06_19h21.52.185,rantool2,2021.1.4,Win32,74.91759065,6135e006383e6ea6c3d06a28,61364e0cef89c74b391a73d1,"[""comma""]",0,[0.45209999999406136],55,0,55,0,1
,,,,,,,60ffede96075f470f71b6ce1,,,,,,60ffede96075f470f71b6ce1,Mężczyzna,18,2021-09-06_19h21.52.185,rantool2,2021.1.4,Win32,74.91759065,6135e006383e6ea6c3d06a28,61364e0cef89c74b391a73d1,"[""period""]",0,[0.40670000000301343],56,0,56,0,1
,,,,,,,60ffede96075f470f71b6ce1,,,,,,60ffede96075f470f71b6ce1,Mężczyzna,18,2021-09-06_19h21.52.185,rantool2,2021.1.4,Win32,74.91759065,6135e006383e6ea6c3d06a28,61364e0cef89c74b391a73d1,"[""comma""]",0,[0.361500000000035],57,0,57,0,1
,,,,,,,60ffede96075f470f71b6ce1,,,,,,60ffede96075f470f71b6ce1,Mężczyzna,18,2021-09-06_19h21.52.185,rantool2,2021.1.4,Win32,74.91759065,6135e006383e6ea6c3d06a28,61364e0cef89c74b391a73d1,"[""period"",""comma""]",0,"[0.4338999999910129,0.8673999999910507]",58,0,58,0,1
,,,,,,,60ffede96075f470f71b6ce1,,,,,,60ffede96075f470f71b6ce1,Mężczyzna,18,2021-09-06_19h21.52.185,rantool2,2021.1.4,Win32,74.91759065,6135e006383e6ea6c3d06a28,61364e0cef89c74b391a73d1,"[""comma""]",0,[0.42950000000001864],59,0,59,0,1
,,,,,,,60ffede96075f470f71b6ce1,,,,,,60ffede96075f470f71b6ce1,Mężczyzna,18,2021-09-06_19h21.52.185,rantool2,2021.1.4,Win32,74.91759065,6135e006383e6ea6c3d06a28,61364e0cef89c74b391a73d1,"[""comma""]",0,[0.38720000000296295],60,0,60,0,1
,,,,,,,60ffede96075f470f71b6ce1,,,,,,60ffede96075f470f71b6ce1,Mężczyzna,18,2021-09-06_19h21.52.185,rantool2,2021.1.4,Win32,74.91759065,6135e006383e6ea6c3d06a28,61364e0cef89c74b391a73d1,"[""period""]",0,[0.41749999999996135],61,0,61,0,1
,,,,,,,60ffede96075f470f71b6ce1,,,,,,60ffede96075f470f71b6ce1,Mężczyzna,18,2021-09-06_19h21.52.185,rantool2,2021.1.4,Win32,74.91759065,6135e006383e6ea6c3d06a28,61364e0cef89c74b391a73d1,"[""period""]",0,[0.29460000000892705],62,0,62,0,1
,,,,,,,60ffede96075f470f71b6ce1,,,,,,60ffede96075f470f71b6ce1,Mężczyzna,18,2021-09-06_19h21.52.185,rantool2,2021.1.4,Win32,74.91759065,6135e006383e6ea6c3d06a28,61364e0cef89c74b391a73d1,"[""comma""]",0,[0.3279000000059682],63,0,63,0,1
,,,,,,,60ffede96075f470f71b6ce1,,,,,,60ffede96075f470f71b6ce1,Mężczyzna,18,2021-09-06_19h21.52.185,rantool2,2021.1.4,Win32,74.91759065,6135e006383e6ea6c3d06a28,61364e0cef89c74b391a73d1,"[""period""]",0,[0.1656000000089648],64,0,64,0,1
,,,,,,,60ffede96075f470f71b6ce1,,,,,,60ffede96075f470f71b6ce1,Mężczyzna,18,2021-09-06_19h21.52.185,rantool2,2021.1.4,Win32,74.91759065,6135e006383e6ea6c3d06a28,61364e0cef89c74b391a73d1,"[""period""]",0,[0.39429999999703114],65,0,65,0,1
,,,,,,,60ffede96075f470f71b6ce1,,,,,,60ffede96075f470f71b6ce1,Mężczyzna,18,2021-09-06_19h21.52.185,rantool2,2021.1.4,Win32,74.91759065,6135e006383e6ea6c3d06a28,61364e0cef89c74b391a73d1,"[""comma""]",0,[0.3101999999880718],66,0,66,0,1
,,,,,,,60ffede96075f470f71b6ce1,,,,,,60ffede96075f470f71b6ce1,Mężczyzna,18,2021-09-06_19h21.52.185,rantool2,2021.1.4,Win32,74.91759065,6135e006383e6ea6c3d06a28,61364e0cef89c74b391a73d1,"[""period""]",0,[0.30659999999403453],67,0,67,0,1
,,,,,,,60ffede96075f470f71b6ce1,,,,,,60ffede96075f470f71b6ce1,Mężczyzna,18,2021-09-06_19h21.52.185,rantool2,2021.1.4,Win32,74.91759065,6135e006383e6ea6c3d06a28,61364e0cef89c74b391a73d1,"[""period""]",0,[0.2734999999999559],68,0,68,0,1
,,,,,,,60ffede96075f470f71b6ce1,,,,,,60ffede96075f470f71b6ce1,Mężczyzna,18,2021-09-06_19h21.52.185,rantool2,2021.1.4,Win32,74.91759065,6135e006383e6ea6c3d06a28,61364e0cef89c74b391a73d1,"[""comma""]",0,[0.3222999999970284],69,0,69,0,1
,,,,,,,60ffede96075f470f71b6ce1,,,,,,60ffede96075f470f71b6ce1,Mężczyzna,18,2021-09-06_19h21.52.185,rantool2,2021.1.4,Win32,74.91759065,6135e006383e6ea6c3d06a28,61364e0cef89c74b391a73d1,"[""period""]",0,[0.3170999999940136],70,0,70,0,1
,,,,,,,60ffede96075f470f71b6ce1,,,,,,60ffede96075f470f71b6ce1,Mężczyzna,18,2021-09-06_19h21.52.185,rantool2,2021.1.4,Win32,74.91759065,6135e006383e6ea6c3d06a28,61364e0cef89c74b391a73d1,"[""comma""]",0,[0.3492999999970152],71,0,71,0,1
,,,,,,,60ffede96075f470f71b6ce1,,,,,,60ffede96075f470f71b6ce1,Mężczyzna,18,2021-09-06_19h21.52.185,rantool2,2021.1.4,Win32,74.91759065,6135e006383e6ea6c3d06a28,61364e0cef89c74b391a73d1,"[""period""]",0,[0.2663000000119382],72,0,72,0,1
,,,,,,,60ffede96075f470f71b6ce1,,,,,,60ffede96075f470f71b6ce1,Mężczyzna,18,2021-09-06_19h21.52.185,rantool2,2021.1.4,Win32,74.91759065,6135e006383e6ea6c3d06a28,61364e0cef89c74b391a73d1,"[""comma""]",0,[0.22139999999103566],73,0,73,0,1
,,,,,,,60ffede96075f470f71b6ce1,,,,,,60ffede96075f470f71b6ce1,Mężczyzna,18,2021-09-06_19h21.52.185,rantool2,2021.1.4,Win32,74.91759065,6135e006383e6ea6c3d06a28,61364e0cef89c74b391a73d1,"[""period""]",0,[0.27020000000300115],74,0,74,0,1
,,,,,,,60ffede96075f470f71b6ce1,,,,,,60ffede96075f470f71b6ce1,Mężczyzna,18,2021-09-06_19h21.52.185,rantool2,2021.1.4,Win32,74.91759065,6135e006383e6ea6c3d06a28,61364e0cef89c74b391a73d1,"[""comma""]",0,[0.2279999999999518],75,0,75,0,1
,,,,,,,60ffede96075f470f71b6ce1,,,,,,60ffede96075f470f71b6ce1,Mężczyzna,18,2021-09-06_19h21.52.185,rantool2,2021.1.4,Win32,74.91759065,6135e006383e6ea6c3d06a28,61364e0cef89c74b391a73d1,"[""period""]",0,[0.33720000000289474],76,0,76,0,1
,,,,,,,60ffede96075f470f71b6ce1,,,,,,60ffede96075f470f71b6ce1,Mężczyzna,18,2021-09-06_19h21.52.185,rantool2,2021.1.4,Win32,74.91759065,6135e006383e6ea6c3d06a28,61364e0cef89c74b391a73d1,"[""comma""]",0,[0.2135999999940168],77,0,77,0,1
,,,,,,,60ffede96075f470f71b6ce1,,,,,,60ffede96075f470f71b6ce1,Mężczyzna,18,2021-09-06_19h21.52.185,rantool2,2021.1.4,Win32,74.91759065,6135e006383e6ea6c3d06a28,61364e0cef89c74b391a73d1,"[""period""]",0,[0.16849999999999454],78,0,78,0,1
,,,,,,,60ffede96075f470f71b6ce1,,,,,,60ffede96075f470f71b6ce1,Mężczyzna,18,2021-09-06_19h21.52.185,rantool2,2021.1.4,Win32,74.91759065,6135e006383e6ea6c3d06a28,61364e0cef89c74b391a73d1,"[""comma""]",0,[0.1634999999999991],79,0,79,0,1
,,,,,,,60ffede96075f470f71b6ce1,,,,,,60ffede96075f470f71b6ce1,Mężczyzna,18,2021-09-06_19h21.52.185,rantool2,2021.1.4,Win32,74.91759065,6135e006383e6ea6c3d06a28,61364e0cef89c74b391a73d1,"[""comma""]",0,[0.1602000000029875],80,0,80,0,1
,,,,,,,60ffede96075f470f71b6ce1,,,,,,60ffede96075f470f71b6ce1,Mężczyzna,18,2021-09-06_19h21.52.185,rantool2,2021.1.4,Win32,74.91759065,6135e006383e6ea6c3d06a28,61364e0cef89c74b391a73d1,"[""comma""]",0,[0.15200000000004366],81,0,81,0,1
,,,,,,,60ffede96075f470f71b6ce1,,,,,,60ffede96075f470f71b6ce1,Mężczyzna,18,2021-09-06_19h21.52.185,rantool2,2021.1.4,Win32,74.91759065,6135e006383e6ea6c3d06a28,61364e0cef89c74b391a73d1,"[""period""]",0,[0.2259999999999991],82,0,82,0,1
,,,,,,,60ffede96075f470f71b6ce1,,,,,,60ffede96075f470f71b6ce1,Mężczyzna,18,2021-09-06_19h21.52.185,rantool2,2021.1.4,Win32,74.91759065,6135e006383e6ea6c3d06a28,61364e0cef89c74b391a73d1,"[""period""]",0,[0.1951000000088925],83,0,83,0,1
,,,,,,,60ffede96075f470f71b6ce1,,,,,,60ffede96075f470f71b6ce1,Mężczyzna,18,2021-09-06_19h21.52.185,rantool2,2021.1.4,Win32,74.91759065,6135e006383e6ea6c3d06a28,61364e0cef89c74b391a73d1,"[""period""]",0,[0.07229999999697156],84,0,84,0,1
,,,,,,,60ffede96075f470f71b6ce1,,,,,,60ffede96075f470f71b6ce1,Mężczyzna,18,2021-09-06_19h21.52.185,rantool2,2021.1.4,Win32,74.91759065,6135e006383e6ea6c3d06a28,61364e0cef89c74b391a73d1,"[""period""]",0,[0.1593000000119673],85,0,85,0,1
,,,,,,,60ffede96075f470f71b6ce1,,,,,,60ffede96075f470f71b6ce1,Mężczyzna,18,2021-09-06_19h21.52.185,rantool2,2021.1.4,Win32,74.91759065,6135e006383e6ea6c3d06a28,61364e0cef89c74b391a73d1,"[""period""]",0,[0.1522999999970125],86,0,86,0,1
,,,,,,,60ffede96075f470f71b6ce1,,,,,,60ffede96075f470f71b6ce1,Mężczyzna,18,2021-09-06_19h21.52.185,rantool2,2021.1.4,Win32,74.91759065,6135e006383e6ea6c3d06a28,61364e0cef89c74b391a73d1,"[""comma""]",0,[0.1863999999909538],87,0,87,0,1
,,,,,,,60ffede96075f470f71b6ce1,,,,,,60ffede96075f470f71b6ce1,Mężczyzna,18,2021-09-06_19h21.52.185,rantool2,2021.1.4,Win32,74.91759065,6135e006383e6ea6c3d06a28,61364e0cef89c74b391a73d1,"[""period""]",0,[0.18080000001191365],88,0,88,0,1
,,,,,,,60ffede96075f470f71b6ce1,,,,,,60ffede96075f470f71b6ce1,Mężczyzna,18,2021-09-06_19h21.52.185,rantool2,2021.1.4,Win32,74.91759065,6135e006383e6ea6c3d06a28,61364e0cef89c74b391a73d1,"[""comma""]",0,[0.05729999999698521],89,0,89,0,1
,,,,,,,60ffede96075f470f71b6ce1,,,,,,60ffede96075f470f71b6ce1,Mężczyzna,18,2021-09-06_19h21.52.185,rantool2,2021.1.4,Win32,74.91759065,6135e006383e6ea6c3d06a28,61364e0cef89c74b391a73d1,"[""comma""]",0,[0.20799999999997],90,0,90,0,1
,,,,,,,60ffede96075f470f71b6ce1,,,,,,60ffede96075f470f71b6ce1,Mężczyzna,18,2021-09-06_19h21.52.185,rantool2,2021.1.4,Win32,74.91759065,6135e006383e6ea6c3d06a28,61364e0cef89c74b391a73d1,"[""period""]",0,[0.24229999999693064],91,0,91,0,1
,,,,,,,60ffede96075f470f71b6ce1,,,,,,60ffede96075f470f71b6ce1,Mężczyzna,18,2021-09-06_19h21.52.185,rantool2,2021.1.4,Win32,74.91759065,6135e006383e6ea6c3d06a28,61364e0cef89c74b391a73d1,"[""period""]",0,[0.055200000003083005],92,0,92,0,1
,,,,,,,60ffede96075f470f71b6ce1,,,,,,60ffede96075f470f71b6ce1,Mężczyzna,18,2021-09-06_19h21.52.185,rantool2,2021.1.4,Win32,74.91759065,6135e006383e6ea6c3d06a28,61364e0cef89c74b391a73d1,"[""comma""]",0,[0.10190000000591226],93,0,93,0,1
,,,,,,,60ffede96075f470f71b6ce1,,,,,,60ffede96075f470f71b6ce1,Mężczyzna,18,2021-09-06_19h21.52.185,rantool2,2021.1.4,Win32,74.91759065,6135e006383e6ea6c3d06a28,61364e0cef89c74b391a73d1,"[""period""]",0,[0.09649999999999181],94,0,94,0,1
,,,,,,,60ffede96075f470f71b6ce1,,,,,,60ffede96075f470f71b6ce1,Mężczyzna,18,2021-09-06_19h21.52.185,rantool2,2021.1.4,Win32,74.91759065,6135e006383e6ea6c3d06a28,61364e0cef89c74b391a73d1,"[""comma"",""period""]",0,"[0.06700000000000728,1.9602000000030557]",95,0,95,0,1
,,,,,,,60ffede96075f470f71b6ce1,,,,,,60ffede96075f470f71b6ce1,Mężczyzna,18,2021-09-06_19h21.52.185,rantool2,2021.1.4,Win32,74.91759065,6135e006383e6ea6c3d06a28,61364e0cef89c74b391a73d1,0,0,,96,0,96,0,1
,,,,,,,60ffede96075f470f71b6ce1,,,,,,60ffede96075f470f71b6ce1,Mężczyzna,18,2021-09-06_19h21.52.185,rantool2,2021.1.4,Win32,74.91759065,6135e006383e6ea6c3d06a28,61364e0cef89c74b391a73d1,"[""comma""]",0,[-0.007299999997030682],97,0,97,0,1
,,,,,,,60ffede96075f470f71b6ce1,,,,,,60ffede96075f470f71b6ce1,Mężczyzna,18,2021-09-06_19h21.52.185,rantool2,2021.1.4,Win32,74.91759065,6135e006383e6ea6c3d06a28,61364e0cef89c74b391a73d1,"[""period"",""comma""]",0,"[-0.013000000000033651,1.9599999999999227]",98,0,98,0,1
,,,,,,,60ffede96075f470f71b6ce1,,,,,,60ffede96075f470f71b6ce1,Mężczyzna,18,2021-09-06_19h21.52.185,rantool2,2021.1.4,Win32,74.91759065,6135e006383e6ea6c3d06a28,61364e0cef89c74b391a73d1,0,0,,99,0,99,0,1
,,,,,,,60ffede96075f470f71b6ce1,,,,,,60ffede96075f470f71b6ce1,Mężczyzna,18,2021-09-06_19h21.52.185,rantool2,2021.1.4,Win32,74.91759065,6135e006383e6ea6c3d06a28,61364e0cef89c74b391a73d1,"[""period""]",0,[-0.008800000011888187],100,0,100,0,1
,,,,,,,60ffede96075f470f71b6ce1,,,,,,60ffede96075f470f71b6ce1,Mężczyzna,18,2021-09-06_19h21.52.185,rantool2,2021.1.4,Win32,74.91759065,6135e006383e6ea6c3d06a28,61364e0cef89c74b391a73d1,"[""comma"",""period""]",0,"[0.10270000000298296,1.9814000000059195]",101,0,101,0,1
,,,,,,,60ffede96075f470f71b6ce1,,,,,,60ffede96075f470f71b6ce1,Mężczyzna,18,2021-09-06_19h21.52.185,rantool2,2021.1.4,Win32,74.91759065,6135e006383e6ea6c3d06a28,61364e0cef89c74b391a73d1,0,0,,102,0,102,0,1
,,,,,,,60ffede96075f470f71b6ce1,,,,,,60ffede96075f470f71b6ce1,Mężczyzna,18,2021-09-06_19h21.52.185,rantool2,2021.1.4,Win32,74.91759065,6135e006383e6ea6c3d06a28,61364e0cef89c74b391a73d1,"[""comma""]",0,[0.18289999999103657],103,0,103,0,1
,,,,,,,60ffede96075f470f71b6ce1,,,,,,60ffede96075f470f71b6ce1,Mężczyzna,18,2021-09-06_19h21.52.185,rantool2,2021.1.4,Win32,74.91759065,6135e006383e6ea6c3d06a28,61364e0cef89c74b391a73d1,"[""period""]",0,[0.21770000000299206],104,0,104,0,1
,,,,,,,60ffede96075f470f71b6ce1,,,,,,60ffede96075f470f71b6ce1,Mężczyzna,18,2021-09-06_19h21.52.185,rantool2,2021.1.4,Win32,74.91759065,6135e006383e6ea6c3d06a28,61364e0cef89c74b391a73d1,"[""period""]",0,[0.030400000006011396],105,0,105,0,1
,,,,,,,60ffede96075f470f71b6ce1,,,,,,60ffede96075f470f71b6ce1,Mężczyzna,18,2021-09-06_19h21.52.185,rantool2,2021.1.4,Win32,74.91759065,6135e006383e6ea6c3d06a28,61364e0cef89c74b391a73d1,"[""period"",""comma""]",0,"[0.026000000000067303,1.7628000000119073]",106,0,106,0,1
,,,,,,,60ffede96075f470f71b6ce1,,,,,,60ffede96075f470f71b6ce1,Mężczyzna,18,2021-09-06_19h21.52.185,rantool2,2021.1.4,Win32,74.91759065,6135e006383e6ea6c3d06a28,61364e0cef89c74b391a73d1,"[""period""]",0,[1.9105999999940195],107,0,107,0,1
,,,,,,,60ffede96075f470f71b6ce1,,,,,,60ffede96075f470f71b6ce1,Mężczyzna,18,2021-09-06_19h21.52.185,rantool2,2021.1.4,Win32,74.91759065,6135e006383e6ea6c3d06a28,61364e0cef89c74b391a73d1,"[""comma""]",0,[1.907299999997008],108,0,108,0,1
,,,,,,,60ffede96075f470f71b6ce1,,,,,,60ffede96075f470f71b6ce1,Mężczyzna,18,2021-09-06_19h21.52.185,rantool2,2021.1.4,Win32,74.91759065,6135e006383e6ea6c3d06a28,61364e0cef89c74b391a73d1,"[""period""]",0,[1.939199999988091],109,0,109,0,1
,,,,,,,60ffede96075f470f71b6ce1,,,,,,60ffede96075f470f71b6ce1,Mężczyzna,18,2021-09-06_19h21.52.185,rantool2,2021.1.4,Win32,74.91759065,6135e006383e6ea6c3d06a28,61364e0cef89c74b391a73d1,"[""comma""]",0,[0.9940999999940914],110,0,110,0,1
,,,,,,,60ffede96075f470f71b6ce1,,,,,,60ffede96075f470f71b6ce1,Mężczyzna,18,2021-09-06_19h21.52.185,rantool2,2021.1.4,Win32,74.91759065,6135e006383e6ea6c3d06a28,61364e0cef89c74b391a73d1,"[""period""]",0,[0.7534999999999172],111,0,111,0,1
,,,,,,,60ffede96075f470f71b6ce1,,,,,,60ffede96075f470f71b6ce1,Mężczyzna,18,2021-09-06_19h21.52.185,rantool2,2021.1.4,Win32,74.91759065,6135e006383e6ea6c3d06a28,61364e0cef89c74b391a73d1,"[""comma""]",0,[0.7084999999999582],112,0,112,0,1
,,,,,,,60ffede96075f470f71b6ce1,,,,,,60ffede96075f470f71b6ce1,Mężczyzna,18,2021-09-06_19h21.52.185,rantool2,2021.1.4,Win32,74.91759065,6135e006383e6ea6c3d06a28,61364e0cef89c74b391a73d1,"[""comma""]",0,[0.9387000000029957],113,0,113,0,1
,,,,,,,60ffede96075f470f71b6ce1,,,,,,60ffede96075f470f71b6ce1,Mężczyzna,18,2021-09-06_19h21.52.185,rantool2,2021.1.4,Win32,74.91759065,6135e006383e6ea6c3d06a28,61364e0cef89c74b391a73d1,"[""period""]",0,[0.9089000000059286],114,0,114,0,1
,,,,,,,60ffede96075f470f71b6ce1,,,,,,60ffede96075f470f71b6ce1,Mężczyzna,18,2021-09-06_19h21.52.185,rantool2,2021.1.4,Win32,74.91759065,6135e006383e6ea6c3d06a28,61364e0cef89c74b391a73d1,"[""comma""]",0,[0.7470999999940204],115,0,115,0,1
,,,,,,,60ffede96075f470f71b6ce1,,,,,,60ffede96075f470f71b6ce1,Mężczyzna,18,2021-09-06_19h21.52.185,rantool2,2021.1.4,Win32,74.91759065,6135e006383e6ea6c3d06a28,61364e0cef89c74b391a73d1,"[""comma""]",0,[0.9722999999970625],116,0,116,0,1
,,,,,,,60ffede96075f470f71b6ce1,,,,,,60ffede96075f470f71b6ce1,Mężczyzna,18,2021-09-06_19h21.52.185,rantool2,2021.1.4,Win32,74.91759065,6135e006383e6ea6c3d06a28,61364e0cef89c74b391a73d1,"[""period""]",0,[0.5769999999999982],117,0,117,0,1
,,,,,,,60ffede96075f470f71b6ce1,,,,,,60ffede96075f470f71b6ce1,Mężczyzna,18,2021-09-06_19h21.52.185,rantool2,2021.1.4,Win32,74.91759065,6135e006383e6ea6c3d06a28,61364e0cef89c74b391a73d1,"[""comma""]",0,[0.6224000000058822],118,0,118,0,1
,,,,,,,60ffede96075f470f71b6ce1,,,,,,60ffede96075f470f71b6ce1,Mężczyzna,18,2021-09-06_19h21.52.185,rantool2,2021.1.4,Win32,74.91759065,6135e006383e6ea6c3d06a28,61364e0cef89c74b391a73d1,"[""period""]",0,[0.8295999999941159],119,0,119,0,1
