key_resp_7.keys,key_resp_7.rt,trials_2.thisRepN,trials_2.thisTrialN,trials_2.thisN,trials_2.thisIndex,trials_2.ran,id,series_0,series_1,acss_0,acss_1,comparison,id*,Płeć*,Wiek*,date,expName,psychopyVersion,OS,frameRate,STUDY_ID,SESSION_ID,key_resp_5.keys,key_resp_5.corr,key_resp_5.rt,trials.thisRepN,trials.thisTrialN,trials.thisN,trials.thisIndex,trials.ran
j,3.5758,0,0,0,35,1,6021d8939ca8fa279f82cd92,ROOORRO,ROOORRR,21.76276513,22.16977179,series_1,6021d8939ca8fa279f82cd92,Mężczyzna,22,2021-09-06_19h21.39.838,rantool2,2021.1.4,Win32,59.88382538,6135e006383e6ea6c3d06a28,61364dfd8aafcb39dd1cf942,,,,,,,,
f,1.0459,0,1,1,3,1,6021d8939ca8fa279f82cd92,OOOORRO,OOOORRR,20.90986523,21.74922619,series_1,6021d8939ca8fa279f82cd92,Mężczyzna,22,2021-09-06_19h21.39.838,rantool2,2021.1.4,Win32,59.88382538,6135e006383e6ea6c3d06a28,61364dfd8aafcb39dd1cf942,,,,,,,,
j,0.7043,0,2,2,21,1,6021d8939ca8fa279f82cd92,ORORORO,ORORORR,20.39515459,22.06781359,series_1,6021d8939ca8fa279f82cd92,Mężczyzna,22,2021-09-06_19h21.39.838,rantool2,2021.1.4,Win32,59.88382538,6135e006383e6ea6c3d06a28,61364dfd8aafcb39dd1cf942,,,,,,,,
f,1.4852,0,3,3,26,1,6021d8939ca8fa279f82cd92,ORROROO,ORROROR,22.02732763,21.71443381,series_0,6021d8939ca8fa279f82cd92,Mężczyzna,22,2021-09-06_19h21.39.838,rantool2,2021.1.4,Win32,59.88382538,6135e006383e6ea6c3d06a28,61364dfd8aafcb39dd1cf942,,,,,,,,
f,1.0543,0,4,4,14,1,6021d8939ca8fa279f82cd92,OORRROO,OORRROR,22.24142883,22.16977179,series_0,6021d8939ca8fa279f82cd92,Mężczyzna,22,2021-09-06_19h21.39.838,rantool2,2021.1.4,Win32,59.88382538,6135e006383e6ea6c3d06a28,61364dfd8aafcb39dd1cf942,,,,,,,,
j,0.5469,0,5,5,31,1,6021d8939ca8fa279f82cd92,ORRRRRO,ORRRRRR,22.16413392,20.74050628,series_0,6021d8939ca8fa279f82cd92,Mężczyzna,22,2021-09-06_19h21.39.838,rantool2,2021.1.4,Win32,59.88382538,6135e006383e6ea6c3d06a28,61364dfd8aafcb39dd1cf942,,,,,,,,
f,0.7486,0,6,6,63,1,6021d8939ca8fa279f82cd92,RRRRRRO,RRRRRRR,21.35278725,19.62521613,series_0,6021d8939ca8fa279f82cd92,Mężczyzna,22,2021-09-06_19h21.39.838,rantool2,2021.1.4,Win32,59.88382538,6135e006383e6ea6c3d06a28,61364dfd8aafcb39dd1cf942,,,,,,,,
j,0.6021,0,7,7,46,1,6021d8939ca8fa279f82cd92,RORRROO,RORRROR,22.00300695,21.24781509,series_0,6021d8939ca8fa279f82cd92,Mężczyzna,22,2021-09-06_19h21.39.838,rantool2,2021.1.4,Win32,59.88382538,6135e006383e6ea6c3d06a28,61364dfd8aafcb39dd1cf942,,,,,,,,
f,0.5518,0,8,8,61,1,6021d8939ca8fa279f82cd92,RRRRORO,RRRRORR,21.81333602,21.17347734,series_0,6021d8939ca8fa279f82cd92,Mężczyzna,22,2021-09-06_19h21.39.838,rantool2,2021.1.4,Win32,59.88382538,6135e006383e6ea6c3d06a28,61364dfd8aafcb39dd1cf942,,,,,,,,
j,0.6026,0,9,9,5,1,6021d8939ca8fa279f82cd92,OOORORO,OOORORR,20.87963819,21.9921709,series_1,6021d8939ca8fa279f82cd92,Mężczyzna,22,2021-09-06_19h21.39.838,rantool2,2021.1.4,Win32,59.88382538,6135e006383e6ea6c3d06a28,61364dfd8aafcb39dd1cf942,,,,,,,,
f,0.5041,0,10,10,37,1,6021d8939ca8fa279f82cd92,ROORORO,ROORORR,20.42602454,21.57657071,series_1,6021d8939ca8fa279f82cd92,Mężczyzna,22,2021-09-06_19h21.39.838,rantool2,2021.1.4,Win32,59.88382538,6135e006383e6ea6c3d06a28,61364dfd8aafcb39dd1cf942,,,,,,,,
f,1.001,0,11,11,16,1,6021d8939ca8fa279f82cd92,OROOOOO,OROOOOR,20.43051175,21.17347734,series_1,6021d8939ca8fa279f82cd92,Mężczyzna,22,2021-09-06_19h21.39.838,rantool2,2021.1.4,Win32,59.88382538,6135e006383e6ea6c3d06a28,61364dfd8aafcb39dd1cf942,,,,,,,,
j,0.5764,0,12,12,43,1,6021d8939ca8fa279f82cd92,RORORRO,RORORRR,20.71309134,21.07490964,series_1,6021d8939ca8fa279f82cd92,Mężczyzna,22,2021-09-06_19h21.39.838,rantool2,2021.1.4,Win32,59.88382538,6135e006383e6ea6c3d06a28,61364dfd8aafcb39dd1cf942,,,,,,,,
f,0.6116,0,13,13,15,1,6021d8939ca8fa279f82cd92,OORRRRO,OORRRRR,22.10108823,21.74922619,series_0,6021d8939ca8fa279f82cd92,Mężczyzna,22,2021-09-06_19h21.39.838,rantool2,2021.1.4,Win32,59.88382538,6135e006383e6ea6c3d06a28,61364dfd8aafcb39dd1cf942,,,,,,,,
j,0.6171,0,14,14,60,1,6021d8939ca8fa279f82cd92,RRRROOO,RRRROOR,22.10108823,22.15934078,series_1,6021d8939ca8fa279f82cd92,Mężczyzna,22,2021-09-06_19h21.39.838,rantool2,2021.1.4,Win32,59.88382538,6135e006383e6ea6c3d06a28,61364dfd8aafcb39dd1cf942,,,,,,,,
f,0.4626,0,15,15,48,1,6021d8939ca8fa279f82cd92,RROOOOO,RROOOOR,20.90986523,22.15934078,series_1,6021d8939ca8fa279f82cd92,Mężczyzna,22,2021-09-06_19h21.39.838,rantool2,2021.1.4,Win32,59.88382538,6135e006383e6ea6c3d06a28,61364dfd8aafcb39dd1cf942,,,,,,,,
j,0.3948,0,16,16,51,1,6021d8939ca8fa279f82cd92,RROORRO,RROORRR,21.89852628,22.02786418,series_1,6021d8939ca8fa279f82cd92,Mężczyzna,22,2021-09-06_19h21.39.838,rantool2,2021.1.4,Win32,59.88382538,6135e006383e6ea6c3d06a28,61364dfd8aafcb39dd1cf942,,,,,,,,
f,0.4846,0,17,17,10,1,6021d8939ca8fa279f82cd92,OOROROO,OOROROR,21.31236711,21.07490964,series_0,6021d8939ca8fa279f82cd92,Mężczyzna,22,2021-09-06_19h21.39.838,rantool2,2021.1.4,Win32,59.88382538,6135e006383e6ea6c3d06a28,61364dfd8aafcb39dd1cf942,,,,,,,,
j,0.4671,0,18,18,33,1,6021d8939ca8fa279f82cd92,ROOOORO,ROOOORR,20.83779602,22.03072203,series_1,6021d8939ca8fa279f82cd92,Mężczyzna,22,2021-09-06_19h21.39.838,rantool2,2021.1.4,Win32,59.88382538,6135e006383e6ea6c3d06a28,61364dfd8aafcb39dd1cf942,,,,,,,,
f,0.4586,0,19,19,44,1,6021d8939ca8fa279f82cd92,RORROOO,RORROOR,21.66733484,22.02566557,series_1,6021d8939ca8fa279f82cd92,Mężczyzna,22,2021-09-06_19h21.39.838,rantool2,2021.1.4,Win32,59.88382538,6135e006383e6ea6c3d06a28,61364dfd8aafcb39dd1cf942,,,,,,,,
j,0.4862,0,20,20,59,1,6021d8939ca8fa279f82cd92,RRRORRO,RRRORRR,21.56657303,20.89823192,series_0,6021d8939ca8fa279f82cd92,Mężczyzna,22,2021-09-06_19h21.39.838,rantool2,2021.1.4,Win32,59.88382538,6135e006383e6ea6c3d06a28,61364dfd8aafcb39dd1cf942,,,,,,,,
f,0.4593,0,21,21,23,1,6021d8939ca8fa279f82cd92,ORORRRO,ORORRRR,22.1285618,21.9921709,series_0,6021d8939ca8fa279f82cd92,Mężczyzna,22,2021-09-06_19h21.39.838,rantool2,2021.1.4,Win32,59.88382538,6135e006383e6ea6c3d06a28,61364dfd8aafcb39dd1cf942,,,,,,,,
j,0.4599,0,22,22,9,1,6021d8939ca8fa279f82cd92,OOROORO,OOROORR,21.07991943,22.2428857,series_1,6021d8939ca8fa279f82cd92,Mężczyzna,22,2021-09-06_19h21.39.838,rantool2,2021.1.4,Win32,59.88382538,6135e006383e6ea6c3d06a28,61364dfd8aafcb39dd1cf942,,,,,,,,
f,0.5054,0,23,23,45,1,6021d8939ca8fa279f82cd92,RORRORO,RORRORR,20.78182524,21.22513037,series_1,6021d8939ca8fa279f82cd92,Mężczyzna,22,2021-09-06_19h21.39.838,rantool2,2021.1.4,Win32,59.88382538,6135e006383e6ea6c3d06a28,61364dfd8aafcb39dd1cf942,,,,,,,,
j,0.4192,0,24,24,55,1,6021d8939ca8fa279f82cd92,RRORRRO,RRORRRR,21.56657303,21.21223021,series_0,6021d8939ca8fa279f82cd92,Mężczyzna,22,2021-09-06_19h21.39.838,rantool2,2021.1.4,Win32,59.88382538,6135e006383e6ea6c3d06a28,61364dfd8aafcb39dd1cf942,,,,,,,,
f,0.3962,0,25,25,6,1,6021d8939ca8fa279f82cd92,OOORROO,OOORROR,21.12383932,21.38562617,series_1,6021d8939ca8fa279f82cd92,Mężczyzna,22,2021-09-06_19h21.39.838,rantool2,2021.1.4,Win32,59.88382538,6135e006383e6ea6c3d06a28,61364dfd8aafcb39dd1cf942,,,,,,,,
j,0.5428,0,26,26,13,1,6021d8939ca8fa279f82cd92,OORRORO,OORRORR,21.66733484,22.11181017,series_1,6021d8939ca8fa279f82cd92,Mężczyzna,22,2021-09-06_19h21.39.838,rantool2,2021.1.4,Win32,59.88382538,6135e006383e6ea6c3d06a28,61364dfd8aafcb39dd1cf942,,,,,,,,
f,0.4307,0,27,27,19,1,6021d8939ca8fa279f82cd92,OROORRO,OROORRR,21.73568164,22.11181017,series_1,6021d8939ca8fa279f82cd92,Mężczyzna,22,2021-09-06_19h21.39.838,rantool2,2021.1.4,Win32,59.88382538,6135e006383e6ea6c3d06a28,61364dfd8aafcb39dd1cf942,,,,,,,,
j,0.3875,0,28,28,32,1,6021d8939ca8fa279f82cd92,ROOOOOO,ROOOOOR,19.92253567,21.27974287,series_1,6021d8939ca8fa279f82cd92,Mężczyzna,22,2021-09-06_19h21.39.838,rantool2,2021.1.4,Win32,59.88382538,6135e006383e6ea6c3d06a28,61364dfd8aafcb39dd1cf942,,,,,,,,
f,0.4343,0,29,29,53,1,6021d8939ca8fa279f82cd92,RRORORO,RRORORR,20.71309134,21.90565814,series_1,6021d8939ca8fa279f82cd92,Mężczyzna,22,2021-09-06_19h21.39.838,rantool2,2021.1.4,Win32,59.88382538,6135e006383e6ea6c3d06a28,61364dfd8aafcb39dd1cf942,,,,,,,,
j,0.4834,0,30,30,0,1,6021d8939ca8fa279f82cd92,OOOOOOO,OOOOOOR,18.52739004,19.62521613,series_1,6021d8939ca8fa279f82cd92,Mężczyzna,22,2021-09-06_19h21.39.838,rantool2,2021.1.4,Win32,59.88382538,6135e006383e6ea6c3d06a28,61364dfd8aafcb39dd1cf942,,,,,,,,
j,0.6714,0,31,31,27,1,6021d8939ca8fa279f82cd92,ORRORRO,ORRORRR,21.55250791,22.2428857,series_1,6021d8939ca8fa279f82cd92,Mężczyzna,22,2021-09-06_19h21.39.838,rantool2,2021.1.4,Win32,59.88382538,6135e006383e6ea6c3d06a28,61364dfd8aafcb39dd1cf942,,,,,,,,
f,0.3681,0,32,32,28,1,6021d8939ca8fa279f82cd92,ORRROOO,ORRROOR,22.24142883,22.53364006,series_1,6021d8939ca8fa279f82cd92,Mężczyzna,22,2021-09-06_19h21.39.838,rantool2,2021.1.4,Win32,59.88382538,6135e006383e6ea6c3d06a28,61364dfd8aafcb39dd1cf942,,,,,,,,
j,0.4513,0,33,33,18,1,6021d8939ca8fa279f82cd92,OROOROO,OROOROR,20.84860893,21.22513037,series_1,6021d8939ca8fa279f82cd92,Mężczyzna,22,2021-09-06_19h21.39.838,rantool2,2021.1.4,Win32,59.88382538,6135e006383e6ea6c3d06a28,61364dfd8aafcb39dd1cf942,,,,,,,,
f,0.3475,0,34,34,2,1,6021d8939ca8fa279f82cd92,OOOOROO,OOOOROR,20.43051175,21.02936224,series_1,6021d8939ca8fa279f82cd92,Mężczyzna,22,2021-09-06_19h21.39.838,rantool2,2021.1.4,Win32,59.88382538,6135e006383e6ea6c3d06a28,61364dfd8aafcb39dd1cf942,,,,,,,,
f,0.5095,0,35,35,7,1,6021d8939ca8fa279f82cd92,OOORRRO,OOORRRR,21.6194508,21.899017,series_1,6021d8939ca8fa279f82cd92,Mężczyzna,22,2021-09-06_19h21.39.838,rantool2,2021.1.4,Win32,59.88382538,6135e006383e6ea6c3d06a28,61364dfd8aafcb39dd1cf942,,,,,,,,
j,0.4062,0,36,36,41,1,6021d8939ca8fa279f82cd92,ROROORO,ROROORR,20.42602454,21.71443381,series_1,6021d8939ca8fa279f82cd92,Mężczyzna,22,2021-09-06_19h21.39.838,rantool2,2021.1.4,Win32,59.88382538,6135e006383e6ea6c3d06a28,61364dfd8aafcb39dd1cf942,,,,,,,,
f,0.495,0,37,37,40,1,6021d8939ca8fa279f82cd92,ROROOOO,ROROOOR,20.87963819,21.37121559,series_1,6021d8939ca8fa279f82cd92,Mężczyzna,22,2021-09-06_19h21.39.838,rantool2,2021.1.4,Win32,59.88382538,6135e006383e6ea6c3d06a28,61364dfd8aafcb39dd1cf942,,,,,,,,
f,0.5633,0,38,38,24,1,6021d8939ca8fa279f82cd92,ORROOOO,ORROOOR,21.12383932,22.07102821,series_1,6021d8939ca8fa279f82cd92,Mężczyzna,22,2021-09-06_19h21.39.838,rantool2,2021.1.4,Win32,59.88382538,6135e006383e6ea6c3d06a28,61364dfd8aafcb39dd1cf942,,,,,,,,
j,0.3722,0,39,39,29,1,6021d8939ca8fa279f82cd92,ORRRORO,ORRRORR,22.00300695,22.12173012,series_1,6021d8939ca8fa279f82cd92,Mężczyzna,22,2021-09-06_19h21.39.838,rantool2,2021.1.4,Win32,59.88382538,6135e006383e6ea6c3d06a28,61364dfd8aafcb39dd1cf942,,,,,,,,
f,0.4445,0,40,40,12,1,6021d8939ca8fa279f82cd92,OORROOO,OORROOR,21.30250474,22.02786418,series_1,6021d8939ca8fa279f82cd92,Mężczyzna,22,2021-09-06_19h21.39.838,rantool2,2021.1.4,Win32,59.88382538,6135e006383e6ea6c3d06a28,61364dfd8aafcb39dd1cf942,,,,,,,,
j,0.5841,0,41,41,38,1,6021d8939ca8fa279f82cd92,ROORROO,ROORROR,21.79500819,21.36812781,series_0,6021d8939ca8fa279f82cd92,Mężczyzna,22,2021-09-06_19h21.39.838,rantool2,2021.1.4,Win32,59.88382538,6135e006383e6ea6c3d06a28,61364dfd8aafcb39dd1cf942,,,,,,,,
f,0.3719,0,42,42,4,1,6021d8939ca8fa279f82cd92,OOOROOO,OOOROOR,19.91402015,21.21223021,series_1,6021d8939ca8fa279f82cd92,Mężczyzna,22,2021-09-06_19h21.39.838,rantool2,2021.1.4,Win32,59.88382538,6135e006383e6ea6c3d06a28,61364dfd8aafcb39dd1cf942,,,,,,,,
f,0.5664,0,43,43,11,1,6021d8939ca8fa279f82cd92,OORORRO,OORORRR,22.18365867,22.6797523,series_1,6021d8939ca8fa279f82cd92,Mężczyzna,22,2021-09-06_19h21.39.838,rantool2,2021.1.4,Win32,59.88382538,6135e006383e6ea6c3d06a28,61364dfd8aafcb39dd1cf942,,,,,,,,
j,0.3591,0,44,44,39,1,6021d8939ca8fa279f82cd92,ROORRRO,ROORRRR,21.82425538,21.38562617,series_0,6021d8939ca8fa279f82cd92,Mężczyzna,22,2021-09-06_19h21.39.838,rantool2,2021.1.4,Win32,59.88382538,6135e006383e6ea6c3d06a28,61364dfd8aafcb39dd1cf942,,,,,,,,
f,0.4165,0,45,45,52,1,6021d8939ca8fa279f82cd92,RROROOO,RROROOR,22.18365867,22.11097995,series_0,6021d8939ca8fa279f82cd92,Mężczyzna,22,2021-09-06_19h21.39.838,rantool2,2021.1.4,Win32,59.88382538,6135e006383e6ea6c3d06a28,61364dfd8aafcb39dd1cf942,,,,,,,,
j,0.506,0,46,46,1,1,6021d8939ca8fa279f82cd92,OOOOORO,OOOOORR,19.92253567,20.74050628,series_1,6021d8939ca8fa279f82cd92,Mężczyzna,22,2021-09-06_19h21.39.838,rantool2,2021.1.4,Win32,59.88382538,6135e006383e6ea6c3d06a28,61364dfd8aafcb39dd1cf942,,,,,,,,
f,0.3849,0,47,47,20,1,6021d8939ca8fa279f82cd92,OROROOO,OROROOR,21.31236711,21.90565814,series_1,6021d8939ca8fa279f82cd92,Mężczyzna,22,2021-09-06_19h21.39.838,rantool2,2021.1.4,Win32,59.88382538,6135e006383e6ea6c3d06a28,61364dfd8aafcb39dd1cf942,,,,,,,,
j,0.371,0,48,48,8,1,6021d8939ca8fa279f82cd92,OOROOOO,OOROOOR,19.91402015,20.89823192,series_1,6021d8939ca8fa279f82cd92,Mężczyzna,22,2021-09-06_19h21.39.838,rantool2,2021.1.4,Win32,59.88382538,6135e006383e6ea6c3d06a28,61364dfd8aafcb39dd1cf942,,,,,,,,
f,0.3875,0,49,49,25,1,6021d8939ca8fa279f82cd92,ORROORO,ORROORR,21.79500819,22.61624387,series_1,6021d8939ca8fa279f82cd92,Mężczyzna,22,2021-09-06_19h21.39.838,rantool2,2021.1.4,Win32,59.88382538,6135e006383e6ea6c3d06a28,61364dfd8aafcb39dd1cf942,,,,,,,,
j,0.461,0,50,50,30,1,6021d8939ca8fa279f82cd92,ORRRROO,ORRRROR,22.46748491,22.03072203,series_0,6021d8939ca8fa279f82cd92,Mężczyzna,22,2021-09-06_19h21.39.838,rantool2,2021.1.4,Win32,59.88382538,6135e006383e6ea6c3d06a28,61364dfd8aafcb39dd1cf942,,,,,,,,
f,0.2884,0,51,51,22,1,6021d8939ca8fa279f82cd92,ORORROO,ORORROR,22.02732763,21.57657071,series_0,6021d8939ca8fa279f82cd92,Mężczyzna,22,2021-09-06_19h21.39.838,rantool2,2021.1.4,Win32,59.88382538,6135e006383e6ea6c3d06a28,61364dfd8aafcb39dd1cf942,,,,,,,,
j,0.4712,0,52,52,49,1,6021d8939ca8fa279f82cd92,RROOORO,RROOORR,21.76276513,22.53364006,series_1,6021d8939ca8fa279f82cd92,Mężczyzna,22,2021-09-06_19h21.39.838,rantool2,2021.1.4,Win32,59.88382538,6135e006383e6ea6c3d06a28,61364dfd8aafcb39dd1cf942,,,,,,,,
f,0.25,0,53,53,54,1,6021d8939ca8fa279f82cd92,RRORROO,RRORROR,21.55250791,20.9984461,series_0,6021d8939ca8fa279f82cd92,Mężczyzna,22,2021-09-06_19h21.39.838,rantool2,2021.1.4,Win32,59.88382538,6135e006383e6ea6c3d06a28,61364dfd8aafcb39dd1cf942,,,,,,,,
j,0.4036,0,54,54,58,1,6021d8939ca8fa279f82cd92,RRROROO,RRROROR,22.1285618,21.37121559,series_0,6021d8939ca8fa279f82cd92,Mężczyzna,22,2021-09-06_19h21.39.838,rantool2,2021.1.4,Win32,59.88382538,6135e006383e6ea6c3d06a28,61364dfd8aafcb39dd1cf942,,,,,,,,
f,0.304,0,55,55,36,1,6021d8939ca8fa279f82cd92,ROOROOO,ROOROOR,21.07991943,20.9984461,series_0,6021d8939ca8fa279f82cd92,Mężczyzna,22,2021-09-06_19h21.39.838,rantool2,2021.1.4,Win32,59.88382538,6135e006383e6ea6c3d06a28,61364dfd8aafcb39dd1cf942,,,,,,,,
j,0.4097,0,56,56,47,1,6021d8939ca8fa279f82cd92,RORRRRO,RORRRRR,21.81333602,21.02936224,series_0,6021d8939ca8fa279f82cd92,Mężczyzna,22,2021-09-06_19h21.39.838,rantool2,2021.1.4,Win32,59.88382538,6135e006383e6ea6c3d06a28,61364dfd8aafcb39dd1cf942,,,,,,,,
f,0.6119,0,57,57,62,1,6021d8939ca8fa279f82cd92,RRRRROO,RRRRROR,22.16413392,21.27974287,series_0,6021d8939ca8fa279f82cd92,Mężczyzna,22,2021-09-06_19h21.39.838,rantool2,2021.1.4,Win32,59.88382538,6135e006383e6ea6c3d06a28,61364dfd8aafcb39dd1cf942,,,,,,,,
j,0.4053,0,58,58,17,1,6021d8939ca8fa279f82cd92,OROOORO,OROOORR,21.03750787,22.12173012,series_1,6021d8939ca8fa279f82cd92,Mężczyzna,22,2021-09-06_19h21.39.838,rantool2,2021.1.4,Win32,59.88382538,6135e006383e6ea6c3d06a28,61364dfd8aafcb39dd1cf942,,,,,,,,
f,0.5516,0,59,59,34,1,6021d8939ca8fa279f82cd92,ROOOROO,ROOOROR,21.03750787,21.24781509,series_1,6021d8939ca8fa279f82cd92,Mężczyzna,22,2021-09-06_19h21.39.838,rantool2,2021.1.4,Win32,59.88382538,6135e006383e6ea6c3d06a28,61364dfd8aafcb39dd1cf942,,,,,,,,
j,0.3608,0,60,60,42,1,6021d8939ca8fa279f82cd92,ROROROO,ROROROR,20.39515459,19.8361834,series_0,6021d8939ca8fa279f82cd92,Mężczyzna,22,2021-09-06_19h21.39.838,rantool2,2021.1.4,Win32,59.88382538,6135e006383e6ea6c3d06a28,61364dfd8aafcb39dd1cf942,,,,,,,,
f,0.403,0,61,61,57,1,6021d8939ca8fa279f82cd92,RRROORO,RRROORR,21.82425538,22.07102821,series_1,6021d8939ca8fa279f82cd92,Mężczyzna,22,2021-09-06_19h21.39.838,rantool2,2021.1.4,Win32,59.88382538,6135e006383e6ea6c3d06a28,61364dfd8aafcb39dd1cf942,,,,,,,,
f,0.8504,0,62,62,56,1,6021d8939ca8fa279f82cd92,RRROOOO,RRROOOR,21.6194508,22.31681875,series_1,6021d8939ca8fa279f82cd92,Mężczyzna,22,2021-09-06_19h21.39.838,rantool2,2021.1.4,Win32,59.88382538,6135e006383e6ea6c3d06a28,61364dfd8aafcb39dd1cf942,,,,,,,,
j,0.4659,0,63,63,50,1,6021d8939ca8fa279f82cd92,RROOROO,RROOROR,21.73568164,22.02566557,series_1,6021d8939ca8fa279f82cd92,Mężczyzna,22,2021-09-06_19h21.39.838,rantool2,2021.1.4,Win32,59.88382538,6135e006383e6ea6c3d06a28,61364dfd8aafcb39dd1cf942,,,,,,,,
,,,,,,,6021d8939ca8fa279f82cd92,,,,,,6021d8939ca8fa279f82cd92,Mężczyzna,22,2021-09-06_19h21.39.838,rantool2,2021.1.4,Win32,59.88382538,6135e006383e6ea6c3d06a28,61364dfd8aafcb39dd1cf942,"[""comma""]",0,[0.6712000002861203],0,0,0,0,1
,,,,,,,6021d8939ca8fa279f82cd92,,,,,,6021d8939ca8fa279f82cd92,Mężczyzna,22,2021-09-06_19h21.39.838,rantool2,2021.1.4,Win32,59.88382538,6135e006383e6ea6c3d06a28,61364dfd8aafcb39dd1cf942,"[""period"",""comma""]",0,"[0.10029999971391135,0.5922999997139016]",1,0,1,0,1
,,,,,,,6021d8939ca8fa279f82cd92,,,,,,6021d8939ca8fa279f82cd92,Mężczyzna,22,2021-09-06_19h21.39.838,rantool2,2021.1.4,Win32,59.88382538,6135e006383e6ea6c3d06a28,61364dfd8aafcb39dd1cf942,"[""comma""]",0,[1.3902000002861143],2,0,2,0,1
,,,,,,,6021d8939ca8fa279f82cd92,,,,,,6021d8939ca8fa279f82cd92,Mężczyzna,22,2021-09-06_19h21.39.838,rantool2,2021.1.4,Win32,59.88382538,6135e006383e6ea6c3d06a28,61364dfd8aafcb39dd1cf942,"[""period""]",0,[1.7580999999046298],3,0,3,0,1
,,,,,,,6021d8939ca8fa279f82cd92,,,,,,6021d8939ca8fa279f82cd92,Mężczyzna,22,2021-09-06_19h21.39.838,rantool2,2021.1.4,Win32,59.88382538,6135e006383e6ea6c3d06a28,61364dfd8aafcb39dd1cf942,"[""comma""]",0,[1.397600000381459],4,0,4,0,1
,,,,,,,6021d8939ca8fa279f82cd92,,,,,,6021d8939ca8fa279f82cd92,Mężczyzna,22,2021-09-06_19h21.39.838,rantool2,2021.1.4,Win32,59.88382538,6135e006383e6ea6c3d06a28,61364dfd8aafcb39dd1cf942,"[""comma""]",0,[1.086900000095369],5,0,5,0,1
,,,,,,,6021d8939ca8fa279f82cd92,,,,,,6021d8939ca8fa279f82cd92,Mężczyzna,22,2021-09-06_19h21.39.838,rantool2,2021.1.4,Win32,59.88382538,6135e006383e6ea6c3d06a28,61364dfd8aafcb39dd1cf942,"[""period""]",0,[1.1008999996185196],6,0,6,0,1
,,,,,,,6021d8939ca8fa279f82cd92,,,,,,6021d8939ca8fa279f82cd92,Mężczyzna,22,2021-09-06_19h21.39.838,rantool2,2021.1.4,Win32,59.88382538,6135e006383e6ea6c3d06a28,61364dfd8aafcb39dd1cf942,"[""comma""]",0,[0.9508999996185423],7,0,7,0,1
,,,,,,,6021d8939ca8fa279f82cd92,,,,,,6021d8939ca8fa279f82cd92,Mężczyzna,22,2021-09-06_19h21.39.838,rantool2,2021.1.4,Win32,59.88382538,6135e006383e6ea6c3d06a28,61364dfd8aafcb39dd1cf942,"[""comma""]",0,[1.0415000000000134],8,0,8,0,1
,,,,,,,6021d8939ca8fa279f82cd92,,,,,,6021d8939ca8fa279f82cd92,Mężczyzna,22,2021-09-06_19h21.39.838,rantool2,2021.1.4,Win32,59.88382538,6135e006383e6ea6c3d06a28,61364dfd8aafcb39dd1cf942,"[""period""]",0,[1.0697999997138936],9,0,9,0,1
,,,,,,,6021d8939ca8fa279f82cd92,,,,,,6021d8939ca8fa279f82cd92,Mężczyzna,22,2021-09-06_19h21.39.838,rantool2,2021.1.4,Win32,59.88382538,6135e006383e6ea6c3d06a28,61364dfd8aafcb39dd1cf942,"[""comma""]",0,[1.0600000000000023],10,0,10,0,1
,,,,,,,6021d8939ca8fa279f82cd92,,,,,,6021d8939ca8fa279f82cd92,Mężczyzna,22,2021-09-06_19h21.39.838,rantool2,2021.1.4,Win32,59.88382538,6135e006383e6ea6c3d06a28,61364dfd8aafcb39dd1cf942,"[""period""]",0,[1.1000999999046144],11,0,11,0,1
,,,,,,,6021d8939ca8fa279f82cd92,,,,,,6021d8939ca8fa279f82cd92,Mężczyzna,22,2021-09-06_19h21.39.838,rantool2,2021.1.4,Win32,59.88382538,6135e006383e6ea6c3d06a28,61364dfd8aafcb39dd1cf942,"[""period""]",0,[1.0219000000953713],12,0,12,0,1
,,,,,,,6021d8939ca8fa279f82cd92,,,,,,6021d8939ca8fa279f82cd92,Mężczyzna,22,2021-09-06_19h21.39.838,rantool2,2021.1.4,Win32,59.88382538,6135e006383e6ea6c3d06a28,61364dfd8aafcb39dd1cf942,"[""period""]",0,[1.0348000001907565],13,0,13,0,1
,,,,,,,6021d8939ca8fa279f82cd92,,,,,,6021d8939ca8fa279f82cd92,Mężczyzna,22,2021-09-06_19h21.39.838,rantool2,2021.1.4,Win32,59.88382538,6135e006383e6ea6c3d06a28,61364dfd8aafcb39dd1cf942,"[""period""]",0,[0.9750999999046428],14,0,14,0,1
,,,,,,,6021d8939ca8fa279f82cd92,,,,,,6021d8939ca8fa279f82cd92,Mężczyzna,22,2021-09-06_19h21.39.838,rantool2,2021.1.4,Win32,59.88382538,6135e006383e6ea6c3d06a28,61364dfd8aafcb39dd1cf942,"[""comma""]",0,[1.0022000002861091],15,0,15,0,1
,,,,,,,6021d8939ca8fa279f82cd92,,,,,,6021d8939ca8fa279f82cd92,Mężczyzna,22,2021-09-06_19h21.39.838,rantool2,2021.1.4,Win32,59.88382538,6135e006383e6ea6c3d06a28,61364dfd8aafcb39dd1cf942,"[""period""]",0,[0.9374000000953515],16,0,16,0,1
,,,,,,,6021d8939ca8fa279f82cd92,,,,,,6021d8939ca8fa279f82cd92,Mężczyzna,22,2021-09-06_19h21.39.838,rantool2,2021.1.4,Win32,59.88382538,6135e006383e6ea6c3d06a28,61364dfd8aafcb39dd1cf942,"[""comma""]",0,[0.9492999997139009],17,0,17,0,1
,,,,,,,6021d8939ca8fa279f82cd92,,,,,,6021d8939ca8fa279f82cd92,Mężczyzna,22,2021-09-06_19h21.39.838,rantool2,2021.1.4,Win32,59.88382538,6135e006383e6ea6c3d06a28,61364dfd8aafcb39dd1cf942,"[""comma""]",0,[1.0458999996185128],18,0,18,0,1
,,,,,,,6021d8939ca8fa279f82cd92,,,,,,6021d8939ca8fa279f82cd92,Mężczyzna,22,2021-09-06_19h21.39.838,rantool2,2021.1.4,Win32,59.88382538,6135e006383e6ea6c3d06a28,61364dfd8aafcb39dd1cf942,"[""comma""]",0,[0.9735999999046214],19,0,19,0,1
,,,,,,,6021d8939ca8fa279f82cd92,,,,,,6021d8939ca8fa279f82cd92,Mężczyzna,22,2021-09-06_19h21.39.838,rantool2,2021.1.4,Win32,59.88382538,6135e006383e6ea6c3d06a28,61364dfd8aafcb39dd1cf942,"[""comma""]",0,[0.870100000381484],20,0,20,0,1
,,,,,,,6021d8939ca8fa279f82cd92,,,,,,6021d8939ca8fa279f82cd92,Mężczyzna,22,2021-09-06_19h21.39.838,rantool2,2021.1.4,Win32,59.88382538,6135e006383e6ea6c3d06a28,61364dfd8aafcb39dd1cf942,"[""comma""]",0,[0.9504000000953567],21,0,21,0,1
,,,,,,,6021d8939ca8fa279f82cd92,,,,,,6021d8939ca8fa279f82cd92,Mężczyzna,22,2021-09-06_19h21.39.838,rantool2,2021.1.4,Win32,59.88382538,6135e006383e6ea6c3d06a28,61364dfd8aafcb39dd1cf942,"[""comma""]",0,[0.9935999999046317],22,0,22,0,1
,,,,,,,6021d8939ca8fa279f82cd92,,,,,,6021d8939ca8fa279f82cd92,Mężczyzna,22,2021-09-06_19h21.39.838,rantool2,2021.1.4,Win32,59.88382538,6135e006383e6ea6c3d06a28,61364dfd8aafcb39dd1cf942,"[""period""]",0,[0.9904000000953488],23,0,23,0,1
,,,,,,,6021d8939ca8fa279f82cd92,,,,,,6021d8939ca8fa279f82cd92,Mężczyzna,22,2021-09-06_19h21.39.838,rantool2,2021.1.4,Win32,59.88382538,6135e006383e6ea6c3d06a28,61364dfd8aafcb39dd1cf942,"[""period""]",0,[1.177500000000009],24,0,24,0,1
,,,,,,,6021d8939ca8fa279f82cd92,,,,,,6021d8939ca8fa279f82cd92,Mężczyzna,22,2021-09-06_19h21.39.838,rantool2,2021.1.4,Win32,59.88382538,6135e006383e6ea6c3d06a28,61364dfd8aafcb39dd1cf942,"[""comma""]",0,[1.0387999997139445],25,0,25,0,1
,,,,,,,6021d8939ca8fa279f82cd92,,,,,,6021d8939ca8fa279f82cd92,Mężczyzna,22,2021-09-06_19h21.39.838,rantool2,2021.1.4,Win32,59.88382538,6135e006383e6ea6c3d06a28,61364dfd8aafcb39dd1cf942,"[""period""]",0,[0.977299999713864],26,0,26,0,1
,,,,,,,6021d8939ca8fa279f82cd92,,,,,,6021d8939ca8fa279f82cd92,Mężczyzna,22,2021-09-06_19h21.39.838,rantool2,2021.1.4,Win32,59.88382538,6135e006383e6ea6c3d06a28,61364dfd8aafcb39dd1cf942,"[""comma""]",0,[0.9806999998093033],27,0,27,0,1
,,,,,,,6021d8939ca8fa279f82cd92,,,,,,6021d8939ca8fa279f82cd92,Mężczyzna,22,2021-09-06_19h21.39.838,rantool2,2021.1.4,Win32,59.88382538,6135e006383e6ea6c3d06a28,61364dfd8aafcb39dd1cf942,"[""comma""]",0,[0.8673000001907099],28,0,28,0,1
,,,,,,,6021d8939ca8fa279f82cd92,,,,,,6021d8939ca8fa279f82cd92,Mężczyzna,22,2021-09-06_19h21.39.838,rantool2,2021.1.4,Win32,59.88382538,6135e006383e6ea6c3d06a28,61364dfd8aafcb39dd1cf942,"[""comma""]",0,[0.9570000000000505],29,0,29,0,1
,,,,,,,6021d8939ca8fa279f82cd92,,,,,,6021d8939ca8fa279f82cd92,Mężczyzna,22,2021-09-06_19h21.39.838,rantool2,2021.1.4,Win32,59.88382538,6135e006383e6ea6c3d06a28,61364dfd8aafcb39dd1cf942,"[""comma""]",0,[0.9582000002860696],30,0,30,0,1
,,,,,,,6021d8939ca8fa279f82cd92,,,,,,6021d8939ca8fa279f82cd92,Mężczyzna,22,2021-09-06_19h21.39.838,rantool2,2021.1.4,Win32,59.88382538,6135e006383e6ea6c3d06a28,61364dfd8aafcb39dd1cf942,"[""period""]",0,[0.916699999809282],31,0,31,0,1
,,,,,,,6021d8939ca8fa279f82cd92,,,,,,6021d8939ca8fa279f82cd92,Mężczyzna,22,2021-09-06_19h21.39.838,rantool2,2021.1.4,Win32,59.88382538,6135e006383e6ea6c3d06a28,61364dfd8aafcb39dd1cf942,"[""period""]",0,[1.020699999809267],32,0,32,0,1
,,,,,,,6021d8939ca8fa279f82cd92,,,,,,6021d8939ca8fa279f82cd92,Mężczyzna,22,2021-09-06_19h21.39.838,rantool2,2021.1.4,Win32,59.88382538,6135e006383e6ea6c3d06a28,61364dfd8aafcb39dd1cf942,"[""period""]",0,[0.8520999999046239],33,0,33,0,1
,,,,,,,6021d8939ca8fa279f82cd92,,,,,,6021d8939ca8fa279f82cd92,Mężczyzna,22,2021-09-06_19h21.39.838,rantool2,2021.1.4,Win32,59.88382538,6135e006383e6ea6c3d06a28,61364dfd8aafcb39dd1cf942,"[""period""]",0,[1.0185000000000173],34,0,34,0,1
,,,,,,,6021d8939ca8fa279f82cd92,,,,,,6021d8939ca8fa279f82cd92,Mężczyzna,22,2021-09-06_19h21.39.838,rantool2,2021.1.4,Win32,59.88382538,6135e006383e6ea6c3d06a28,61364dfd8aafcb39dd1cf942,"[""period""]",0,[1.0056999998092238],35,0,35,0,1
,,,,,,,6021d8939ca8fa279f82cd92,,,,,,6021d8939ca8fa279f82cd92,Mężczyzna,22,2021-09-06_19h21.39.838,rantool2,2021.1.4,Win32,59.88382538,6135e006383e6ea6c3d06a28,61364dfd8aafcb39dd1cf942,"[""comma""]",0,[1.046900000095377],36,0,36,0,1
,,,,,,,6021d8939ca8fa279f82cd92,,,,,,6021d8939ca8fa279f82cd92,Mężczyzna,22,2021-09-06_19h21.39.838,rantool2,2021.1.4,Win32,59.88382538,6135e006383e6ea6c3d06a28,61364dfd8aafcb39dd1cf942,"[""comma""]",0,[0.7091000003815111],37,0,37,0,1
,,,,,,,6021d8939ca8fa279f82cd92,,,,,,6021d8939ca8fa279f82cd92,Mężczyzna,22,2021-09-06_19h21.39.838,rantool2,2021.1.4,Win32,59.88382538,6135e006383e6ea6c3d06a28,61364dfd8aafcb39dd1cf942,"[""period""]",0,[1.0013999996185134],38,0,38,0,1
,,,,,,,6021d8939ca8fa279f82cd92,,,,,,6021d8939ca8fa279f82cd92,Mężczyzna,22,2021-09-06_19h21.39.838,rantool2,2021.1.4,Win32,59.88382538,6135e006383e6ea6c3d06a28,61364dfd8aafcb39dd1cf942,"[""comma""]",0,[0.5867999997139464],39,0,39,0,1
,,,,,,,6021d8939ca8fa279f82cd92,,,,,,6021d8939ca8fa279f82cd92,Mężczyzna,22,2021-09-06_19h21.39.838,rantool2,2021.1.4,Win32,59.88382538,6135e006383e6ea6c3d06a28,61364dfd8aafcb39dd1cf942,"[""period""]",0,[0.6438999996185544],40,0,40,0,1
,,,,,,,6021d8939ca8fa279f82cd92,,,,,,6021d8939ca8fa279f82cd92,Mężczyzna,22,2021-09-06_19h21.39.838,rantool2,2021.1.4,Win32,59.88382538,6135e006383e6ea6c3d06a28,61364dfd8aafcb39dd1cf942,"[""comma""]",0,[0.9809999999999945],41,0,41,0,1
,,,,,,,6021d8939ca8fa279f82cd92,,,,,,6021d8939ca8fa279f82cd92,Mężczyzna,22,2021-09-06_19h21.39.838,rantool2,2021.1.4,Win32,59.88382538,6135e006383e6ea6c3d06a28,61364dfd8aafcb39dd1cf942,"[""period""]",0,[0.9456999998092783],42,0,42,0,1
,,,,,,,6021d8939ca8fa279f82cd92,,,,,,6021d8939ca8fa279f82cd92,Mężczyzna,22,2021-09-06_19h21.39.838,rantool2,2021.1.4,Win32,59.88382538,6135e006383e6ea6c3d06a28,61364dfd8aafcb39dd1cf942,"[""comma""]",0,[1.1921999998092474],43,0,43,0,1
,,,,,,,6021d8939ca8fa279f82cd92,,,,,,6021d8939ca8fa279f82cd92,Mężczyzna,22,2021-09-06_19h21.39.838,rantool2,2021.1.4,Win32,59.88382538,6135e006383e6ea6c3d06a28,61364dfd8aafcb39dd1cf942,"[""period""]",0,[0.9995999999046603],44,0,44,0,1
,,,,,,,6021d8939ca8fa279f82cd92,,,,,,6021d8939ca8fa279f82cd92,Mężczyzna,22,2021-09-06_19h21.39.838,rantool2,2021.1.4,Win32,59.88382538,6135e006383e6ea6c3d06a28,61364dfd8aafcb39dd1cf942,"[""comma""]",0,[0.9730999999046617],45,0,45,0,1
,,,,,,,6021d8939ca8fa279f82cd92,,,,,,6021d8939ca8fa279f82cd92,Mężczyzna,22,2021-09-06_19h21.39.838,rantool2,2021.1.4,Win32,59.88382538,6135e006383e6ea6c3d06a28,61364dfd8aafcb39dd1cf942,"[""period""]",0,[0.9580999999046185],46,0,46,0,1
,,,,,,,6021d8939ca8fa279f82cd92,,,,,,6021d8939ca8fa279f82cd92,Mężczyzna,22,2021-09-06_19h21.39.838,rantool2,2021.1.4,Win32,59.88382538,6135e006383e6ea6c3d06a28,61364dfd8aafcb39dd1cf942,"[""comma""]",0,[0.9449999999999932],47,0,47,0,1
,,,,,,,6021d8939ca8fa279f82cd92,,,,,,6021d8939ca8fa279f82cd92,Mężczyzna,22,2021-09-06_19h21.39.838,rantool2,2021.1.4,Win32,59.88382538,6135e006383e6ea6c3d06a28,61364dfd8aafcb39dd1cf942,"[""comma""]",0,[1.021000000000015],48,0,48,0,1
,,,,,,,6021d8939ca8fa279f82cd92,,,,,,6021d8939ca8fa279f82cd92,Mężczyzna,22,2021-09-06_19h21.39.838,rantool2,2021.1.4,Win32,59.88382538,6135e006383e6ea6c3d06a28,61364dfd8aafcb39dd1cf942,"[""comma""]",0,[1.0221000003814993],49,0,49,0,1
,,,,,,,6021d8939ca8fa279f82cd92,,,,,,6021d8939ca8fa279f82cd92,Mężczyzna,22,2021-09-06_19h21.39.838,rantool2,2021.1.4,Win32,59.88382538,6135e006383e6ea6c3d06a28,61364dfd8aafcb39dd1cf942,"[""period""]",0,[0.9370999999046035],50,0,50,0,1
,,,,,,,6021d8939ca8fa279f82cd92,,,,,,6021d8939ca8fa279f82cd92,Mężczyzna,22,2021-09-06_19h21.39.838,rantool2,2021.1.4,Win32,59.88382538,6135e006383e6ea6c3d06a28,61364dfd8aafcb39dd1cf942,"[""period""]",0,[0.9663000001907562],51,0,51,0,1
,,,,,,,6021d8939ca8fa279f82cd92,,,,,,6021d8939ca8fa279f82cd92,Mężczyzna,22,2021-09-06_19h21.39.838,rantool2,2021.1.4,Win32,59.88382538,6135e006383e6ea6c3d06a28,61364dfd8aafcb39dd1cf942,"[""period""]",0,[0.9711000003814547],52,0,52,0,1
,,,,,,,6021d8939ca8fa279f82cd92,,,,,,6021d8939ca8fa279f82cd92,Mężczyzna,22,2021-09-06_19h21.39.838,rantool2,2021.1.4,Win32,59.88382538,6135e006383e6ea6c3d06a28,61364dfd8aafcb39dd1cf942,"[""period""]",0,[0.9064000000954024],53,0,53,0,1
,,,,,,,6021d8939ca8fa279f82cd92,,,,,,6021d8939ca8fa279f82cd92,Mężczyzna,22,2021-09-06_19h21.39.838,rantool2,2021.1.4,Win32,59.88382538,6135e006383e6ea6c3d06a28,61364dfd8aafcb39dd1cf942,"[""period""]",0,[1.0149000000953947],54,0,54,0,1
,,,,,,,6021d8939ca8fa279f82cd92,,,,,,6021d8939ca8fa279f82cd92,Mężczyzna,22,2021-09-06_19h21.39.838,rantool2,2021.1.4,Win32,59.88382538,6135e006383e6ea6c3d06a28,61364dfd8aafcb39dd1cf942,0,0,,55,0,55,0,1
,,,,,,,6021d8939ca8fa279f82cd92,,,,,,6021d8939ca8fa279f82cd92,Mężczyzna,22,2021-09-06_19h21.39.838,rantool2,2021.1.4,Win32,59.88382538,6135e006383e6ea6c3d06a28,61364dfd8aafcb39dd1cf942,"[""period""]",0,[0.21659999990464485],56,0,56,0,1
,,,,,,,6021d8939ca8fa279f82cd92,,,,,,6021d8939ca8fa279f82cd92,Mężczyzna,22,2021-09-06_19h21.39.838,rantool2,2021.1.4,Win32,59.88382538,6135e006383e6ea6c3d06a28,61364dfd8aafcb39dd1cf942,"[""comma""]",0,[0.9853000001907048],57,0,57,0,1
,,,,,,,6021d8939ca8fa279f82cd92,,,,,,6021d8939ca8fa279f82cd92,Mężczyzna,22,2021-09-06_19h21.39.838,rantool2,2021.1.4,Win32,59.88382538,6135e006383e6ea6c3d06a28,61364dfd8aafcb39dd1cf942,"[""comma""]",0,[1.1065999999046312],58,0,58,0,1
,,,,,,,6021d8939ca8fa279f82cd92,,,,,,6021d8939ca8fa279f82cd92,Mężczyzna,22,2021-09-06_19h21.39.838,rantool2,2021.1.4,Win32,59.88382538,6135e006383e6ea6c3d06a28,61364dfd8aafcb39dd1cf942,"[""comma""]",0,[1.9680000000000177],59,0,59,0,1
,,,,,,,6021d8939ca8fa279f82cd92,,,,,,6021d8939ca8fa279f82cd92,Mężczyzna,22,2021-09-06_19h21.39.838,rantool2,2021.1.4,Win32,59.88382538,6135e006383e6ea6c3d06a28,61364dfd8aafcb39dd1cf942,"[""period""]",0,[1.285000000000025],60,0,60,0,1
,,,,,,,6021d8939ca8fa279f82cd92,,,,,,6021d8939ca8fa279f82cd92,Mężczyzna,22,2021-09-06_19h21.39.838,rantool2,2021.1.4,Win32,59.88382538,6135e006383e6ea6c3d06a28,61364dfd8aafcb39dd1cf942,"[""comma""]",0,[1.4075000000000273],61,0,61,0,1
,,,,,,,6021d8939ca8fa279f82cd92,,,,,,6021d8939ca8fa279f82cd92,Mężczyzna,22,2021-09-06_19h21.39.838,rantool2,2021.1.4,Win32,59.88382538,6135e006383e6ea6c3d06a28,61364dfd8aafcb39dd1cf942,"[""period""]",0,[1.2106000003814756],62,0,62,0,1
,,,,,,,6021d8939ca8fa279f82cd92,,,,,,6021d8939ca8fa279f82cd92,Mężczyzna,22,2021-09-06_19h21.39.838,rantool2,2021.1.4,Win32,59.88382538,6135e006383e6ea6c3d06a28,61364dfd8aafcb39dd1cf942,"[""comma""]",0,[1.0092000002861141],63,0,63,0,1
,,,,,,,6021d8939ca8fa279f82cd92,,,,,,6021d8939ca8fa279f82cd92,Mężczyzna,22,2021-09-06_19h21.39.838,rantool2,2021.1.4,Win32,59.88382538,6135e006383e6ea6c3d06a28,61364dfd8aafcb39dd1cf942,"[""period""]",0,[1.0151000003814374],64,0,64,0,1
,,,,,,,6021d8939ca8fa279f82cd92,,,,,,6021d8939ca8fa279f82cd92,Mężczyzna,22,2021-09-06_19h21.39.838,rantool2,2021.1.4,Win32,59.88382538,6135e006383e6ea6c3d06a28,61364dfd8aafcb39dd1cf942,"[""comma""]",0,[1.0921999998092815],65,0,65,0,1
,,,,,,,6021d8939ca8fa279f82cd92,,,,,,6021d8939ca8fa279f82cd92,Mężczyzna,22,2021-09-06_19h21.39.838,rantool2,2021.1.4,Win32,59.88382538,6135e006383e6ea6c3d06a28,61364dfd8aafcb39dd1cf942,0,0,,66,0,66,0,1
,,,,,,,6021d8939ca8fa279f82cd92,,,,,,6021d8939ca8fa279f82cd92,Mężczyzna,22,2021-09-06_19h21.39.838,rantool2,2021.1.4,Win32,59.88382538,6135e006383e6ea6c3d06a28,61364dfd8aafcb39dd1cf942,"[""period""]",0,[1.021300000190763],67,0,67,0,1
,,,,,,,6021d8939ca8fa279f82cd92,,,,,,6021d8939ca8fa279f82cd92,Mężczyzna,22,2021-09-06_19h21.39.838,rantool2,2021.1.4,Win32,59.88382538,6135e006383e6ea6c3d06a28,61364dfd8aafcb39dd1cf942,"[""comma""]",0,[1.0202999997138704],68,0,68,0,1
,,,,,,,6021d8939ca8fa279f82cd92,,,,,,6021d8939ca8fa279f82cd92,Mężczyzna,22,2021-09-06_19h21.39.838,rantool2,2021.1.4,Win32,59.88382538,6135e006383e6ea6c3d06a28,61364dfd8aafcb39dd1cf942,"[""comma""]",0,[1.0426999998092583],69,0,69,0,1
,,,,,,,6021d8939ca8fa279f82cd92,,,,,,6021d8939ca8fa279f82cd92,Mężczyzna,22,2021-09-06_19h21.39.838,rantool2,2021.1.4,Win32,59.88382538,6135e006383e6ea6c3d06a28,61364dfd8aafcb39dd1cf942,"[""comma""]",0,[0.9461999998092665],70,0,70,0,1
,,,,,,,6021d8939ca8fa279f82cd92,,,,,,6021d8939ca8fa279f82cd92,Mężczyzna,22,2021-09-06_19h21.39.838,rantool2,2021.1.4,Win32,59.88382538,6135e006383e6ea6c3d06a28,61364dfd8aafcb39dd1cf942,"[""period""]",0,[1.074900000095397],71,0,71,0,1
,,,,,,,6021d8939ca8fa279f82cd92,,,,,,6021d8939ca8fa279f82cd92,Mężczyzna,22,2021-09-06_19h21.39.838,rantool2,2021.1.4,Win32,59.88382538,6135e006383e6ea6c3d06a28,61364dfd8aafcb39dd1cf942,"[""period""]",0,[0.9845999999046171],72,0,72,0,1
,,,,,,,6021d8939ca8fa279f82cd92,,,,,,6021d8939ca8fa279f82cd92,Mężczyzna,22,2021-09-06_19h21.39.838,rantool2,2021.1.4,Win32,59.88382538,6135e006383e6ea6c3d06a28,61364dfd8aafcb39dd1cf942,"[""comma""]",0,[1.0548000001907667],73,0,73,0,1
,,,,,,,6021d8939ca8fa279f82cd92,,,,,,6021d8939ca8fa279f82cd92,Mężczyzna,22,2021-09-06_19h21.39.838,rantool2,2021.1.4,Win32,59.88382538,6135e006383e6ea6c3d06a28,61364dfd8aafcb39dd1cf942,"[""period""]",0,[1.0687000002861282],74,0,74,0,1
,,,,,,,6021d8939ca8fa279f82cd92,,,,,,6021d8939ca8fa279f82cd92,Mężczyzna,22,2021-09-06_19h21.39.838,rantool2,2021.1.4,Win32,59.88382538,6135e006383e6ea6c3d06a28,61364dfd8aafcb39dd1cf942,"[""comma""]",0,[0.9171999998092701],75,0,75,0,1
,,,,,,,6021d8939ca8fa279f82cd92,,,,,,6021d8939ca8fa279f82cd92,Mężczyzna,22,2021-09-06_19h21.39.838,rantool2,2021.1.4,Win32,59.88382538,6135e006383e6ea6c3d06a28,61364dfd8aafcb39dd1cf942,"[""comma""]",0,[0.8623000001907144],76,0,76,0,1
,,,,,,,6021d8939ca8fa279f82cd92,,,,,,6021d8939ca8fa279f82cd92,Mężczyzna,22,2021-09-06_19h21.39.838,rantool2,2021.1.4,Win32,59.88382538,6135e006383e6ea6c3d06a28,61364dfd8aafcb39dd1cf942,"[""comma""]",0,[0.6730999999046503],77,0,77,0,1
,,,,,,,6021d8939ca8fa279f82cd92,,,,,,6021d8939ca8fa279f82cd92,Mężczyzna,22,2021-09-06_19h21.39.838,rantool2,2021.1.4,Win32,59.88382538,6135e006383e6ea6c3d06a28,61364dfd8aafcb39dd1cf942,"[""period""]",0,[0.993300000190743],78,0,78,0,1
,,,,,,,6021d8939ca8fa279f82cd92,,,,,,6021d8939ca8fa279f82cd92,Mężczyzna,22,2021-09-06_19h21.39.838,rantool2,2021.1.4,Win32,59.88382538,6135e006383e6ea6c3d06a28,61364dfd8aafcb39dd1cf942,"[""comma""]",0,[1.0144000000954065],79,0,79,0,1
,,,,,,,6021d8939ca8fa279f82cd92,,,,,,6021d8939ca8fa279f82cd92,Mężczyzna,22,2021-09-06_19h21.39.838,rantool2,2021.1.4,Win32,59.88382538,6135e006383e6ea6c3d06a28,61364dfd8aafcb39dd1cf942,"[""period""]",0,[1.0014000000953729],80,0,80,0,1
,,,,,,,6021d8939ca8fa279f82cd92,,,,,,6021d8939ca8fa279f82cd92,Mężczyzna,22,2021-09-06_19h21.39.838,rantool2,2021.1.4,Win32,59.88382538,6135e006383e6ea6c3d06a28,61364dfd8aafcb39dd1cf942,"[""comma""]",0,[0.9905999999046458],81,0,81,0,1
,,,,,,,6021d8939ca8fa279f82cd92,,,,,,6021d8939ca8fa279f82cd92,Mężczyzna,22,2021-09-06_19h21.39.838,rantool2,2021.1.4,Win32,59.88382538,6135e006383e6ea6c3d06a28,61364dfd8aafcb39dd1cf942,"[""period""]",0,[0.9879999999999995],82,0,82,0,1
,,,,,,,6021d8939ca8fa279f82cd92,,,,,,6021d8939ca8fa279f82cd92,Mężczyzna,22,2021-09-06_19h21.39.838,rantool2,2021.1.4,Win32,59.88382538,6135e006383e6ea6c3d06a28,61364dfd8aafcb39dd1cf942,"[""comma""]",0,[0.9682999997139063],83,0,83,0,1
,,,,,,,6021d8939ca8fa279f82cd92,,,,,,6021d8939ca8fa279f82cd92,Mężczyzna,22,2021-09-06_19h21.39.838,rantool2,2021.1.4,Win32,59.88382538,6135e006383e6ea6c3d06a28,61364dfd8aafcb39dd1cf942,"[""period""]",0,[0.9830999999046526],84,0,84,0,1
,,,,,,,6021d8939ca8fa279f82cd92,,,,,,6021d8939ca8fa279f82cd92,Mężczyzna,22,2021-09-06_19h21.39.838,rantool2,2021.1.4,Win32,59.88382538,6135e006383e6ea6c3d06a28,61364dfd8aafcb39dd1cf942,"[""period""]",0,[1.000500000000045],85,0,85,0,1
,,,,,,,6021d8939ca8fa279f82cd92,,,,,,6021d8939ca8fa279f82cd92,Mężczyzna,22,2021-09-06_19h21.39.838,rantool2,2021.1.4,Win32,59.88382538,6135e006383e6ea6c3d06a28,61364dfd8aafcb39dd1cf942,"[""comma""]",0,[0.9690999999046426],86,0,86,0,1
,,,,,,,6021d8939ca8fa279f82cd92,,,,,,6021d8939ca8fa279f82cd92,Mężczyzna,22,2021-09-06_19h21.39.838,rantool2,2021.1.4,Win32,59.88382538,6135e006383e6ea6c3d06a28,61364dfd8aafcb39dd1cf942,"[""comma""]",0,[0.9938000001907312],87,0,87,0,1
,,,,,,,6021d8939ca8fa279f82cd92,,,,,,6021d8939ca8fa279f82cd92,Mężczyzna,22,2021-09-06_19h21.39.838,rantool2,2021.1.4,Win32,59.88382538,6135e006383e6ea6c3d06a28,61364dfd8aafcb39dd1cf942,"[""comma""]",0,[1.0930000000000177],88,0,88,0,1
,,,,,,,6021d8939ca8fa279f82cd92,,,,,,6021d8939ca8fa279f82cd92,Mężczyzna,22,2021-09-06_19h21.39.838,rantool2,2021.1.4,Win32,59.88382538,6135e006383e6ea6c3d06a28,61364dfd8aafcb39dd1cf942,"[""period""]",0,[0.9735999999046498],89,0,89,0,1
,,,,,,,6021d8939ca8fa279f82cd92,,,,,,6021d8939ca8fa279f82cd92,Mężczyzna,22,2021-09-06_19h21.39.838,rantool2,2021.1.4,Win32,59.88382538,6135e006383e6ea6c3d06a28,61364dfd8aafcb39dd1cf942,"[""comma""]",0,[1.064099999904613],90,0,90,0,1
,,,,,,,6021d8939ca8fa279f82cd92,,,,,,6021d8939ca8fa279f82cd92,Mężczyzna,22,2021-09-06_19h21.39.838,rantool2,2021.1.4,Win32,59.88382538,6135e006383e6ea6c3d06a28,61364dfd8aafcb39dd1cf942,"[""period""]",0,[1.0529000000953488],91,0,91,0,1
,,,,,,,6021d8939ca8fa279f82cd92,,,,,,6021d8939ca8fa279f82cd92,Mężczyzna,22,2021-09-06_19h21.39.838,rantool2,2021.1.4,Win32,59.88382538,6135e006383e6ea6c3d06a28,61364dfd8aafcb39dd1cf942,"[""comma""]",0,[0.9843999996185175],92,0,92,0,1
,,,,,,,6021d8939ca8fa279f82cd92,,,,,,6021d8939ca8fa279f82cd92,Mężczyzna,22,2021-09-06_19h21.39.838,rantool2,2021.1.4,Win32,59.88382538,6135e006383e6ea6c3d06a28,61364dfd8aafcb39dd1cf942,"[""period""]",0,[1.000600000381496],93,0,93,0,1
,,,,,,,6021d8939ca8fa279f82cd92,,,,,,6021d8939ca8fa279f82cd92,Mężczyzna,22,2021-09-06_19h21.39.838,rantool2,2021.1.4,Win32,59.88382538,6135e006383e6ea6c3d06a28,61364dfd8aafcb39dd1cf942,"[""comma""]",0,[1.0619000000953633],94,0,94,0,1
,,,,,,,6021d8939ca8fa279f82cd92,,,,,,6021d8939ca8fa279f82cd92,Mężczyzna,22,2021-09-06_19h21.39.838,rantool2,2021.1.4,Win32,59.88382538,6135e006383e6ea6c3d06a28,61364dfd8aafcb39dd1cf942,"[""period""]",0,[0.9315000000000282],95,0,95,0,1
,,,,,,,6021d8939ca8fa279f82cd92,,,,,,6021d8939ca8fa279f82cd92,Mężczyzna,22,2021-09-06_19h21.39.838,rantool2,2021.1.4,Win32,59.88382538,6135e006383e6ea6c3d06a28,61364dfd8aafcb39dd1cf942,"[""comma""]",0,[1.0345999999046285],96,0,96,0,1
,,,,,,,6021d8939ca8fa279f82cd92,,,,,,6021d8939ca8fa279f82cd92,Mężczyzna,22,2021-09-06_19h21.39.838,rantool2,2021.1.4,Win32,59.88382538,6135e006383e6ea6c3d06a28,61364dfd8aafcb39dd1cf942,"[""period""]",0,[1.2179000000953693],97,0,97,0,1
,,,,,,,6021d8939ca8fa279f82cd92,,,,,,6021d8939ca8fa279f82cd92,Mężczyzna,22,2021-09-06_19h21.39.838,rantool2,2021.1.4,Win32,59.88382538,6135e006383e6ea6c3d06a28,61364dfd8aafcb39dd1cf942,0,0,,98,0,98,0,1
,,,,,,,6021d8939ca8fa279f82cd92,,,,,,6021d8939ca8fa279f82cd92,Mężczyzna,22,2021-09-06_19h21.39.838,rantool2,2021.1.4,Win32,59.88382538,6135e006383e6ea6c3d06a28,61364dfd8aafcb39dd1cf942,"[""period"",""comma""]",0,"[0.07590000009537334,1.1448000001907417]",99,0,99,0,1
,,,,,,,6021d8939ca8fa279f82cd92,,,,,,6021d8939ca8fa279f82cd92,Mężczyzna,22,2021-09-06_19h21.39.838,rantool2,2021.1.4,Win32,59.88382538,6135e006383e6ea6c3d06a28,61364dfd8aafcb39dd1cf942,"[""period""]",0,[0.3344000000953429],100,0,100,0,1
,,,,,,,6021d8939ca8fa279f82cd92,,,,,,6021d8939ca8fa279f82cd92,Mężczyzna,22,2021-09-06_19h21.39.838,rantool2,2021.1.4,Win32,59.88382538,6135e006383e6ea6c3d06a28,61364dfd8aafcb39dd1cf942,"[""comma""]",0,[0.48579999971389043],101,0,101,0,1
,,,,,,,6021d8939ca8fa279f82cd92,,,,,,6021d8939ca8fa279f82cd92,Mężczyzna,22,2021-09-06_19h21.39.838,rantool2,2021.1.4,Win32,59.88382538,6135e006383e6ea6c3d06a28,61364dfd8aafcb39dd1cf942,"[""comma""]",0,[0.7840999999046403],102,0,102,0,1
,,,,,,,6021d8939ca8fa279f82cd92,,,,,,6021d8939ca8fa279f82cd92,Mężczyzna,22,2021-09-06_19h21.39.838,rantool2,2021.1.4,Win32,59.88382538,6135e006383e6ea6c3d06a28,61364dfd8aafcb39dd1cf942,"[""period""]",0,[0.7339999999999804],103,0,103,0,1
,,,,,,,6021d8939ca8fa279f82cd92,,,,,,6021d8939ca8fa279f82cd92,Mężczyzna,22,2021-09-06_19h21.39.838,rantool2,2021.1.4,Win32,59.88382538,6135e006383e6ea6c3d06a28,61364dfd8aafcb39dd1cf942,"[""comma""]",0,[0.984400000095377],104,0,104,0,1
,,,,,,,6021d8939ca8fa279f82cd92,,,,,,6021d8939ca8fa279f82cd92,Mężczyzna,22,2021-09-06_19h21.39.838,rantool2,2021.1.4,Win32,59.88382538,6135e006383e6ea6c3d06a28,61364dfd8aafcb39dd1cf942,"[""period""]",0,[1.0380999999046594],105,0,105,0,1
,,,,,,,6021d8939ca8fa279f82cd92,,,,,,6021d8939ca8fa279f82cd92,Mężczyzna,22,2021-09-06_19h21.39.838,rantool2,2021.1.4,Win32,59.88382538,6135e006383e6ea6c3d06a28,61364dfd8aafcb39dd1cf942,"[""comma""]",0,[0.979300000190733],106,0,106,0,1
,,,,,,,6021d8939ca8fa279f82cd92,,,,,,6021d8939ca8fa279f82cd92,Mężczyzna,22,2021-09-06_19h21.39.838,rantool2,2021.1.4,Win32,59.88382538,6135e006383e6ea6c3d06a28,61364dfd8aafcb39dd1cf942,"[""period""]",0,[0.9810999999045862],107,0,107,0,1
,,,,,,,6021d8939ca8fa279f82cd92,,,,,,6021d8939ca8fa279f82cd92,Mężczyzna,22,2021-09-06_19h21.39.838,rantool2,2021.1.4,Win32,59.88382538,6135e006383e6ea6c3d06a28,61364dfd8aafcb39dd1cf942,"[""comma""]",0,[0.7707000002861264],108,0,108,0,1
,,,,,,,6021d8939ca8fa279f82cd92,,,,,,6021d8939ca8fa279f82cd92,Mężczyzna,22,2021-09-06_19h21.39.838,rantool2,2021.1.4,Win32,59.88382538,6135e006383e6ea6c3d06a28,61364dfd8aafcb39dd1cf942,"[""period""]",0,[0.5671999998092474],109,0,109,0,1
,,,,,,,6021d8939ca8fa279f82cd92,,,,,,6021d8939ca8fa279f82cd92,Mężczyzna,22,2021-09-06_19h21.39.838,rantool2,2021.1.4,Win32,59.88382538,6135e006383e6ea6c3d06a28,61364dfd8aafcb39dd1cf942,"[""comma""]",0,[0.592099999904633],110,0,110,0,1
,,,,,,,6021d8939ca8fa279f82cd92,,,,,,6021d8939ca8fa279f82cd92,Mężczyzna,22,2021-09-06_19h21.39.838,rantool2,2021.1.4,Win32,59.88382538,6135e006383e6ea6c3d06a28,61364dfd8aafcb39dd1cf942,"[""period""]",0,[0.5149000000953379],111,0,111,0,1
,,,,,,,6021d8939ca8fa279f82cd92,,,,,,6021d8939ca8fa279f82cd92,Mężczyzna,22,2021-09-06_19h21.39.838,rantool2,2021.1.4,Win32,59.88382538,6135e006383e6ea6c3d06a28,61364dfd8aafcb39dd1cf942,"[""comma""]",0,[0.28469999980927696],112,0,112,0,1
,,,,,,,6021d8939ca8fa279f82cd92,,,,,,6021d8939ca8fa279f82cd92,Mężczyzna,22,2021-09-06_19h21.39.838,rantool2,2021.1.4,Win32,59.88382538,6135e006383e6ea6c3d06a28,61364dfd8aafcb39dd1cf942,"[""period""]",0,[0.26149999999995543],113,0,113,0,1
,,,,,,,6021d8939ca8fa279f82cd92,,,,,,6021d8939ca8fa279f82cd92,Mężczyzna,22,2021-09-06_19h21.39.838,rantool2,2021.1.4,Win32,59.88382538,6135e006383e6ea6c3d06a28,61364dfd8aafcb39dd1cf942,"[""period""]",0,[0.21800000000001774],114,0,114,0,1
,,,,,,,6021d8939ca8fa279f82cd92,,,,,,6021d8939ca8fa279f82cd92,Mężczyzna,22,2021-09-06_19h21.39.838,rantool2,2021.1.4,Win32,59.88382538,6135e006383e6ea6c3d06a28,61364dfd8aafcb39dd1cf942,"[""comma""]",0,[0.23769999980930834],115,0,115,0,1
,,,,,,,6021d8939ca8fa279f82cd92,,,,,,6021d8939ca8fa279f82cd92,Mężczyzna,22,2021-09-06_19h21.39.838,rantool2,2021.1.4,Win32,59.88382538,6135e006383e6ea6c3d06a28,61364dfd8aafcb39dd1cf942,"[""comma""]",0,[0.27430000019074896],116,0,116,0,1
,,,,,,,6021d8939ca8fa279f82cd92,,,,,,6021d8939ca8fa279f82cd92,Mężczyzna,22,2021-09-06_19h21.39.838,rantool2,2021.1.4,Win32,59.88382538,6135e006383e6ea6c3d06a28,61364dfd8aafcb39dd1cf942,"[""period""]",0,[0.29349999999999454],117,0,117,0,1
,,,,,,,6021d8939ca8fa279f82cd92,,,,,,6021d8939ca8fa279f82cd92,Mężczyzna,22,2021-09-06_19h21.39.838,rantool2,2021.1.4,Win32,59.88382538,6135e006383e6ea6c3d06a28,61364dfd8aafcb39dd1cf942,"[""comma""]",0,[0.32850000000001955],118,0,118,0,1
,,,,,,,6021d8939ca8fa279f82cd92,,,,,,6021d8939ca8fa279f82cd92,Mężczyzna,22,2021-09-06_19h21.39.838,rantool2,2021.1.4,Win32,59.88382538,6135e006383e6ea6c3d06a28,61364dfd8aafcb39dd1cf942,"[""period""]",0,[0.26540000009532605],119,0,119,0,1
