key_resp_7.keys,key_resp_7.rt,trials_2.thisRepN,trials_2.thisTrialN,trials_2.thisN,trials_2.thisIndex,trials_2.ran,id,series_0,series_1,acss_0,acss_1,comparison,id*,Płeć*,Wiek*,date,expName,psychopyVersion,OS,frameRate,STUDY_ID,SESSION_ID,key_resp_5.keys,key_resp_5.corr,key_resp_5.rt,trials.thisRepN,trials.thisTrialN,trials.thisN,trials.thisIndex,trials.ran
j,3.263,0,0,0,37,1,61336aa3494f26b27c63408f,ROORORO,ROORORR,20.42602454,21.57657071,series_1,61336aa3494f26b27c63408f,Mężczyzna,19,2021-09-06_18h19.36.645,rantool2,2021.1.4,Win32,59.98440405,6135e006383e6ea6c3d06a28,61363f4a8895d6099d592499,,,,,,,,
f,3.4401,0,1,1,11,1,61336aa3494f26b27c63408f,OORORRO,OORORRR,22.18365867,22.6797523,series_1,61336aa3494f26b27c63408f,Mężczyzna,19,2021-09-06_18h19.36.645,rantool2,2021.1.4,Win32,59.98440405,6135e006383e6ea6c3d06a28,61363f4a8895d6099d592499,,,,,,,,
j,2.8386,0,2,2,52,1,61336aa3494f26b27c63408f,RROROOO,RROROOR,22.18365867,22.11097995,series_0,61336aa3494f26b27c63408f,Mężczyzna,19,2021-09-06_18h19.36.645,rantool2,2021.1.4,Win32,59.98440405,6135e006383e6ea6c3d06a28,61363f4a8895d6099d592499,,,,,,,,
f,2.4374,0,3,3,35,1,61336aa3494f26b27c63408f,ROOORRO,ROOORRR,21.76276513,22.16977179,series_1,61336aa3494f26b27c63408f,Mężczyzna,19,2021-09-06_18h19.36.645,rantool2,2021.1.4,Win32,59.98440405,6135e006383e6ea6c3d06a28,61363f4a8895d6099d592499,,,,,,,,
j,1.9669,0,4,4,39,1,61336aa3494f26b27c63408f,ROORRRO,ROORRRR,21.82425538,21.38562617,series_0,61336aa3494f26b27c63408f,Mężczyzna,19,2021-09-06_18h19.36.645,rantool2,2021.1.4,Win32,59.98440405,6135e006383e6ea6c3d06a28,61363f4a8895d6099d592499,,,,,,,,
f,2.5664,0,5,5,34,1,61336aa3494f26b27c63408f,ROOOROO,ROOOROR,21.03750787,21.24781509,series_1,61336aa3494f26b27c63408f,Mężczyzna,19,2021-09-06_18h19.36.645,rantool2,2021.1.4,Win32,59.98440405,6135e006383e6ea6c3d06a28,61363f4a8895d6099d592499,,,,,,,,
j,2.4274,0,6,6,48,1,61336aa3494f26b27c63408f,RROOOOO,RROOOOR,20.90986523,22.15934078,series_1,61336aa3494f26b27c63408f,Mężczyzna,19,2021-09-06_18h19.36.645,rantool2,2021.1.4,Win32,59.98440405,6135e006383e6ea6c3d06a28,61363f4a8895d6099d592499,,,,,,,,
j,1.7773,0,7,7,33,1,61336aa3494f26b27c63408f,ROOOORO,ROOOORR,20.83779602,22.03072203,series_1,61336aa3494f26b27c63408f,Mężczyzna,19,2021-09-06_18h19.36.645,rantool2,2021.1.4,Win32,59.98440405,6135e006383e6ea6c3d06a28,61363f4a8895d6099d592499,,,,,,,,
j,2.2769,0,8,8,58,1,61336aa3494f26b27c63408f,RRROROO,RRROROR,22.1285618,21.37121559,series_0,61336aa3494f26b27c63408f,Mężczyzna,19,2021-09-06_18h19.36.645,rantool2,2021.1.4,Win32,59.98440405,6135e006383e6ea6c3d06a28,61363f4a8895d6099d592499,,,,,,,,
j,1.9663,0,9,9,21,1,61336aa3494f26b27c63408f,ORORORO,ORORORR,20.39515459,22.06781359,series_1,61336aa3494f26b27c63408f,Mężczyzna,19,2021-09-06_18h19.36.645,rantool2,2021.1.4,Win32,59.98440405,6135e006383e6ea6c3d06a28,61363f4a8895d6099d592499,,,,,,,,
j,2.9012,0,10,10,2,1,61336aa3494f26b27c63408f,OOOOROO,OOOOROR,20.43051175,21.02936224,series_1,61336aa3494f26b27c63408f,Mężczyzna,19,2021-09-06_18h19.36.645,rantool2,2021.1.4,Win32,59.98440405,6135e006383e6ea6c3d06a28,61363f4a8895d6099d592499,,,,,,,,
f,2.0336,0,11,11,49,1,61336aa3494f26b27c63408f,RROOORO,RROOORR,21.76276513,22.53364006,series_1,61336aa3494f26b27c63408f,Mężczyzna,19,2021-09-06_18h19.36.645,rantool2,2021.1.4,Win32,59.98440405,6135e006383e6ea6c3d06a28,61363f4a8895d6099d592499,,,,,,,,
j,2.5088,0,12,12,45,1,61336aa3494f26b27c63408f,RORRORO,RORRORR,20.78182524,21.22513037,series_1,61336aa3494f26b27c63408f,Mężczyzna,19,2021-09-06_18h19.36.645,rantool2,2021.1.4,Win32,59.98440405,6135e006383e6ea6c3d06a28,61363f4a8895d6099d592499,,,,,,,,
f,2.6029,0,13,13,26,1,61336aa3494f26b27c63408f,ORROROO,ORROROR,22.02732763,21.71443381,series_0,61336aa3494f26b27c63408f,Mężczyzna,19,2021-09-06_18h19.36.645,rantool2,2021.1.4,Win32,59.98440405,6135e006383e6ea6c3d06a28,61363f4a8895d6099d592499,,,,,,,,
j,4.0028,0,14,14,30,1,61336aa3494f26b27c63408f,ORRRROO,ORRRROR,22.46748491,22.03072203,series_0,61336aa3494f26b27c63408f,Mężczyzna,19,2021-09-06_18h19.36.645,rantool2,2021.1.4,Win32,59.98440405,6135e006383e6ea6c3d06a28,61363f4a8895d6099d592499,,,,,,,,
f,2.5698,0,15,15,4,1,61336aa3494f26b27c63408f,OOOROOO,OOOROOR,19.91402015,21.21223021,series_1,61336aa3494f26b27c63408f,Mężczyzna,19,2021-09-06_18h19.36.645,rantool2,2021.1.4,Win32,59.98440405,6135e006383e6ea6c3d06a28,61363f4a8895d6099d592499,,,,,,,,
j,2.815,0,16,16,63,1,61336aa3494f26b27c63408f,RRRRRRO,RRRRRRR,21.35278725,19.62521613,series_0,61336aa3494f26b27c63408f,Mężczyzna,19,2021-09-06_18h19.36.645,rantool2,2021.1.4,Win32,59.98440405,6135e006383e6ea6c3d06a28,61363f4a8895d6099d592499,,,,,,,,
f,2.3213,0,17,17,14,1,61336aa3494f26b27c63408f,OORRROO,OORRROR,22.24142883,22.16977179,series_0,61336aa3494f26b27c63408f,Mężczyzna,19,2021-09-06_18h19.36.645,rantool2,2021.1.4,Win32,59.98440405,6135e006383e6ea6c3d06a28,61363f4a8895d6099d592499,,,,,,,,
j,2.052,0,18,18,47,1,61336aa3494f26b27c63408f,RORRRRO,RORRRRR,21.81333602,21.02936224,series_0,61336aa3494f26b27c63408f,Mężczyzna,19,2021-09-06_18h19.36.645,rantool2,2021.1.4,Win32,59.98440405,6135e006383e6ea6c3d06a28,61363f4a8895d6099d592499,,,,,,,,
f,2.1528,0,19,19,8,1,61336aa3494f26b27c63408f,OOROOOO,OOROOOR,19.91402015,20.89823192,series_1,61336aa3494f26b27c63408f,Mężczyzna,19,2021-09-06_18h19.36.645,rantool2,2021.1.4,Win32,59.98440405,6135e006383e6ea6c3d06a28,61363f4a8895d6099d592499,,,,,,,,
j,1.8261,0,20,20,3,1,61336aa3494f26b27c63408f,OOOORRO,OOOORRR,20.90986523,21.74922619,series_1,61336aa3494f26b27c63408f,Mężczyzna,19,2021-09-06_18h19.36.645,rantool2,2021.1.4,Win32,59.98440405,6135e006383e6ea6c3d06a28,61363f4a8895d6099d592499,,,,,,,,
f,2.4971,0,21,21,51,1,61336aa3494f26b27c63408f,RROORRO,RROORRR,21.89852628,22.02786418,series_1,61336aa3494f26b27c63408f,Mężczyzna,19,2021-09-06_18h19.36.645,rantool2,2021.1.4,Win32,59.98440405,6135e006383e6ea6c3d06a28,61363f4a8895d6099d592499,,,,,,,,
j,2.1551,0,22,22,56,1,61336aa3494f26b27c63408f,RRROOOO,RRROOOR,21.6194508,22.31681875,series_1,61336aa3494f26b27c63408f,Mężczyzna,19,2021-09-06_18h19.36.645,rantool2,2021.1.4,Win32,59.98440405,6135e006383e6ea6c3d06a28,61363f4a8895d6099d592499,,,,,,,,
j,2.332,0,23,23,60,1,61336aa3494f26b27c63408f,RRRROOO,RRRROOR,22.10108823,22.15934078,series_1,61336aa3494f26b27c63408f,Mężczyzna,19,2021-09-06_18h19.36.645,rantool2,2021.1.4,Win32,59.98440405,6135e006383e6ea6c3d06a28,61363f4a8895d6099d592499,,,,,,,,
j,1.9019,0,24,24,24,1,61336aa3494f26b27c63408f,ORROOOO,ORROOOR,21.12383932,22.07102821,series_1,61336aa3494f26b27c63408f,Mężczyzna,19,2021-09-06_18h19.36.645,rantool2,2021.1.4,Win32,59.98440405,6135e006383e6ea6c3d06a28,61363f4a8895d6099d592499,,,,,,,,
f,1.4585,0,25,25,7,1,61336aa3494f26b27c63408f,OOORRRO,OOORRRR,21.6194508,21.899017,series_1,61336aa3494f26b27c63408f,Mężczyzna,19,2021-09-06_18h19.36.645,rantool2,2021.1.4,Win32,59.98440405,6135e006383e6ea6c3d06a28,61363f4a8895d6099d592499,,,,,,,,
j,3.1434,0,26,26,54,1,61336aa3494f26b27c63408f,RRORROO,RRORROR,21.55250791,20.9984461,series_0,61336aa3494f26b27c63408f,Mężczyzna,19,2021-09-06_18h19.36.645,rantool2,2021.1.4,Win32,59.98440405,6135e006383e6ea6c3d06a28,61363f4a8895d6099d592499,,,,,,,,
f,1.5694,0,27,27,44,1,61336aa3494f26b27c63408f,RORROOO,RORROOR,21.66733484,22.02566557,series_1,61336aa3494f26b27c63408f,Mężczyzna,19,2021-09-06_18h19.36.645,rantool2,2021.1.4,Win32,59.98440405,6135e006383e6ea6c3d06a28,61363f4a8895d6099d592499,,,,,,,,
j,2.075,0,28,28,40,1,61336aa3494f26b27c63408f,ROROOOO,ROROOOR,20.87963819,21.37121559,series_1,61336aa3494f26b27c63408f,Mężczyzna,19,2021-09-06_18h19.36.645,rantool2,2021.1.4,Win32,59.98440405,6135e006383e6ea6c3d06a28,61363f4a8895d6099d592499,,,,,,,,
j,1.4933,0,29,29,9,1,61336aa3494f26b27c63408f,OOROORO,OOROORR,21.07991943,22.2428857,series_1,61336aa3494f26b27c63408f,Mężczyzna,19,2021-09-06_18h19.36.645,rantool2,2021.1.4,Win32,59.98440405,6135e006383e6ea6c3d06a28,61363f4a8895d6099d592499,,,,,,,,
j,1.3341,0,30,30,36,1,61336aa3494f26b27c63408f,ROOROOO,ROOROOR,21.07991943,20.9984461,series_0,61336aa3494f26b27c63408f,Mężczyzna,19,2021-09-06_18h19.36.645,rantool2,2021.1.4,Win32,59.98440405,6135e006383e6ea6c3d06a28,61363f4a8895d6099d592499,,,,,,,,
f,1.2006,0,31,31,23,1,61336aa3494f26b27c63408f,ORORRRO,ORORRRR,22.1285618,21.9921709,series_0,61336aa3494f26b27c63408f,Mężczyzna,19,2021-09-06_18h19.36.645,rantool2,2021.1.4,Win32,59.98440405,6135e006383e6ea6c3d06a28,61363f4a8895d6099d592499,,,,,,,,
j,1.6935,0,32,32,22,1,61336aa3494f26b27c63408f,ORORROO,ORORROR,22.02732763,21.57657071,series_0,61336aa3494f26b27c63408f,Mężczyzna,19,2021-09-06_18h19.36.645,rantool2,2021.1.4,Win32,59.98440405,6135e006383e6ea6c3d06a28,61363f4a8895d6099d592499,,,,,,,,
f,3.5735,0,33,33,1,1,61336aa3494f26b27c63408f,OOOOORO,OOOOORR,19.92253567,20.74050628,series_1,61336aa3494f26b27c63408f,Mężczyzna,19,2021-09-06_18h19.36.645,rantool2,2021.1.4,Win32,59.98440405,6135e006383e6ea6c3d06a28,61363f4a8895d6099d592499,,,,,,,,
j,2.0396,0,34,34,43,1,61336aa3494f26b27c63408f,RORORRO,RORORRR,20.71309134,21.07490964,series_1,61336aa3494f26b27c63408f,Mężczyzna,19,2021-09-06_18h19.36.645,rantool2,2021.1.4,Win32,59.98440405,6135e006383e6ea6c3d06a28,61363f4a8895d6099d592499,,,,,,,,
f,2.5372,0,35,35,29,1,61336aa3494f26b27c63408f,ORRRORO,ORRRORR,22.00300695,22.12173012,series_1,61336aa3494f26b27c63408f,Mężczyzna,19,2021-09-06_18h19.36.645,rantool2,2021.1.4,Win32,59.98440405,6135e006383e6ea6c3d06a28,61363f4a8895d6099d592499,,,,,,,,
j,1.6547,0,36,36,28,1,61336aa3494f26b27c63408f,ORRROOO,ORRROOR,22.24142883,22.53364006,series_1,61336aa3494f26b27c63408f,Mężczyzna,19,2021-09-06_18h19.36.645,rantool2,2021.1.4,Win32,59.98440405,6135e006383e6ea6c3d06a28,61363f4a8895d6099d592499,,,,,,,,
f,1.7727,0,37,37,25,1,61336aa3494f26b27c63408f,ORROORO,ORROORR,21.79500819,22.61624387,series_1,61336aa3494f26b27c63408f,Mężczyzna,19,2021-09-06_18h19.36.645,rantool2,2021.1.4,Win32,59.98440405,6135e006383e6ea6c3d06a28,61363f4a8895d6099d592499,,,,,,,,
j,1.648,0,38,38,46,1,61336aa3494f26b27c63408f,RORRROO,RORRROR,22.00300695,21.24781509,series_0,61336aa3494f26b27c63408f,Mężczyzna,19,2021-09-06_18h19.36.645,rantool2,2021.1.4,Win32,59.98440405,6135e006383e6ea6c3d06a28,61363f4a8895d6099d592499,,,,,,,,
j,1.5391,0,39,39,42,1,61336aa3494f26b27c63408f,ROROROO,ROROROR,20.39515459,19.8361834,series_0,61336aa3494f26b27c63408f,Mężczyzna,19,2021-09-06_18h19.36.645,rantool2,2021.1.4,Win32,59.98440405,6135e006383e6ea6c3d06a28,61363f4a8895d6099d592499,,,,,,,,
j,2.1504,0,40,40,55,1,61336aa3494f26b27c63408f,RRORRRO,RRORRRR,21.56657303,21.21223021,series_0,61336aa3494f26b27c63408f,Mężczyzna,19,2021-09-06_18h19.36.645,rantool2,2021.1.4,Win32,59.98440405,6135e006383e6ea6c3d06a28,61363f4a8895d6099d592499,,,,,,,,
j,2.3564,0,41,41,17,1,61336aa3494f26b27c63408f,OROOORO,OROOORR,21.03750787,22.12173012,series_1,61336aa3494f26b27c63408f,Mężczyzna,19,2021-09-06_18h19.36.645,rantool2,2021.1.4,Win32,59.98440405,6135e006383e6ea6c3d06a28,61363f4a8895d6099d592499,,,,,,,,
f,1.5902,0,42,42,41,1,61336aa3494f26b27c63408f,ROROORO,ROROORR,20.42602454,21.71443381,series_1,61336aa3494f26b27c63408f,Mężczyzna,19,2021-09-06_18h19.36.645,rantool2,2021.1.4,Win32,59.98440405,6135e006383e6ea6c3d06a28,61363f4a8895d6099d592499,,,,,,,,
f,1.7742,0,43,43,57,1,61336aa3494f26b27c63408f,RRROORO,RRROORR,21.82425538,22.07102821,series_1,61336aa3494f26b27c63408f,Mężczyzna,19,2021-09-06_18h19.36.645,rantool2,2021.1.4,Win32,59.98440405,6135e006383e6ea6c3d06a28,61363f4a8895d6099d592499,,,,,,,,
f,2.3415,0,44,44,53,1,61336aa3494f26b27c63408f,RRORORO,RRORORR,20.71309134,21.90565814,series_1,61336aa3494f26b27c63408f,Mężczyzna,19,2021-09-06_18h19.36.645,rantool2,2021.1.4,Win32,59.98440405,6135e006383e6ea6c3d06a28,61363f4a8895d6099d592499,,,,,,,,
f,1.6519,0,45,45,6,1,61336aa3494f26b27c63408f,OOORROO,OOORROR,21.12383932,21.38562617,series_1,61336aa3494f26b27c63408f,Mężczyzna,19,2021-09-06_18h19.36.645,rantool2,2021.1.4,Win32,59.98440405,6135e006383e6ea6c3d06a28,61363f4a8895d6099d592499,,,,,,,,
j,1.2787,0,46,46,13,1,61336aa3494f26b27c63408f,OORRORO,OORRORR,21.66733484,22.11181017,series_1,61336aa3494f26b27c63408f,Mężczyzna,19,2021-09-06_18h19.36.645,rantool2,2021.1.4,Win32,59.98440405,6135e006383e6ea6c3d06a28,61363f4a8895d6099d592499,,,,,,,,
f,1.5018,0,47,47,20,1,61336aa3494f26b27c63408f,OROROOO,OROROOR,21.31236711,21.90565814,series_1,61336aa3494f26b27c63408f,Mężczyzna,19,2021-09-06_18h19.36.645,rantool2,2021.1.4,Win32,59.98440405,6135e006383e6ea6c3d06a28,61363f4a8895d6099d592499,,,,,,,,
j,1.3004,0,48,48,19,1,61336aa3494f26b27c63408f,OROORRO,OROORRR,21.73568164,22.11181017,series_1,61336aa3494f26b27c63408f,Mężczyzna,19,2021-09-06_18h19.36.645,rantool2,2021.1.4,Win32,59.98440405,6135e006383e6ea6c3d06a28,61363f4a8895d6099d592499,,,,,,,,
f,1.8536,0,49,49,27,1,61336aa3494f26b27c63408f,ORRORRO,ORRORRR,21.55250791,22.2428857,series_1,61336aa3494f26b27c63408f,Mężczyzna,19,2021-09-06_18h19.36.645,rantool2,2021.1.4,Win32,59.98440405,6135e006383e6ea6c3d06a28,61363f4a8895d6099d592499,,,,,,,,
j,1.1264,0,50,50,12,1,61336aa3494f26b27c63408f,OORROOO,OORROOR,21.30250474,22.02786418,series_1,61336aa3494f26b27c63408f,Mężczyzna,19,2021-09-06_18h19.36.645,rantool2,2021.1.4,Win32,59.98440405,6135e006383e6ea6c3d06a28,61363f4a8895d6099d592499,,,,,,,,
j,1.6362,0,51,51,5,1,61336aa3494f26b27c63408f,OOORORO,OOORORR,20.87963819,21.9921709,series_1,61336aa3494f26b27c63408f,Mężczyzna,19,2021-09-06_18h19.36.645,rantool2,2021.1.4,Win32,59.98440405,6135e006383e6ea6c3d06a28,61363f4a8895d6099d592499,,,,,,,,
j,1.3502,0,52,52,15,1,61336aa3494f26b27c63408f,OORRRRO,OORRRRR,22.10108823,21.74922619,series_0,61336aa3494f26b27c63408f,Mężczyzna,19,2021-09-06_18h19.36.645,rantool2,2021.1.4,Win32,59.98440405,6135e006383e6ea6c3d06a28,61363f4a8895d6099d592499,,,,,,,,
f,1.003,0,53,53,10,1,61336aa3494f26b27c63408f,OOROROO,OOROROR,21.31236711,21.07490964,series_0,61336aa3494f26b27c63408f,Mężczyzna,19,2021-09-06_18h19.36.645,rantool2,2021.1.4,Win32,59.98440405,6135e006383e6ea6c3d06a28,61363f4a8895d6099d592499,,,,,,,,
j,2.0151,0,54,54,31,1,61336aa3494f26b27c63408f,ORRRRRO,ORRRRRR,22.16413392,20.74050628,series_0,61336aa3494f26b27c63408f,Mężczyzna,19,2021-09-06_18h19.36.645,rantool2,2021.1.4,Win32,59.98440405,6135e006383e6ea6c3d06a28,61363f4a8895d6099d592499,,,,,,,,
f,1.9985,0,55,55,62,1,61336aa3494f26b27c63408f,RRRRROO,RRRRROR,22.16413392,21.27974287,series_0,61336aa3494f26b27c63408f,Mężczyzna,19,2021-09-06_18h19.36.645,rantool2,2021.1.4,Win32,59.98440405,6135e006383e6ea6c3d06a28,61363f4a8895d6099d592499,,,,,,,,
j,1.6885,0,56,56,18,1,61336aa3494f26b27c63408f,OROOROO,OROOROR,20.84860893,21.22513037,series_1,61336aa3494f26b27c63408f,Mężczyzna,19,2021-09-06_18h19.36.645,rantool2,2021.1.4,Win32,59.98440405,6135e006383e6ea6c3d06a28,61363f4a8895d6099d592499,,,,,,,,
f,2.5174,0,57,57,16,1,61336aa3494f26b27c63408f,OROOOOO,OROOOOR,20.43051175,21.17347734,series_1,61336aa3494f26b27c63408f,Mężczyzna,19,2021-09-06_18h19.36.645,rantool2,2021.1.4,Win32,59.98440405,6135e006383e6ea6c3d06a28,61363f4a8895d6099d592499,,,,,,,,
f,1.4088,0,58,58,50,1,61336aa3494f26b27c63408f,RROOROO,RROOROR,21.73568164,22.02566557,series_1,61336aa3494f26b27c63408f,Mężczyzna,19,2021-09-06_18h19.36.645,rantool2,2021.1.4,Win32,59.98440405,6135e006383e6ea6c3d06a28,61363f4a8895d6099d592499,,,,,,,,
f,3.6261,0,59,59,61,1,61336aa3494f26b27c63408f,RRRRORO,RRRRORR,21.81333602,21.17347734,series_0,61336aa3494f26b27c63408f,Mężczyzna,19,2021-09-06_18h19.36.645,rantool2,2021.1.4,Win32,59.98440405,6135e006383e6ea6c3d06a28,61363f4a8895d6099d592499,,,,,,,,
j,1.6166,0,60,60,0,1,61336aa3494f26b27c63408f,OOOOOOO,OOOOOOR,18.52739004,19.62521613,series_1,61336aa3494f26b27c63408f,Mężczyzna,19,2021-09-06_18h19.36.645,rantool2,2021.1.4,Win32,59.98440405,6135e006383e6ea6c3d06a28,61363f4a8895d6099d592499,,,,,,,,
f,1.6744,0,61,61,32,1,61336aa3494f26b27c63408f,ROOOOOO,ROOOOOR,19.92253567,21.27974287,series_1,61336aa3494f26b27c63408f,Mężczyzna,19,2021-09-06_18h19.36.645,rantool2,2021.1.4,Win32,59.98440405,6135e006383e6ea6c3d06a28,61363f4a8895d6099d592499,,,,,,,,
j,2.3257,0,62,62,38,1,61336aa3494f26b27c63408f,ROORROO,ROORROR,21.79500819,21.36812781,series_0,61336aa3494f26b27c63408f,Mężczyzna,19,2021-09-06_18h19.36.645,rantool2,2021.1.4,Win32,59.98440405,6135e006383e6ea6c3d06a28,61363f4a8895d6099d592499,,,,,,,,
f,1.7027,0,63,63,59,1,61336aa3494f26b27c63408f,RRRORRO,RRRORRR,21.56657303,20.89823192,series_0,61336aa3494f26b27c63408f,Mężczyzna,19,2021-09-06_18h19.36.645,rantool2,2021.1.4,Win32,59.98440405,6135e006383e6ea6c3d06a28,61363f4a8895d6099d592499,,,,,,,,
,,,,,,,61336aa3494f26b27c63408f,,,,,,61336aa3494f26b27c63408f,Mężczyzna,19,2021-09-06_18h19.36.645,rantool2,2021.1.4,Win32,59.98440405,6135e006383e6ea6c3d06a28,61363f4a8895d6099d592499,"[""comma""]",0,[0.7076999999880798],0,0,0,0,1
,,,,,,,61336aa3494f26b27c63408f,,,,,,61336aa3494f26b27c63408f,Mężczyzna,19,2021-09-06_18h19.36.645,rantool2,2021.1.4,Win32,59.98440405,6135e006383e6ea6c3d06a28,61363f4a8895d6099d592499,"[""comma""]",0,[0.6431000000238214],1,0,1,0,1
,,,,,,,61336aa3494f26b27c63408f,,,,,,61336aa3494f26b27c63408f,Mężczyzna,19,2021-09-06_18h19.36.645,rantool2,2021.1.4,Win32,59.98440405,6135e006383e6ea6c3d06a28,61363f4a8895d6099d592499,"[""period""]",0,[0.35010000002384345],2,0,2,0,1
,,,,,,,61336aa3494f26b27c63408f,,,,,,61336aa3494f26b27c63408f,Mężczyzna,19,2021-09-06_18h19.36.645,rantool2,2021.1.4,Win32,59.98440405,6135e006383e6ea6c3d06a28,61363f4a8895d6099d592499,"[""comma""]",0,[0.36909999996422016],3,0,3,0,1
,,,,,,,61336aa3494f26b27c63408f,,,,,,61336aa3494f26b27c63408f,Mężczyzna,19,2021-09-06_18h19.36.645,rantool2,2021.1.4,Win32,59.98440405,6135e006383e6ea6c3d06a28,61363f4a8895d6099d592499,"[""period""]",0,[0.49150000000000205],4,0,4,0,1
,,,,,,,61336aa3494f26b27c63408f,,,,,,61336aa3494f26b27c63408f,Mężczyzna,19,2021-09-06_18h19.36.645,rantool2,2021.1.4,Win32,59.98440405,6135e006383e6ea6c3d06a28,61363f4a8895d6099d592499,"[""period""]",0,[0.2698999999761611],5,0,5,0,1
,,,,,,,61336aa3494f26b27c63408f,,,,,,61336aa3494f26b27c63408f,Mężczyzna,19,2021-09-06_18h19.36.645,rantool2,2021.1.4,Win32,59.98440405,6135e006383e6ea6c3d06a28,61363f4a8895d6099d592499,"[""comma""]",0,[0.29510000002386505],6,0,6,0,1
,,,,,,,61336aa3494f26b27c63408f,,,,,,61336aa3494f26b27c63408f,Mężczyzna,19,2021-09-06_18h19.36.645,rantool2,2021.1.4,Win32,59.98440405,6135e006383e6ea6c3d06a28,61363f4a8895d6099d592499,"[""period""]",0,[0.26650000000000773],7,0,7,0,1
,,,,,,,61336aa3494f26b27c63408f,,,,,,61336aa3494f26b27c63408f,Mężczyzna,19,2021-09-06_18h19.36.645,rantool2,2021.1.4,Win32,59.98440405,6135e006383e6ea6c3d06a28,61363f4a8895d6099d592499,"[""period""]",0,[0.509700000047701],8,0,8,0,1
,,,,,,,61336aa3494f26b27c63408f,,,,,,61336aa3494f26b27c63408f,Mężczyzna,19,2021-09-06_18h19.36.645,rantool2,2021.1.4,Win32,59.98440405,6135e006383e6ea6c3d06a28,61363f4a8895d6099d592499,"[""period""]",0,[0.315800000011933],9,0,9,0,1
,,,,,,,61336aa3494f26b27c63408f,,,,,,61336aa3494f26b27c63408f,Mężczyzna,19,2021-09-06_18h19.36.645,rantool2,2021.1.4,Win32,59.98440405,6135e006383e6ea6c3d06a28,61363f4a8895d6099d592499,"[""comma""]",0,[0.2903000000119107],10,0,10,0,1
,,,,,,,61336aa3494f26b27c63408f,,,,,,61336aa3494f26b27c63408f,Mężczyzna,19,2021-09-06_18h19.36.645,rantool2,2021.1.4,Win32,59.98440405,6135e006383e6ea6c3d06a28,61363f4a8895d6099d592499,"[""period""]",0,[0.23289999997615496],11,0,11,0,1
,,,,,,,61336aa3494f26b27c63408f,,,,,,61336aa3494f26b27c63408f,Mężczyzna,19,2021-09-06_18h19.36.645,rantool2,2021.1.4,Win32,59.98440405,6135e006383e6ea6c3d06a28,61363f4a8895d6099d592499,"[""period""]",0,[0.2080999999642188],12,0,12,0,1
,,,,,,,61336aa3494f26b27c63408f,,,,,,61336aa3494f26b27c63408f,Mężczyzna,19,2021-09-06_18h19.36.645,rantool2,2021.1.4,Win32,59.98440405,6135e006383e6ea6c3d06a28,61363f4a8895d6099d592499,"[""comma""]",0,[0.521399999976154],13,0,13,0,1
,,,,,,,61336aa3494f26b27c63408f,,,,,,61336aa3494f26b27c63408f,Mężczyzna,19,2021-09-06_18h19.36.645,rantool2,2021.1.4,Win32,59.98440405,6135e006383e6ea6c3d06a28,61363f4a8895d6099d592499,"[""period""]",0,[0.38940000003574937],14,0,14,0,1
,,,,,,,61336aa3494f26b27c63408f,,,,,,61336aa3494f26b27c63408f,Mężczyzna,19,2021-09-06_18h19.36.645,rantool2,2021.1.4,Win32,59.98440405,6135e006383e6ea6c3d06a28,61363f4a8895d6099d592499,"[""period""]",0,[0.25389999997616997],15,0,15,0,1
,,,,,,,61336aa3494f26b27c63408f,,,,,,61336aa3494f26b27c63408f,Mężczyzna,19,2021-09-06_18h19.36.645,rantool2,2021.1.4,Win32,59.98440405,6135e006383e6ea6c3d06a28,61363f4a8895d6099d592499,"[""comma""]",0,[0.2878000000119414],16,0,16,0,1
,,,,,,,61336aa3494f26b27c63408f,,,,,,61336aa3494f26b27c63408f,Mężczyzna,19,2021-09-06_18h19.36.645,rantool2,2021.1.4,Win32,59.98440405,6135e006383e6ea6c3d06a28,61363f4a8895d6099d592499,"[""period""]",0,[0.33980000001190547],17,0,17,0,1
,,,,,,,61336aa3494f26b27c63408f,,,,,,61336aa3494f26b27c63408f,Mężczyzna,19,2021-09-06_18h19.36.645,rantool2,2021.1.4,Win32,59.98440405,6135e006383e6ea6c3d06a28,61363f4a8895d6099d592499,"[""period""]",0,[0.20239999997613722],18,0,18,0,1
,,,,,,,61336aa3494f26b27c63408f,,,,,,61336aa3494f26b27c63408f,Mężczyzna,19,2021-09-06_18h19.36.645,rantool2,2021.1.4,Win32,59.98440405,6135e006383e6ea6c3d06a28,61363f4a8895d6099d592499,"[""comma""]",0,[0.27419999998807043],19,0,19,0,1
,,,,,,,61336aa3494f26b27c63408f,,,,,,61336aa3494f26b27c63408f,Mężczyzna,19,2021-09-06_18h19.36.645,rantool2,2021.1.4,Win32,59.98440405,6135e006383e6ea6c3d06a28,61363f4a8895d6099d592499,"[""period""]",0,[0.34469999998810863],20,0,20,0,1
,,,,,,,61336aa3494f26b27c63408f,,,,,,61336aa3494f26b27c63408f,Mężczyzna,19,2021-09-06_18h19.36.645,rantool2,2021.1.4,Win32,59.98440405,6135e006383e6ea6c3d06a28,61363f4a8895d6099d592499,"[""comma""]",0,[0.28199999999998226],21,0,21,0,1
,,,,,,,61336aa3494f26b27c63408f,,,,,,61336aa3494f26b27c63408f,Mężczyzna,19,2021-09-06_18h19.36.645,rantool2,2021.1.4,Win32,59.98440405,6135e006383e6ea6c3d06a28,61363f4a8895d6099d592499,"[""comma""]",0,[0.06969999998807452],22,0,22,0,1
,,,,,,,61336aa3494f26b27c63408f,,,,,,61336aa3494f26b27c63408f,Mężczyzna,19,2021-09-06_18h19.36.645,rantool2,2021.1.4,Win32,59.98440405,6135e006383e6ea6c3d06a28,61363f4a8895d6099d592499,"[""comma""]",0,[0.10469999998804269],23,0,23,0,1
,,,,,,,61336aa3494f26b27c63408f,,,,,,61336aa3494f26b27c63408f,Mężczyzna,19,2021-09-06_18h19.36.645,rantool2,2021.1.4,Win32,59.98440405,6135e006383e6ea6c3d06a28,61363f4a8895d6099d592499,"[""period""]",0,[0.23580000001192047],24,0,24,0,1
,,,,,,,61336aa3494f26b27c63408f,,,,,,61336aa3494f26b27c63408f,Mężczyzna,19,2021-09-06_18h19.36.645,rantool2,2021.1.4,Win32,59.98440405,6135e006383e6ea6c3d06a28,61363f4a8895d6099d592499,"[""comma""]",0,[0.24779999995229218],25,0,25,0,1
,,,,,,,61336aa3494f26b27c63408f,,,,,,61336aa3494f26b27c63408f,Mężczyzna,19,2021-09-06_18h19.36.645,rantool2,2021.1.4,Win32,59.98440405,6135e006383e6ea6c3d06a28,61363f4a8895d6099d592499,"[""comma""]",0,[0.8708999999761886],26,0,26,0,1
,,,,,,,61336aa3494f26b27c63408f,,,,,,61336aa3494f26b27c63408f,Mężczyzna,19,2021-09-06_18h19.36.645,rantool2,2021.1.4,Win32,59.98440405,6135e006383e6ea6c3d06a28,61363f4a8895d6099d592499,"[""period""]",0,[0.46699999999998454],27,0,27,0,1
,,,,,,,61336aa3494f26b27c63408f,,,,,,61336aa3494f26b27c63408f,Mężczyzna,19,2021-09-06_18h19.36.645,rantool2,2021.1.4,Win32,59.98440405,6135e006383e6ea6c3d06a28,61363f4a8895d6099d592499,"[""comma""]",0,[0.28880000001191775],28,0,28,0,1
,,,,,,,61336aa3494f26b27c63408f,,,,,,61336aa3494f26b27c63408f,Mężczyzna,19,2021-09-06_18h19.36.645,rantool2,2021.1.4,Win32,59.98440405,6135e006383e6ea6c3d06a28,61363f4a8895d6099d592499,"[""period""]",0,[0.5137000000476633],29,0,29,0,1
,,,,,,,61336aa3494f26b27c63408f,,,,,,61336aa3494f26b27c63408f,Mężczyzna,19,2021-09-06_18h19.36.645,rantool2,2021.1.4,Win32,59.98440405,6135e006383e6ea6c3d06a28,61363f4a8895d6099d592499,"[""period""]",0,[0.247299999952304],30,0,30,0,1
,,,,,,,61336aa3494f26b27c63408f,,,,,,61336aa3494f26b27c63408f,Mężczyzna,19,2021-09-06_18h19.36.645,rantool2,2021.1.4,Win32,59.98440405,6135e006383e6ea6c3d06a28,61363f4a8895d6099d592499,"[""period""]",0,[0.2829000000357951],31,0,31,0,1
,,,,,,,61336aa3494f26b27c63408f,,,,,,61336aa3494f26b27c63408f,Mężczyzna,19,2021-09-06_18h19.36.645,rantool2,2021.1.4,Win32,59.98440405,6135e006383e6ea6c3d06a28,61363f4a8895d6099d592499,"[""period""]",0,[0.29000000000002046],32,0,32,0,1
,,,,,,,61336aa3494f26b27c63408f,,,,,,61336aa3494f26b27c63408f,Mężczyzna,19,2021-09-06_18h19.36.645,rantool2,2021.1.4,Win32,59.98440405,6135e006383e6ea6c3d06a28,61363f4a8895d6099d592499,"[""comma""]",0,[0.2869999999999777],33,0,33,0,1
,,,,,,,61336aa3494f26b27c63408f,,,,,,61336aa3494f26b27c63408f,Mężczyzna,19,2021-09-06_18h19.36.645,rantool2,2021.1.4,Win32,59.98440405,6135e006383e6ea6c3d06a28,61363f4a8895d6099d592499,"[""period""]",0,[0.6989999999999554],34,0,34,0,1
,,,,,,,61336aa3494f26b27c63408f,,,,,,61336aa3494f26b27c63408f,Mężczyzna,19,2021-09-06_18h19.36.645,rantool2,2021.1.4,Win32,59.98440405,6135e006383e6ea6c3d06a28,61363f4a8895d6099d592499,"[""comma""]",0,[0.2839000000357714],35,0,35,0,1
,,,,,,,61336aa3494f26b27c63408f,,,,,,61336aa3494f26b27c63408f,Mężczyzna,19,2021-09-06_18h19.36.645,rantool2,2021.1.4,Win32,59.98440405,6135e006383e6ea6c3d06a28,61363f4a8895d6099d592499,"[""comma""]",0,[0.22180000001191047],36,0,36,0,1
,,,,,,,61336aa3494f26b27c63408f,,,,,,61336aa3494f26b27c63408f,Mężczyzna,19,2021-09-06_18h19.36.645,rantool2,2021.1.4,Win32,59.98440405,6135e006383e6ea6c3d06a28,61363f4a8895d6099d592499,"[""comma""]",0,[0.618399999976134],37,0,37,0,1
,,,,,,,61336aa3494f26b27c63408f,,,,,,61336aa3494f26b27c63408f,Mężczyzna,19,2021-09-06_18h19.36.645,rantool2,2021.1.4,Win32,59.98440405,6135e006383e6ea6c3d06a28,61363f4a8895d6099d592499,"[""comma""]",0,[0.5595999999642345],38,0,38,0,1
,,,,,,,61336aa3494f26b27c63408f,,,,,,61336aa3494f26b27c63408f,Mężczyzna,19,2021-09-06_18h19.36.645,rantool2,2021.1.4,Win32,59.98440405,6135e006383e6ea6c3d06a28,61363f4a8895d6099d592499,"[""period""]",0,[0.27010000002383094],39,0,39,0,1
,,,,,,,61336aa3494f26b27c63408f,,,,,,61336aa3494f26b27c63408f,Mężczyzna,19,2021-09-06_18h19.36.645,rantool2,2021.1.4,Win32,59.98440405,6135e006383e6ea6c3d06a28,61363f4a8895d6099d592499,"[""period""]",0,[0.39810000002381685],40,0,40,0,1
,,,,,,,61336aa3494f26b27c63408f,,,,,,61336aa3494f26b27c63408f,Mężczyzna,19,2021-09-06_18h19.36.645,rantool2,2021.1.4,Win32,59.98440405,6135e006383e6ea6c3d06a28,61363f4a8895d6099d592499,"[""comma""]",0,[0.2399000000357887],41,0,41,0,1
,,,,,,,61336aa3494f26b27c63408f,,,,,,61336aa3494f26b27c63408f,Mężczyzna,19,2021-09-06_18h19.36.645,rantool2,2021.1.4,Win32,59.98440405,6135e006383e6ea6c3d06a28,61363f4a8895d6099d592499,"[""comma""]",0,[0.3257999999522667],42,0,42,0,1
,,,,,,,61336aa3494f26b27c63408f,,,,,,61336aa3494f26b27c63408f,Mężczyzna,19,2021-09-06_18h19.36.645,rantool2,2021.1.4,Win32,59.98440405,6135e006383e6ea6c3d06a28,61363f4a8895d6099d592499,"[""period""]",0,[0.23410000002382958],43,0,43,0,1
,,,,,,,61336aa3494f26b27c63408f,,,,,,61336aa3494f26b27c63408f,Mężczyzna,19,2021-09-06_18h19.36.645,rantool2,2021.1.4,Win32,59.98440405,6135e006383e6ea6c3d06a28,61363f4a8895d6099d592499,"[""comma""]",0,[0.30509999996428405],44,0,44,0,1
,,,,,,,61336aa3494f26b27c63408f,,,,,,61336aa3494f26b27c63408f,Mężczyzna,19,2021-09-06_18h19.36.645,rantool2,2021.1.4,Win32,59.98440405,6135e006383e6ea6c3d06a28,61363f4a8895d6099d592499,"[""comma""]",0,[0.25549999999998363],45,0,45,0,1
,,,,,,,61336aa3494f26b27c63408f,,,,,,61336aa3494f26b27c63408f,Mężczyzna,19,2021-09-06_18h19.36.645,rantool2,2021.1.4,Win32,59.98440405,6135e006383e6ea6c3d06a28,61363f4a8895d6099d592499,"[""period""]",0,[0.23139999997613359],46,0,46,0,1
,,,,,,,61336aa3494f26b27c63408f,,,,,,61336aa3494f26b27c63408f,Mężczyzna,19,2021-09-06_18h19.36.645,rantool2,2021.1.4,Win32,59.98440405,6135e006383e6ea6c3d06a28,61363f4a8895d6099d592499,"[""period"",""period""]",0,"[0.021600000023852317,0.8538000000119155]",47,0,47,0,1
,,,,,,,61336aa3494f26b27c63408f,,,,,,61336aa3494f26b27c63408f,Mężczyzna,19,2021-09-06_18h19.36.645,rantool2,2021.1.4,Win32,59.98440405,6135e006383e6ea6c3d06a28,61363f4a8895d6099d592499,"[""period""]",0,[0.45289999997618224],48,0,48,0,1
,,,,,,,61336aa3494f26b27c63408f,,,,,,61336aa3494f26b27c63408f,Mężczyzna,19,2021-09-06_18h19.36.645,rantool2,2021.1.4,Win32,59.98440405,6135e006383e6ea6c3d06a28,61363f4a8895d6099d592499,"[""comma"",""period""]",0,"[0.22849999999999682,1.9237000000476883]",49,0,49,0,1
,,,,,,,61336aa3494f26b27c63408f,,,,,,61336aa3494f26b27c63408f,Mężczyzna,19,2021-09-06_18h19.36.645,rantool2,2021.1.4,Win32,59.98440405,6135e006383e6ea6c3d06a28,61363f4a8895d6099d592499,"[""period""]",0,[0.5573999999761554],50,0,50,0,1
,,,,,,,61336aa3494f26b27c63408f,,,,,,61336aa3494f26b27c63408f,Mężczyzna,19,2021-09-06_18h19.36.645,rantool2,2021.1.4,Win32,59.98440405,6135e006383e6ea6c3d06a28,61363f4a8895d6099d592499,"[""period""]",0,[0.4765000000000441],51,0,51,0,1
,,,,,,,61336aa3494f26b27c63408f,,,,,,61336aa3494f26b27c63408f,Mężczyzna,19,2021-09-06_18h19.36.645,rantool2,2021.1.4,Win32,59.98440405,6135e006383e6ea6c3d06a28,61363f4a8895d6099d592499,"[""period""]",0,[0.4358000000119091],52,0,52,0,1
,,,,,,,61336aa3494f26b27c63408f,,,,,,61336aa3494f26b27c63408f,Mężczyzna,19,2021-09-06_18h19.36.645,rantool2,2021.1.4,Win32,59.98440405,6135e006383e6ea6c3d06a28,61363f4a8895d6099d592499,"[""comma""]",0,[0.3024000000357887],53,0,53,0,1
,,,,,,,61336aa3494f26b27c63408f,,,,,,61336aa3494f26b27c63408f,Mężczyzna,19,2021-09-06_18h19.36.645,rantool2,2021.1.4,Win32,59.98440405,6135e006383e6ea6c3d06a28,61363f4a8895d6099d592499,"[""comma""]",0,[0.334400000035771],54,0,54,0,1
,,,,,,,61336aa3494f26b27c63408f,,,,,,61336aa3494f26b27c63408f,Mężczyzna,19,2021-09-06_18h19.36.645,rantool2,2021.1.4,Win32,59.98440405,6135e006383e6ea6c3d06a28,61363f4a8895d6099d592499,"[""period""]",0,[0.27889999997614723],55,0,55,0,1
,,,,,,,61336aa3494f26b27c63408f,,,,,,61336aa3494f26b27c63408f,Mężczyzna,19,2021-09-06_18h19.36.645,rantool2,2021.1.4,Win32,59.98440405,6135e006383e6ea6c3d06a28,61363f4a8895d6099d592499,"[""comma""]",0,[0.2446999999880859],56,0,56,0,1
,,,,,,,61336aa3494f26b27c63408f,,,,,,61336aa3494f26b27c63408f,Mężczyzna,19,2021-09-06_18h19.36.645,rantool2,2021.1.4,Win32,59.98440405,6135e006383e6ea6c3d06a28,61363f4a8895d6099d592499,"[""period""]",0,[0.2849000000358046],57,0,57,0,1
,,,,,,,61336aa3494f26b27c63408f,,,,,,61336aa3494f26b27c63408f,Mężczyzna,19,2021-09-06_18h19.36.645,rantool2,2021.1.4,Win32,59.98440405,6135e006383e6ea6c3d06a28,61363f4a8895d6099d592499,"[""comma""]",0,[0.31730000001192593],58,0,58,0,1
,,,,,,,61336aa3494f26b27c63408f,,,,,,61336aa3494f26b27c63408f,Mężczyzna,19,2021-09-06_18h19.36.645,rantool2,2021.1.4,Win32,59.98440405,6135e006383e6ea6c3d06a28,61363f4a8895d6099d592499,"[""comma""]",0,[0.2511000000238255],59,0,59,0,1
,,,,,,,61336aa3494f26b27c63408f,,,,,,61336aa3494f26b27c63408f,Mężczyzna,19,2021-09-06_18h19.36.645,rantool2,2021.1.4,Win32,59.98440405,6135e006383e6ea6c3d06a28,61363f4a8895d6099d592499,"[""comma""]",0,[0.339099999964219],60,0,60,0,1
,,,,,,,61336aa3494f26b27c63408f,,,,,,61336aa3494f26b27c63408f,Mężczyzna,19,2021-09-06_18h19.36.645,rantool2,2021.1.4,Win32,59.98440405,6135e006383e6ea6c3d06a28,61363f4a8895d6099d592499,"[""period""]",0,[0.43380000001189956],61,0,61,0,1
,,,,,,,61336aa3494f26b27c63408f,,,,,,61336aa3494f26b27c63408f,Mężczyzna,19,2021-09-06_18h19.36.645,rantool2,2021.1.4,Win32,59.98440405,6135e006383e6ea6c3d06a28,61363f4a8895d6099d592499,"[""comma""]",0,[0.41399999999998727],62,0,62,0,1
,,,,,,,61336aa3494f26b27c63408f,,,,,,61336aa3494f26b27c63408f,Mężczyzna,19,2021-09-06_18h19.36.645,rantool2,2021.1.4,Win32,59.98440405,6135e006383e6ea6c3d06a28,61363f4a8895d6099d592499,"[""comma""]",0,[0.3996999999880586],63,0,63,0,1
,,,,,,,61336aa3494f26b27c63408f,,,,,,61336aa3494f26b27c63408f,Mężczyzna,19,2021-09-06_18h19.36.645,rantool2,2021.1.4,Win32,59.98440405,6135e006383e6ea6c3d06a28,61363f4a8895d6099d592499,"[""period""]",0,[0.29199999999997317],64,0,64,0,1
,,,,,,,61336aa3494f26b27c63408f,,,,,,61336aa3494f26b27c63408f,Mężczyzna,19,2021-09-06_18h19.36.645,rantool2,2021.1.4,Win32,59.98440405,6135e006383e6ea6c3d06a28,61363f4a8895d6099d592499,"[""comma""]",0,[0.5148999999761941],65,0,65,0,1
,,,,,,,61336aa3494f26b27c63408f,,,,,,61336aa3494f26b27c63408f,Mężczyzna,19,2021-09-06_18h19.36.645,rantool2,2021.1.4,Win32,59.98440405,6135e006383e6ea6c3d06a28,61363f4a8895d6099d592499,"[""period""]",0,[0.3294000000357187],66,0,66,0,1
,,,,,,,61336aa3494f26b27c63408f,,,,,,61336aa3494f26b27c63408f,Mężczyzna,19,2021-09-06_18h19.36.645,rantool2,2021.1.4,Win32,59.98440405,6135e006383e6ea6c3d06a28,61363f4a8895d6099d592499,"[""period""]",0,[0.26849999999996044],67,0,67,0,1
,,,,,,,61336aa3494f26b27c63408f,,,,,,61336aa3494f26b27c63408f,Mężczyzna,19,2021-09-06_18h19.36.645,rantool2,2021.1.4,Win32,59.98440405,6135e006383e6ea6c3d06a28,61363f4a8895d6099d592499,"[""period""]",0,[0.30469999998808817],68,0,68,0,1
,,,,,,,61336aa3494f26b27c63408f,,,,,,61336aa3494f26b27c63408f,Mężczyzna,19,2021-09-06_18h19.36.645,rantool2,2021.1.4,Win32,59.98440405,6135e006383e6ea6c3d06a28,61363f4a8895d6099d592499,"[""comma""]",0,[0.3808000000119023],69,0,69,0,1
,,,,,,,61336aa3494f26b27c63408f,,,,,,61336aa3494f26b27c63408f,Mężczyzna,19,2021-09-06_18h19.36.645,rantool2,2021.1.4,Win32,59.98440405,6135e006383e6ea6c3d06a28,61363f4a8895d6099d592499,"[""comma""]",0,[0.3521000000238246],70,0,70,0,1
,,,,,,,61336aa3494f26b27c63408f,,,,,,61336aa3494f26b27c63408f,Mężczyzna,19,2021-09-06_18h19.36.645,rantool2,2021.1.4,Win32,59.98440405,6135e006383e6ea6c3d06a28,61363f4a8895d6099d592499,"[""period""]",0,[0.2897000000476737],71,0,71,0,1
,,,,,,,61336aa3494f26b27c63408f,,,,,,61336aa3494f26b27c63408f,Mężczyzna,19,2021-09-06_18h19.36.645,rantool2,2021.1.4,Win32,59.98440405,6135e006383e6ea6c3d06a28,61363f4a8895d6099d592499,"[""period""]",0,[0.49150000000003047],72,0,72,0,1
,,,,,,,61336aa3494f26b27c63408f,,,,,,61336aa3494f26b27c63408f,Mężczyzna,19,2021-09-06_18h19.36.645,rantool2,2021.1.4,Win32,59.98440405,6135e006383e6ea6c3d06a28,61363f4a8895d6099d592499,"[""comma""]",0,[0.533199999988085],73,0,73,0,1
,,,,,,,61336aa3494f26b27c63408f,,,,,,61336aa3494f26b27c63408f,Mężczyzna,19,2021-09-06_18h19.36.645,rantool2,2021.1.4,Win32,59.98440405,6135e006383e6ea6c3d06a28,61363f4a8895d6099d592499,"[""period""]",0,[0.3955999999642472],74,0,74,0,1
,,,,,,,61336aa3494f26b27c63408f,,,,,,61336aa3494f26b27c63408f,Mężczyzna,19,2021-09-06_18h19.36.645,rantool2,2021.1.4,Win32,59.98440405,6135e006383e6ea6c3d06a28,61363f4a8895d6099d592499,"[""comma""]",0,[0.2987999999522799],75,0,75,0,1
,,,,,,,61336aa3494f26b27c63408f,,,,,,61336aa3494f26b27c63408f,Mężczyzna,19,2021-09-06_18h19.36.645,rantool2,2021.1.4,Win32,59.98440405,6135e006383e6ea6c3d06a28,61363f4a8895d6099d592499,"[""comma""]",0,[0.4136000000237914],76,0,76,0,1
,,,,,,,61336aa3494f26b27c63408f,,,,,,61336aa3494f26b27c63408f,Mężczyzna,19,2021-09-06_18h19.36.645,rantool2,2021.1.4,Win32,59.98440405,6135e006383e6ea6c3d06a28,61363f4a8895d6099d592499,"[""period""]",0,[0.3037000000476837],77,0,77,0,1
,,,,,,,61336aa3494f26b27c63408f,,,,,,61336aa3494f26b27c63408f,Mężczyzna,19,2021-09-06_18h19.36.645,rantool2,2021.1.4,Win32,59.98440405,6135e006383e6ea6c3d06a28,61363f4a8895d6099d592499,"[""period""]",0,[0.2242999999523363],78,0,78,0,1
,,,,,,,61336aa3494f26b27c63408f,,,,,,61336aa3494f26b27c63408f,Mężczyzna,19,2021-09-06_18h19.36.645,rantool2,2021.1.4,Win32,59.98440405,6135e006383e6ea6c3d06a28,61363f4a8895d6099d592499,"[""comma""]",0,[0.26729999995234266],79,0,79,0,1
,,,,,,,61336aa3494f26b27c63408f,,,,,,61336aa3494f26b27c63408f,Mężczyzna,19,2021-09-06_18h19.36.645,rantool2,2021.1.4,Win32,59.98440405,6135e006383e6ea6c3d06a28,61363f4a8895d6099d592499,"[""period""]",0,[0.18430000001194458],80,0,80,0,1
,,,,,,,61336aa3494f26b27c63408f,,,,,,61336aa3494f26b27c63408f,Mężczyzna,19,2021-09-06_18h19.36.645,rantool2,2021.1.4,Win32,59.98440405,6135e006383e6ea6c3d06a28,61363f4a8895d6099d592499,"[""comma""]",0,[0.2571999999880745],81,0,81,0,1
,,,,,,,61336aa3494f26b27c63408f,,,,,,61336aa3494f26b27c63408f,Mężczyzna,19,2021-09-06_18h19.36.645,rantool2,2021.1.4,Win32,59.98440405,6135e006383e6ea6c3d06a28,61363f4a8895d6099d592499,"[""comma""]",0,[0.2856999999880827],82,0,82,0,1
,,,,,,,61336aa3494f26b27c63408f,,,,,,61336aa3494f26b27c63408f,Mężczyzna,19,2021-09-06_18h19.36.645,rantool2,2021.1.4,Win32,59.98440405,6135e006383e6ea6c3d06a28,61363f4a8895d6099d592499,"[""period""]",0,[0.1764999999999759],83,0,83,0,1
,,,,,,,61336aa3494f26b27c63408f,,,,,,61336aa3494f26b27c63408f,Mężczyzna,19,2021-09-06_18h19.36.645,rantool2,2021.1.4,Win32,59.98440405,6135e006383e6ea6c3d06a28,61363f4a8895d6099d592499,"[""comma""]",0,[0.2179999999999609],84,0,84,0,1
,,,,,,,61336aa3494f26b27c63408f,,,,,,61336aa3494f26b27c63408f,Mężczyzna,19,2021-09-06_18h19.36.645,rantool2,2021.1.4,Win32,59.98440405,6135e006383e6ea6c3d06a28,61363f4a8895d6099d592499,"[""period""]",0,[0.2839999999999918],85,0,85,0,1
,,,,,,,61336aa3494f26b27c63408f,,,,,,61336aa3494f26b27c63408f,Mężczyzna,19,2021-09-06_18h19.36.645,rantool2,2021.1.4,Win32,59.98440405,6135e006383e6ea6c3d06a28,61363f4a8895d6099d592499,"[""comma""]",0,[0.2716000000238523],86,0,86,0,1
,,,,,,,61336aa3494f26b27c63408f,,,,,,61336aa3494f26b27c63408f,Mężczyzna,19,2021-09-06_18h19.36.645,rantool2,2021.1.4,Win32,59.98440405,6135e006383e6ea6c3d06a28,61363f4a8895d6099d592499,"[""comma""]",0,[0.4417000000476605],87,0,87,0,1
,,,,,,,61336aa3494f26b27c63408f,,,,,,61336aa3494f26b27c63408f,Mężczyzna,19,2021-09-06_18h19.36.645,rantool2,2021.1.4,Win32,59.98440405,6135e006383e6ea6c3d06a28,61363f4a8895d6099d592499,"[""period""]",0,[0.2271999999881018],88,0,88,0,1
,,,,,,,61336aa3494f26b27c63408f,,,,,,61336aa3494f26b27c63408f,Mężczyzna,19,2021-09-06_18h19.36.645,rantool2,2021.1.4,Win32,59.98440405,6135e006383e6ea6c3d06a28,61363f4a8895d6099d592499,"[""period""]",0,[0.11319999998812591],89,0,89,0,1
,,,,,,,61336aa3494f26b27c63408f,,,,,,61336aa3494f26b27c63408f,Mężczyzna,19,2021-09-06_18h19.36.645,rantool2,2021.1.4,Win32,59.98440405,6135e006383e6ea6c3d06a28,61363f4a8895d6099d592499,"[""period""]",0,[0.24010000002385823],90,0,90,0,1
,,,,,,,61336aa3494f26b27c63408f,,,,,,61336aa3494f26b27c63408f,Mężczyzna,19,2021-09-06_18h19.36.645,rantool2,2021.1.4,Win32,59.98440405,6135e006383e6ea6c3d06a28,61363f4a8895d6099d592499,"[""comma""]",0,[0.31960000002385414],91,0,91,0,1
,,,,,,,61336aa3494f26b27c63408f,,,,,,61336aa3494f26b27c63408f,Mężczyzna,19,2021-09-06_18h19.36.645,rantool2,2021.1.4,Win32,59.98440405,6135e006383e6ea6c3d06a28,61363f4a8895d6099d592499,"[""period""]",0,[0.29130000001191547],92,0,92,0,1
,,,,,,,61336aa3494f26b27c63408f,,,,,,61336aa3494f26b27c63408f,Mężczyzna,19,2021-09-06_18h19.36.645,rantool2,2021.1.4,Win32,59.98440405,6135e006383e6ea6c3d06a28,61363f4a8895d6099d592499,"[""comma""]",0,[0.3043999999761695],93,0,93,0,1
,,,,,,,61336aa3494f26b27c63408f,,,,,,61336aa3494f26b27c63408f,Mężczyzna,19,2021-09-06_18h19.36.645,rantool2,2021.1.4,Win32,59.98440405,6135e006383e6ea6c3d06a28,61363f4a8895d6099d592499,"[""period""]",0,[0.285000000000025],94,0,94,0,1
,,,,,,,61336aa3494f26b27c63408f,,,,,,61336aa3494f26b27c63408f,Mężczyzna,19,2021-09-06_18h19.36.645,rantool2,2021.1.4,Win32,59.98440405,6135e006383e6ea6c3d06a28,61363f4a8895d6099d592499,"[""comma""]",0,[0.2305999999642836],95,0,95,0,1
,,,,,,,61336aa3494f26b27c63408f,,,,,,61336aa3494f26b27c63408f,Mężczyzna,19,2021-09-06_18h19.36.645,rantool2,2021.1.4,Win32,59.98440405,6135e006383e6ea6c3d06a28,61363f4a8895d6099d592499,"[""comma""]",0,[0.22410000002383867],96,0,96,0,1
,,,,,,,61336aa3494f26b27c63408f,,,,,,61336aa3494f26b27c63408f,Mężczyzna,19,2021-09-06_18h19.36.645,rantool2,2021.1.4,Win32,59.98440405,6135e006383e6ea6c3d06a28,61363f4a8895d6099d592499,"[""comma""]",0,[0.33310000002387596],97,0,97,0,1
,,,,,,,61336aa3494f26b27c63408f,,,,,,61336aa3494f26b27c63408f,Mężczyzna,19,2021-09-06_18h19.36.645,rantool2,2021.1.4,Win32,59.98440405,6135e006383e6ea6c3d06a28,61363f4a8895d6099d592499,"[""period""]",0,[0.2242000000476878],98,0,98,0,1
,,,,,,,61336aa3494f26b27c63408f,,,,,,61336aa3494f26b27c63408f,Mężczyzna,19,2021-09-06_18h19.36.645,rantool2,2021.1.4,Win32,59.98440405,6135e006383e6ea6c3d06a28,61363f4a8895d6099d592499,"[""period""]",0,[0.32099999999996953],99,0,99,0,1
,,,,,,,61336aa3494f26b27c63408f,,,,,,61336aa3494f26b27c63408f,Mężczyzna,19,2021-09-06_18h19.36.645,rantool2,2021.1.4,Win32,59.98440405,6135e006383e6ea6c3d06a28,61363f4a8895d6099d592499,"[""comma""]",0,[0.24799999999999045],100,0,100,0,1
,,,,,,,61336aa3494f26b27c63408f,,,,,,61336aa3494f26b27c63408f,Mężczyzna,19,2021-09-06_18h19.36.645,rantool2,2021.1.4,Win32,59.98440405,6135e006383e6ea6c3d06a28,61363f4a8895d6099d592499,"[""period""]",0,[0.28269999998803996],101,0,101,0,1
,,,,,,,61336aa3494f26b27c63408f,,,,,,61336aa3494f26b27c63408f,Mężczyzna,19,2021-09-06_18h19.36.645,rantool2,2021.1.4,Win32,59.98440405,6135e006383e6ea6c3d06a28,61363f4a8895d6099d592499,"[""comma""]",0,[0.39130000001188137],102,0,102,0,1
,,,,,,,61336aa3494f26b27c63408f,,,,,,61336aa3494f26b27c63408f,Mężczyzna,19,2021-09-06_18h19.36.645,rantool2,2021.1.4,Win32,59.98440405,6135e006383e6ea6c3d06a28,61363f4a8895d6099d592499,"[""period""]",0,[0.2763999999761495],103,0,103,0,1
,,,,,,,61336aa3494f26b27c63408f,,,,,,61336aa3494f26b27c63408f,Mężczyzna,19,2021-09-06_18h19.36.645,rantool2,2021.1.4,Win32,59.98440405,6135e006383e6ea6c3d06a28,61363f4a8895d6099d592499,"[""period""]",0,[0.2919000000357528],104,0,104,0,1
,,,,,,,61336aa3494f26b27c63408f,,,,,,61336aa3494f26b27c63408f,Mężczyzna,19,2021-09-06_18h19.36.645,rantool2,2021.1.4,Win32,59.98440405,6135e006383e6ea6c3d06a28,61363f4a8895d6099d592499,"[""comma""]",0,[0.30869999998810727],105,0,105,0,1
,,,,,,,61336aa3494f26b27c63408f,,,,,,61336aa3494f26b27c63408f,Mężczyzna,19,2021-09-06_18h19.36.645,rantool2,2021.1.4,Win32,59.98440405,6135e006383e6ea6c3d06a28,61363f4a8895d6099d592499,"[""period""]",0,[1.2150000000000318],106,0,106,0,1
,,,,,,,61336aa3494f26b27c63408f,,,,,,61336aa3494f26b27c63408f,Mężczyzna,19,2021-09-06_18h19.36.645,rantool2,2021.1.4,Win32,59.98440405,6135e006383e6ea6c3d06a28,61363f4a8895d6099d592499,"[""period"",""comma""]",0,"[0.25540000003576324,1.555100000023856]",107,0,107,0,1
,,,,,,,61336aa3494f26b27c63408f,,,,,,61336aa3494f26b27c63408f,Mężczyzna,19,2021-09-06_18h19.36.645,rantool2,2021.1.4,Win32,59.98440405,6135e006383e6ea6c3d06a28,61363f4a8895d6099d592499,"[""comma""]",0,[0.32219999998807225],108,0,108,0,1
,,,,,,,61336aa3494f26b27c63408f,,,,,,61336aa3494f26b27c63408f,Mężczyzna,19,2021-09-06_18h19.36.645,rantool2,2021.1.4,Win32,59.98440405,6135e006383e6ea6c3d06a28,61363f4a8895d6099d592499,0,0,,109,0,109,0,1
,,,,,,,61336aa3494f26b27c63408f,,,,,,61336aa3494f26b27c63408f,Mężczyzna,19,2021-09-06_18h19.36.645,rantool2,2021.1.4,Win32,59.98440405,6135e006383e6ea6c3d06a28,61363f4a8895d6099d592499,"[""period""]",0,[0.24950000000001182],110,0,110,0,1
,,,,,,,61336aa3494f26b27c63408f,,,,,,61336aa3494f26b27c63408f,Mężczyzna,19,2021-09-06_18h19.36.645,rantool2,2021.1.4,Win32,59.98440405,6135e006383e6ea6c3d06a28,61363f4a8895d6099d592499,"[""comma""]",0,[0.3058999999761909],111,0,111,0,1
,,,,,,,61336aa3494f26b27c63408f,,,,,,61336aa3494f26b27c63408f,Mężczyzna,19,2021-09-06_18h19.36.645,rantool2,2021.1.4,Win32,59.98440405,6135e006383e6ea6c3d06a28,61363f4a8895d6099d592499,"[""comma""]",0,[0.2203000000118891],112,0,112,0,1
,,,,,,,61336aa3494f26b27c63408f,,,,,,61336aa3494f26b27c63408f,Mężczyzna,19,2021-09-06_18h19.36.645,rantool2,2021.1.4,Win32,59.98440405,6135e006383e6ea6c3d06a28,61363f4a8895d6099d592499,"[""period""]",0,[0.3346000000238405],113,0,113,0,1
,,,,,,,61336aa3494f26b27c63408f,,,,,,61336aa3494f26b27c63408f,Mężczyzna,19,2021-09-06_18h19.36.645,rantool2,2021.1.4,Win32,59.98440405,6135e006383e6ea6c3d06a28,61363f4a8895d6099d592499,"[""period""]",0,[0.29119999998806634],114,0,114,0,1
,,,,,,,61336aa3494f26b27c63408f,,,,,,61336aa3494f26b27c63408f,Mężczyzna,19,2021-09-06_18h19.36.645,rantool2,2021.1.4,Win32,59.98440405,6135e006383e6ea6c3d06a28,61363f4a8895d6099d592499,"[""comma""]",0,[0.23479999995231537],115,0,115,0,1
,,,,,,,61336aa3494f26b27c63408f,,,,,,61336aa3494f26b27c63408f,Mężczyzna,19,2021-09-06_18h19.36.645,rantool2,2021.1.4,Win32,59.98440405,6135e006383e6ea6c3d06a28,61363f4a8895d6099d592499,"[""comma""]",0,[0.26559999996425177],116,0,116,0,1
,,,,,,,61336aa3494f26b27c63408f,,,,,,61336aa3494f26b27c63408f,Mężczyzna,19,2021-09-06_18h19.36.645,rantool2,2021.1.4,Win32,59.98440405,6135e006383e6ea6c3d06a28,61363f4a8895d6099d592499,"[""period""]",0,[0.2861999999880709],117,0,117,0,1
,,,,,,,61336aa3494f26b27c63408f,,,,,,61336aa3494f26b27c63408f,Mężczyzna,19,2021-09-06_18h19.36.645,rantool2,2021.1.4,Win32,59.98440405,6135e006383e6ea6c3d06a28,61363f4a8895d6099d592499,"[""period""]",0,[0.3294000000357187],118,0,118,0,1
,,,,,,,61336aa3494f26b27c63408f,,,,,,61336aa3494f26b27c63408f,Mężczyzna,19,2021-09-06_18h19.36.645,rantool2,2021.1.4,Win32,59.98440405,6135e006383e6ea6c3d06a28,61363f4a8895d6099d592499,"[""period""]",0,[0.3885999999642422],119,0,119,0,1
