key_resp_7.keys,key_resp_7.rt,trials_2.thisRepN,trials_2.thisTrialN,trials_2.thisN,trials_2.thisIndex,trials_2.ran,id,series_0,series_1,acss_0,acss_1,comparison,id*,Płeć*,Wiek*,date,expName,psychopyVersion,OS,frameRate,STUDY_ID,SESSION_ID,key_resp_5.keys,key_resp_5.corr,key_resp_5.rt,trials.thisRepN,trials.thisTrialN,trials.thisN,trials.thisIndex,trials.ran
j,0.901,0,0,0,7,1,5ea8093530fe1e200917c979,OOORRRO,OOORRRR,21.6194508,21.899017,series_1,5ea8093530fe1e200917c979,Mężczyzna,20,2021-09-06_19h23.07.654,rantool2,2021.1.4,Win32,60.04924038,6135e006383e6ea6c3d06a28,61364e58c9f13d16ed8a9f7c,,,,,,,,
j,1.3517,0,1,1,22,1,5ea8093530fe1e200917c979,ORORROO,ORORROR,22.02732763,21.57657071,series_0,5ea8093530fe1e200917c979,Mężczyzna,20,2021-09-06_19h23.07.654,rantool2,2021.1.4,Win32,60.04924038,6135e006383e6ea6c3d06a28,61364e58c9f13d16ed8a9f7c,,,,,,,,
j,1.7532,0,2,2,32,1,5ea8093530fe1e200917c979,ROOOOOO,ROOOOOR,19.92253567,21.27974287,series_1,5ea8093530fe1e200917c979,Mężczyzna,20,2021-09-06_19h23.07.654,rantool2,2021.1.4,Win32,60.04924038,6135e006383e6ea6c3d06a28,61364e58c9f13d16ed8a9f7c,,,,,,,,
f,1.3379,0,3,3,11,1,5ea8093530fe1e200917c979,OORORRO,OORORRR,22.18365867,22.6797523,series_1,5ea8093530fe1e200917c979,Mężczyzna,20,2021-09-06_19h23.07.654,rantool2,2021.1.4,Win32,60.04924038,6135e006383e6ea6c3d06a28,61364e58c9f13d16ed8a9f7c,,,,,,,,
j,1.852,0,4,4,31,1,5ea8093530fe1e200917c979,ORRRRRO,ORRRRRR,22.16413392,20.74050628,series_0,5ea8093530fe1e200917c979,Mężczyzna,20,2021-09-06_19h23.07.654,rantool2,2021.1.4,Win32,60.04924038,6135e006383e6ea6c3d06a28,61364e58c9f13d16ed8a9f7c,,,,,,,,
f,1.4165,0,5,5,16,1,5ea8093530fe1e200917c979,OROOOOO,OROOOOR,20.43051175,21.17347734,series_1,5ea8093530fe1e200917c979,Mężczyzna,20,2021-09-06_19h23.07.654,rantool2,2021.1.4,Win32,60.04924038,6135e006383e6ea6c3d06a28,61364e58c9f13d16ed8a9f7c,,,,,,,,
f,1.6497,0,6,6,33,1,5ea8093530fe1e200917c979,ROOOORO,ROOOORR,20.83779602,22.03072203,series_1,5ea8093530fe1e200917c979,Mężczyzna,20,2021-09-06_19h23.07.654,rantool2,2021.1.4,Win32,60.04924038,6135e006383e6ea6c3d06a28,61364e58c9f13d16ed8a9f7c,,,,,,,,
f,1.3705,0,7,7,15,1,5ea8093530fe1e200917c979,OORRRRO,OORRRRR,22.10108823,21.74922619,series_0,5ea8093530fe1e200917c979,Mężczyzna,20,2021-09-06_19h23.07.654,rantool2,2021.1.4,Win32,60.04924038,6135e006383e6ea6c3d06a28,61364e58c9f13d16ed8a9f7c,,,,,,,,
j,1.6153,0,8,8,26,1,5ea8093530fe1e200917c979,ORROROO,ORROROR,22.02732763,21.71443381,series_0,5ea8093530fe1e200917c979,Mężczyzna,20,2021-09-06_19h23.07.654,rantool2,2021.1.4,Win32,60.04924038,6135e006383e6ea6c3d06a28,61364e58c9f13d16ed8a9f7c,,,,,,,,
f,1.3039,0,9,9,17,1,5ea8093530fe1e200917c979,OROOORO,OROOORR,21.03750787,22.12173012,series_1,5ea8093530fe1e200917c979,Mężczyzna,20,2021-09-06_19h23.07.654,rantool2,2021.1.4,Win32,60.04924038,6135e006383e6ea6c3d06a28,61364e58c9f13d16ed8a9f7c,,,,,,,,
j,1.5671,0,10,10,36,1,5ea8093530fe1e200917c979,ROOROOO,ROOROOR,21.07991943,20.9984461,series_0,5ea8093530fe1e200917c979,Mężczyzna,20,2021-09-06_19h23.07.654,rantool2,2021.1.4,Win32,60.04924038,6135e006383e6ea6c3d06a28,61364e58c9f13d16ed8a9f7c,,,,,,,,
j,1.6341,0,11,11,54,1,5ea8093530fe1e200917c979,RRORROO,RRORROR,21.55250791,20.9984461,series_0,5ea8093530fe1e200917c979,Mężczyzna,20,2021-09-06_19h23.07.654,rantool2,2021.1.4,Win32,60.04924038,6135e006383e6ea6c3d06a28,61364e58c9f13d16ed8a9f7c,,,,,,,,
j,1.4544,0,12,12,4,1,5ea8093530fe1e200917c979,OOOROOO,OOOROOR,19.91402015,21.21223021,series_1,5ea8093530fe1e200917c979,Mężczyzna,20,2021-09-06_19h23.07.654,rantool2,2021.1.4,Win32,60.04924038,6135e006383e6ea6c3d06a28,61364e58c9f13d16ed8a9f7c,,,,,,,,
f,1.7558,0,13,13,62,1,5ea8093530fe1e200917c979,RRRRROO,RRRRROR,22.16413392,21.27974287,series_0,5ea8093530fe1e200917c979,Mężczyzna,20,2021-09-06_19h23.07.654,rantool2,2021.1.4,Win32,60.04924038,6135e006383e6ea6c3d06a28,61364e58c9f13d16ed8a9f7c,,,,,,,,
j,2.0822,0,14,14,43,1,5ea8093530fe1e200917c979,RORORRO,RORORRR,20.71309134,21.07490964,series_1,5ea8093530fe1e200917c979,Mężczyzna,20,2021-09-06_19h23.07.654,rantool2,2021.1.4,Win32,60.04924038,6135e006383e6ea6c3d06a28,61364e58c9f13d16ed8a9f7c,,,,,,,,
f,1.634,0,15,15,42,1,5ea8093530fe1e200917c979,ROROROO,ROROROR,20.39515459,19.8361834,series_0,5ea8093530fe1e200917c979,Mężczyzna,20,2021-09-06_19h23.07.654,rantool2,2021.1.4,Win32,60.04924038,6135e006383e6ea6c3d06a28,61364e58c9f13d16ed8a9f7c,,,,,,,,
f,2.0494,0,16,16,51,1,5ea8093530fe1e200917c979,RROORRO,RROORRR,21.89852628,22.02786418,series_1,5ea8093530fe1e200917c979,Mężczyzna,20,2021-09-06_19h23.07.654,rantool2,2021.1.4,Win32,60.04924038,6135e006383e6ea6c3d06a28,61364e58c9f13d16ed8a9f7c,,,,,,,,
f,1.8103,0,17,17,52,1,5ea8093530fe1e200917c979,RROROOO,RROROOR,22.18365867,22.11097995,series_0,5ea8093530fe1e200917c979,Mężczyzna,20,2021-09-06_19h23.07.654,rantool2,2021.1.4,Win32,60.04924038,6135e006383e6ea6c3d06a28,61364e58c9f13d16ed8a9f7c,,,,,,,,
j,1.824,0,18,18,44,1,5ea8093530fe1e200917c979,RORROOO,RORROOR,21.66733484,22.02566557,series_1,5ea8093530fe1e200917c979,Mężczyzna,20,2021-09-06_19h23.07.654,rantool2,2021.1.4,Win32,60.04924038,6135e006383e6ea6c3d06a28,61364e58c9f13d16ed8a9f7c,,,,,,,,
f,1.8833,0,19,19,41,1,5ea8093530fe1e200917c979,ROROORO,ROROORR,20.42602454,21.71443381,series_1,5ea8093530fe1e200917c979,Mężczyzna,20,2021-09-06_19h23.07.654,rantool2,2021.1.4,Win32,60.04924038,6135e006383e6ea6c3d06a28,61364e58c9f13d16ed8a9f7c,,,,,,,,
j,1.9666,0,20,20,10,1,5ea8093530fe1e200917c979,OOROROO,OOROROR,21.31236711,21.07490964,series_0,5ea8093530fe1e200917c979,Mężczyzna,20,2021-09-06_19h23.07.654,rantool2,2021.1.4,Win32,60.04924038,6135e006383e6ea6c3d06a28,61364e58c9f13d16ed8a9f7c,,,,,,,,
f,2.3331,0,21,21,25,1,5ea8093530fe1e200917c979,ORROORO,ORROORR,21.79500819,22.61624387,series_1,5ea8093530fe1e200917c979,Mężczyzna,20,2021-09-06_19h23.07.654,rantool2,2021.1.4,Win32,60.04924038,6135e006383e6ea6c3d06a28,61364e58c9f13d16ed8a9f7c,,,,,,,,
j,1.4252,0,22,22,63,1,5ea8093530fe1e200917c979,RRRRRRO,RRRRRRR,21.35278725,19.62521613,series_0,5ea8093530fe1e200917c979,Mężczyzna,20,2021-09-06_19h23.07.654,rantool2,2021.1.4,Win32,60.04924038,6135e006383e6ea6c3d06a28,61364e58c9f13d16ed8a9f7c,,,,,,,,
j,2.1103,0,23,23,30,1,5ea8093530fe1e200917c979,ORRRROO,ORRRROR,22.46748491,22.03072203,series_0,5ea8093530fe1e200917c979,Mężczyzna,20,2021-09-06_19h23.07.654,rantool2,2021.1.4,Win32,60.04924038,6135e006383e6ea6c3d06a28,61364e58c9f13d16ed8a9f7c,,,,,,,,
j,1.707,0,24,24,29,1,5ea8093530fe1e200917c979,ORRRORO,ORRRORR,22.00300695,22.12173012,series_1,5ea8093530fe1e200917c979,Mężczyzna,20,2021-09-06_19h23.07.654,rantool2,2021.1.4,Win32,60.04924038,6135e006383e6ea6c3d06a28,61364e58c9f13d16ed8a9f7c,,,,,,,,
j,1.9676,0,25,25,37,1,5ea8093530fe1e200917c979,ROORORO,ROORORR,20.42602454,21.57657071,series_1,5ea8093530fe1e200917c979,Mężczyzna,20,2021-09-06_19h23.07.654,rantool2,2021.1.4,Win32,60.04924038,6135e006383e6ea6c3d06a28,61364e58c9f13d16ed8a9f7c,,,,,,,,
f,1.7539,0,26,26,13,1,5ea8093530fe1e200917c979,OORRORO,OORRORR,21.66733484,22.11181017,series_1,5ea8093530fe1e200917c979,Mężczyzna,20,2021-09-06_19h23.07.654,rantool2,2021.1.4,Win32,60.04924038,6135e006383e6ea6c3d06a28,61364e58c9f13d16ed8a9f7c,,,,,,,,
f,1.7252,0,27,27,48,1,5ea8093530fe1e200917c979,RROOOOO,RROOOOR,20.90986523,22.15934078,series_1,5ea8093530fe1e200917c979,Mężczyzna,20,2021-09-06_19h23.07.654,rantool2,2021.1.4,Win32,60.04924038,6135e006383e6ea6c3d06a28,61364e58c9f13d16ed8a9f7c,,,,,,,,
j,1.9709,0,28,28,28,1,5ea8093530fe1e200917c979,ORRROOO,ORRROOR,22.24142883,22.53364006,series_1,5ea8093530fe1e200917c979,Mężczyzna,20,2021-09-06_19h23.07.654,rantool2,2021.1.4,Win32,60.04924038,6135e006383e6ea6c3d06a28,61364e58c9f13d16ed8a9f7c,,,,,,,,
f,1.3335,0,29,29,8,1,5ea8093530fe1e200917c979,OOROOOO,OOROOOR,19.91402015,20.89823192,series_1,5ea8093530fe1e200917c979,Mężczyzna,20,2021-09-06_19h23.07.654,rantool2,2021.1.4,Win32,60.04924038,6135e006383e6ea6c3d06a28,61364e58c9f13d16ed8a9f7c,,,,,,,,
j,1.6531,0,30,30,34,1,5ea8093530fe1e200917c979,ROOOROO,ROOOROR,21.03750787,21.24781509,series_1,5ea8093530fe1e200917c979,Mężczyzna,20,2021-09-06_19h23.07.654,rantool2,2021.1.4,Win32,60.04924038,6135e006383e6ea6c3d06a28,61364e58c9f13d16ed8a9f7c,,,,,,,,
f,1.4035,0,31,31,23,1,5ea8093530fe1e200917c979,ORORRRO,ORORRRR,22.1285618,21.9921709,series_0,5ea8093530fe1e200917c979,Mężczyzna,20,2021-09-06_19h23.07.654,rantool2,2021.1.4,Win32,60.04924038,6135e006383e6ea6c3d06a28,61364e58c9f13d16ed8a9f7c,,,,,,,,
j,1.1497,0,32,32,2,1,5ea8093530fe1e200917c979,OOOOROO,OOOOROR,20.43051175,21.02936224,series_1,5ea8093530fe1e200917c979,Mężczyzna,20,2021-09-06_19h23.07.654,rantool2,2021.1.4,Win32,60.04924038,6135e006383e6ea6c3d06a28,61364e58c9f13d16ed8a9f7c,,,,,,,,
j,1.245,0,33,33,5,1,5ea8093530fe1e200917c979,OOORORO,OOORORR,20.87963819,21.9921709,series_1,5ea8093530fe1e200917c979,Mężczyzna,20,2021-09-06_19h23.07.654,rantool2,2021.1.4,Win32,60.04924038,6135e006383e6ea6c3d06a28,61364e58c9f13d16ed8a9f7c,,,,,,,,
j,1.3712,0,34,34,35,1,5ea8093530fe1e200917c979,ROOORRO,ROOORRR,21.76276513,22.16977179,series_1,5ea8093530fe1e200917c979,Mężczyzna,20,2021-09-06_19h23.07.654,rantool2,2021.1.4,Win32,60.04924038,6135e006383e6ea6c3d06a28,61364e58c9f13d16ed8a9f7c,,,,,,,,
j,1.4099,0,35,35,57,1,5ea8093530fe1e200917c979,RRROORO,RRROORR,21.82425538,22.07102821,series_1,5ea8093530fe1e200917c979,Mężczyzna,20,2021-09-06_19h23.07.654,rantool2,2021.1.4,Win32,60.04924038,6135e006383e6ea6c3d06a28,61364e58c9f13d16ed8a9f7c,,,,,,,,
j,1.2171,0,36,36,19,1,5ea8093530fe1e200917c979,OROORRO,OROORRR,21.73568164,22.11181017,series_1,5ea8093530fe1e200917c979,Mężczyzna,20,2021-09-06_19h23.07.654,rantool2,2021.1.4,Win32,60.04924038,6135e006383e6ea6c3d06a28,61364e58c9f13d16ed8a9f7c,,,,,,,,
f,1.5515,0,37,37,40,1,5ea8093530fe1e200917c979,ROROOOO,ROROOOR,20.87963819,21.37121559,series_1,5ea8093530fe1e200917c979,Mężczyzna,20,2021-09-06_19h23.07.654,rantool2,2021.1.4,Win32,60.04924038,6135e006383e6ea6c3d06a28,61364e58c9f13d16ed8a9f7c,,,,,,,,
j,1.3179,0,38,38,58,1,5ea8093530fe1e200917c979,RRROROO,RRROROR,22.1285618,21.37121559,series_0,5ea8093530fe1e200917c979,Mężczyzna,20,2021-09-06_19h23.07.654,rantool2,2021.1.4,Win32,60.04924038,6135e006383e6ea6c3d06a28,61364e58c9f13d16ed8a9f7c,,,,,,,,
j,1.7778,0,39,39,46,1,5ea8093530fe1e200917c979,RORRROO,RORRROR,22.00300695,21.24781509,series_0,5ea8093530fe1e200917c979,Mężczyzna,20,2021-09-06_19h23.07.654,rantool2,2021.1.4,Win32,60.04924038,6135e006383e6ea6c3d06a28,61364e58c9f13d16ed8a9f7c,,,,,,,,
f,1.2666,0,40,40,50,1,5ea8093530fe1e200917c979,RROOROO,RROOROR,21.73568164,22.02566557,series_1,5ea8093530fe1e200917c979,Mężczyzna,20,2021-09-06_19h23.07.654,rantool2,2021.1.4,Win32,60.04924038,6135e006383e6ea6c3d06a28,61364e58c9f13d16ed8a9f7c,,,,,,,,
j,1.2263,0,41,41,27,1,5ea8093530fe1e200917c979,ORRORRO,ORRORRR,21.55250791,22.2428857,series_1,5ea8093530fe1e200917c979,Mężczyzna,20,2021-09-06_19h23.07.654,rantool2,2021.1.4,Win32,60.04924038,6135e006383e6ea6c3d06a28,61364e58c9f13d16ed8a9f7c,,,,,,,,
f,1.2934,0,42,42,6,1,5ea8093530fe1e200917c979,OOORROO,OOORROR,21.12383932,21.38562617,series_1,5ea8093530fe1e200917c979,Mężczyzna,20,2021-09-06_19h23.07.654,rantool2,2021.1.4,Win32,60.04924038,6135e006383e6ea6c3d06a28,61364e58c9f13d16ed8a9f7c,,,,,,,,
f,1.4415,0,43,43,20,1,5ea8093530fe1e200917c979,OROROOO,OROROOR,21.31236711,21.90565814,series_1,5ea8093530fe1e200917c979,Mężczyzna,20,2021-09-06_19h23.07.654,rantool2,2021.1.4,Win32,60.04924038,6135e006383e6ea6c3d06a28,61364e58c9f13d16ed8a9f7c,,,,,,,,
f,1.5031,0,44,44,1,1,5ea8093530fe1e200917c979,OOOOORO,OOOOORR,19.92253567,20.74050628,series_1,5ea8093530fe1e200917c979,Mężczyzna,20,2021-09-06_19h23.07.654,rantool2,2021.1.4,Win32,60.04924038,6135e006383e6ea6c3d06a28,61364e58c9f13d16ed8a9f7c,,,,,,,,
f,1.7443,0,45,45,24,1,5ea8093530fe1e200917c979,ORROOOO,ORROOOR,21.12383932,22.07102821,series_1,5ea8093530fe1e200917c979,Mężczyzna,20,2021-09-06_19h23.07.654,rantool2,2021.1.4,Win32,60.04924038,6135e006383e6ea6c3d06a28,61364e58c9f13d16ed8a9f7c,,,,,,,,
j,1.2521,0,46,46,21,1,5ea8093530fe1e200917c979,ORORORO,ORORORR,20.39515459,22.06781359,series_1,5ea8093530fe1e200917c979,Mężczyzna,20,2021-09-06_19h23.07.654,rantool2,2021.1.4,Win32,60.04924038,6135e006383e6ea6c3d06a28,61364e58c9f13d16ed8a9f7c,,,,,,,,
f,1.2532,0,47,47,47,1,5ea8093530fe1e200917c979,RORRRRO,RORRRRR,21.81333602,21.02936224,series_0,5ea8093530fe1e200917c979,Mężczyzna,20,2021-09-06_19h23.07.654,rantool2,2021.1.4,Win32,60.04924038,6135e006383e6ea6c3d06a28,61364e58c9f13d16ed8a9f7c,,,,,,,,
j,1.2877,0,48,48,59,1,5ea8093530fe1e200917c979,RRRORRO,RRRORRR,21.56657303,20.89823192,series_0,5ea8093530fe1e200917c979,Mężczyzna,20,2021-09-06_19h23.07.654,rantool2,2021.1.4,Win32,60.04924038,6135e006383e6ea6c3d06a28,61364e58c9f13d16ed8a9f7c,,,,,,,,
f,1.4174,0,49,49,12,1,5ea8093530fe1e200917c979,OORROOO,OORROOR,21.30250474,22.02786418,series_1,5ea8093530fe1e200917c979,Mężczyzna,20,2021-09-06_19h23.07.654,rantool2,2021.1.4,Win32,60.04924038,6135e006383e6ea6c3d06a28,61364e58c9f13d16ed8a9f7c,,,,,,,,
f,1.162,0,50,50,14,1,5ea8093530fe1e200917c979,OORRROO,OORRROR,22.24142883,22.16977179,series_0,5ea8093530fe1e200917c979,Mężczyzna,20,2021-09-06_19h23.07.654,rantool2,2021.1.4,Win32,60.04924038,6135e006383e6ea6c3d06a28,61364e58c9f13d16ed8a9f7c,,,,,,,,
f,2.4692,0,51,51,45,1,5ea8093530fe1e200917c979,RORRORO,RORRORR,20.78182524,21.22513037,series_1,5ea8093530fe1e200917c979,Mężczyzna,20,2021-09-06_19h23.07.654,rantool2,2021.1.4,Win32,60.04924038,6135e006383e6ea6c3d06a28,61364e58c9f13d16ed8a9f7c,,,,,,,,
j,1.3875,0,52,52,49,1,5ea8093530fe1e200917c979,RROOORO,RROOORR,21.76276513,22.53364006,series_1,5ea8093530fe1e200917c979,Mężczyzna,20,2021-09-06_19h23.07.654,rantool2,2021.1.4,Win32,60.04924038,6135e006383e6ea6c3d06a28,61364e58c9f13d16ed8a9f7c,,,,,,,,
f,1.4742,0,53,53,18,1,5ea8093530fe1e200917c979,OROOROO,OROOROR,20.84860893,21.22513037,series_1,5ea8093530fe1e200917c979,Mężczyzna,20,2021-09-06_19h23.07.654,rantool2,2021.1.4,Win32,60.04924038,6135e006383e6ea6c3d06a28,61364e58c9f13d16ed8a9f7c,,,,,,,,
j,2.183,0,54,54,0,1,5ea8093530fe1e200917c979,OOOOOOO,OOOOOOR,18.52739004,19.62521613,series_1,5ea8093530fe1e200917c979,Mężczyzna,20,2021-09-06_19h23.07.654,rantool2,2021.1.4,Win32,60.04924038,6135e006383e6ea6c3d06a28,61364e58c9f13d16ed8a9f7c,,,,,,,,
f,2.1676,0,55,55,38,1,5ea8093530fe1e200917c979,ROORROO,ROORROR,21.79500819,21.36812781,series_0,5ea8093530fe1e200917c979,Mężczyzna,20,2021-09-06_19h23.07.654,rantool2,2021.1.4,Win32,60.04924038,6135e006383e6ea6c3d06a28,61364e58c9f13d16ed8a9f7c,,,,,,,,
j,1.2864,0,56,56,56,1,5ea8093530fe1e200917c979,RRROOOO,RRROOOR,21.6194508,22.31681875,series_1,5ea8093530fe1e200917c979,Mężczyzna,20,2021-09-06_19h23.07.654,rantool2,2021.1.4,Win32,60.04924038,6135e006383e6ea6c3d06a28,61364e58c9f13d16ed8a9f7c,,,,,,,,
f,1.6662,0,57,57,39,1,5ea8093530fe1e200917c979,ROORRRO,ROORRRR,21.82425538,21.38562617,series_0,5ea8093530fe1e200917c979,Mężczyzna,20,2021-09-06_19h23.07.654,rantool2,2021.1.4,Win32,60.04924038,6135e006383e6ea6c3d06a28,61364e58c9f13d16ed8a9f7c,,,,,,,,
j,1.3607,0,58,58,60,1,5ea8093530fe1e200917c979,RRRROOO,RRRROOR,22.10108823,22.15934078,series_1,5ea8093530fe1e200917c979,Mężczyzna,20,2021-09-06_19h23.07.654,rantool2,2021.1.4,Win32,60.04924038,6135e006383e6ea6c3d06a28,61364e58c9f13d16ed8a9f7c,,,,,,,,
f,1.654,0,59,59,61,1,5ea8093530fe1e200917c979,RRRRORO,RRRRORR,21.81333602,21.17347734,series_0,5ea8093530fe1e200917c979,Mężczyzna,20,2021-09-06_19h23.07.654,rantool2,2021.1.4,Win32,60.04924038,6135e006383e6ea6c3d06a28,61364e58c9f13d16ed8a9f7c,,,,,,,,
f,1.7955,0,60,60,9,1,5ea8093530fe1e200917c979,OOROORO,OOROORR,21.07991943,22.2428857,series_1,5ea8093530fe1e200917c979,Mężczyzna,20,2021-09-06_19h23.07.654,rantool2,2021.1.4,Win32,60.04924038,6135e006383e6ea6c3d06a28,61364e58c9f13d16ed8a9f7c,,,,,,,,
f,1.7385,0,61,61,55,1,5ea8093530fe1e200917c979,RRORRRO,RRORRRR,21.56657303,21.21223021,series_0,5ea8093530fe1e200917c979,Mężczyzna,20,2021-09-06_19h23.07.654,rantool2,2021.1.4,Win32,60.04924038,6135e006383e6ea6c3d06a28,61364e58c9f13d16ed8a9f7c,,,,,,,,
j,1.8163,0,62,62,3,1,5ea8093530fe1e200917c979,OOOORRO,OOOORRR,20.90986523,21.74922619,series_1,5ea8093530fe1e200917c979,Mężczyzna,20,2021-09-06_19h23.07.654,rantool2,2021.1.4,Win32,60.04924038,6135e006383e6ea6c3d06a28,61364e58c9f13d16ed8a9f7c,,,,,,,,
f,1.502,0,63,63,53,1,5ea8093530fe1e200917c979,RRORORO,RRORORR,20.71309134,21.90565814,series_1,5ea8093530fe1e200917c979,Mężczyzna,20,2021-09-06_19h23.07.654,rantool2,2021.1.4,Win32,60.04924038,6135e006383e6ea6c3d06a28,61364e58c9f13d16ed8a9f7c,,,,,,,,
,,,,,,,5ea8093530fe1e200917c979,,,,,,5ea8093530fe1e200917c979,Mężczyzna,20,2021-09-06_19h23.07.654,rantool2,2021.1.4,Win32,60.04924038,6135e006383e6ea6c3d06a28,61364e58c9f13d16ed8a9f7c,"[""comma""]",0,[0.7061000001430386],0,0,0,0,1
,,,,,,,5ea8093530fe1e200917c979,,,,,,5ea8093530fe1e200917c979,Mężczyzna,20,2021-09-06_19h23.07.654,rantool2,2021.1.4,Win32,60.04924038,6135e006383e6ea6c3d06a28,61364e58c9f13d16ed8a9f7c,"[""period""]",0,[0.9842000000477071],1,0,1,0,1
,,,,,,,5ea8093530fe1e200917c979,,,,,,5ea8093530fe1e200917c979,Mężczyzna,20,2021-09-06_19h23.07.654,rantool2,2021.1.4,Win32,60.04924038,6135e006383e6ea6c3d06a28,61364e58c9f13d16ed8a9f7c,"[""comma""]",0,[0.29239999985694],2,0,2,0,1
,,,,,,,5ea8093530fe1e200917c979,,,,,,5ea8093530fe1e200917c979,Mężczyzna,20,2021-09-06_19h23.07.654,rantool2,2021.1.4,Win32,60.04924038,6135e006383e6ea6c3d06a28,61364e58c9f13d16ed8a9f7c,"[""period""]",0,[0.9047000000476828],3,0,3,0,1
,,,,,,,5ea8093530fe1e200917c979,,,,,,5ea8093530fe1e200917c979,Mężczyzna,20,2021-09-06_19h23.07.654,rantool2,2021.1.4,Win32,60.04924038,6135e006383e6ea6c3d06a28,61364e58c9f13d16ed8a9f7c,"[""comma""]",0,[0.9163999998569636],4,0,4,0,1
,,,,,,,5ea8093530fe1e200917c979,,,,,,5ea8093530fe1e200917c979,Mężczyzna,20,2021-09-06_19h23.07.654,rantool2,2021.1.4,Win32,60.04924038,6135e006383e6ea6c3d06a28,61364e58c9f13d16ed8a9f7c,"[""period""]",0,[0.46879999995232424],5,0,5,0,1
,,,,,,,5ea8093530fe1e200917c979,,,,,,5ea8093530fe1e200917c979,Mężczyzna,20,2021-09-06_19h23.07.654,rantool2,2021.1.4,Win32,60.04924038,6135e006383e6ea6c3d06a28,61364e58c9f13d16ed8a9f7c,"[""period""]",0,[0.3448000001907303],6,0,6,0,1
,,,,,,,5ea8093530fe1e200917c979,,,,,,5ea8093530fe1e200917c979,Mężczyzna,20,2021-09-06_19h23.07.654,rantool2,2021.1.4,Win32,60.04924038,6135e006383e6ea6c3d06a28,61364e58c9f13d16ed8a9f7c,"[""period""]",0,[0.5084000000953779],7,0,7,0,1
,,,,,,,5ea8093530fe1e200917c979,,,,,,5ea8093530fe1e200917c979,Mężczyzna,20,2021-09-06_19h23.07.654,rantool2,2021.1.4,Win32,60.04924038,6135e006383e6ea6c3d06a28,61364e58c9f13d16ed8a9f7c,"[""comma""]",0,[0.34149999999999636],8,0,8,0,1
,,,,,,,5ea8093530fe1e200917c979,,,,,,5ea8093530fe1e200917c979,Mężczyzna,20,2021-09-06_19h23.07.654,rantool2,2021.1.4,Win32,60.04924038,6135e006383e6ea6c3d06a28,61364e58c9f13d16ed8a9f7c,"[""period""]",0,[0.488700000047686],9,0,9,0,1
,,,,,,,5ea8093530fe1e200917c979,,,,,,5ea8093530fe1e200917c979,Mężczyzna,20,2021-09-06_19h23.07.654,rantool2,2021.1.4,Win32,60.04924038,6135e006383e6ea6c3d06a28,61364e58c9f13d16ed8a9f7c,"[""comma""]",0,[0.4763999998569659],10,0,10,0,1
,,,,,,,5ea8093530fe1e200917c979,,,,,,5ea8093530fe1e200917c979,Mężczyzna,20,2021-09-06_19h23.07.654,rantool2,2021.1.4,Win32,60.04924038,6135e006383e6ea6c3d06a28,61364e58c9f13d16ed8a9f7c,"[""comma""]",0,[0.29129999995231515],11,0,11,0,1
,,,,,,,5ea8093530fe1e200917c979,,,,,,5ea8093530fe1e200917c979,Mężczyzna,20,2021-09-06_19h23.07.654,rantool2,2021.1.4,Win32,60.04924038,6135e006383e6ea6c3d06a28,61364e58c9f13d16ed8a9f7c,"[""period""]",0,[0.26860000014306706],12,0,12,0,1
,,,,,,,5ea8093530fe1e200917c979,,,,,,5ea8093530fe1e200917c979,Mężczyzna,20,2021-09-06_19h23.07.654,rantool2,2021.1.4,Win32,60.04924038,6135e006383e6ea6c3d06a28,61364e58c9f13d16ed8a9f7c,"[""period""]",0,[0.245700000047691],13,0,13,0,1
,,,,,,,5ea8093530fe1e200917c979,,,,,,5ea8093530fe1e200917c979,Mężczyzna,20,2021-09-06_19h23.07.654,rantool2,2021.1.4,Win32,60.04924038,6135e006383e6ea6c3d06a28,61364e58c9f13d16ed8a9f7c,"[""period""]",0,[0.3785000000000025],14,0,14,0,1
,,,,,,,5ea8093530fe1e200917c979,,,,,,5ea8093530fe1e200917c979,Mężczyzna,20,2021-09-06_19h23.07.654,rantool2,2021.1.4,Win32,60.04924038,6135e006383e6ea6c3d06a28,61364e58c9f13d16ed8a9f7c,"[""comma""]",0,[0.300099999904603],15,0,15,0,1
,,,,,,,5ea8093530fe1e200917c979,,,,,,5ea8093530fe1e200917c979,Mężczyzna,20,2021-09-06_19h23.07.654,rantool2,2021.1.4,Win32,60.04924038,6135e006383e6ea6c3d06a28,61364e58c9f13d16ed8a9f7c,"[""period""]",0,[0.5409999999999968],16,0,16,0,1
,,,,,,,5ea8093530fe1e200917c979,,,,,,5ea8093530fe1e200917c979,Mężczyzna,20,2021-09-06_19h23.07.654,rantool2,2021.1.4,Win32,60.04924038,6135e006383e6ea6c3d06a28,61364e58c9f13d16ed8a9f7c,"[""comma""]",0,[0.27050000000002683],17,0,17,0,1
,,,,,,,5ea8093530fe1e200917c979,,,,,,5ea8093530fe1e200917c979,Mężczyzna,20,2021-09-06_19h23.07.654,rantool2,2021.1.4,Win32,60.04924038,6135e006383e6ea6c3d06a28,61364e58c9f13d16ed8a9f7c,"[""comma""]",0,[0.28329999995230537],18,0,18,0,1
,,,,,,,5ea8093530fe1e200917c979,,,,,,5ea8093530fe1e200917c979,Mężczyzna,20,2021-09-06_19h23.07.654,rantool2,2021.1.4,Win32,60.04924038,6135e006383e6ea6c3d06a28,61364e58c9f13d16ed8a9f7c,"[""period""]",0,[0.3208999998569766],19,0,19,0,1
,,,,,,,5ea8093530fe1e200917c979,,,,,,5ea8093530fe1e200917c979,Mężczyzna,20,2021-09-06_19h23.07.654,rantool2,2021.1.4,Win32,60.04924038,6135e006383e6ea6c3d06a28,61364e58c9f13d16ed8a9f7c,"[""comma""]",0,[0.24369999980928014],20,0,20,0,1
,,,,,,,5ea8093530fe1e200917c979,,,,,,5ea8093530fe1e200917c979,Mężczyzna,20,2021-09-06_19h23.07.654,rantool2,2021.1.4,Win32,60.04924038,6135e006383e6ea6c3d06a28,61364e58c9f13d16ed8a9f7c,"[""comma""]",0,[0.36159999990462666],21,0,21,0,1
,,,,,,,5ea8093530fe1e200917c979,,,,,,5ea8093530fe1e200917c979,Mężczyzna,20,2021-09-06_19h23.07.654,rantool2,2021.1.4,Win32,60.04924038,6135e006383e6ea6c3d06a28,61364e58c9f13d16ed8a9f7c,"[""comma""]",0,[0.3055999999046435],22,0,22,0,1
,,,,,,,5ea8093530fe1e200917c979,,,,,,5ea8093530fe1e200917c979,Mężczyzna,20,2021-09-06_19h23.07.654,rantool2,2021.1.4,Win32,60.04924038,6135e006383e6ea6c3d06a28,61364e58c9f13d16ed8a9f7c,"[""comma""]",0,[0.3526999998092606],23,0,23,0,1
,,,,,,,5ea8093530fe1e200917c979,,,,,,5ea8093530fe1e200917c979,Mężczyzna,20,2021-09-06_19h23.07.654,rantool2,2021.1.4,Win32,60.04924038,6135e006383e6ea6c3d06a28,61364e58c9f13d16ed8a9f7c,"[""period""]",0,[0.37899999999996226],24,0,24,0,1
,,,,,,,5ea8093530fe1e200917c979,,,,,,5ea8093530fe1e200917c979,Mężczyzna,20,2021-09-06_19h23.07.654,rantool2,2021.1.4,Win32,60.04924038,6135e006383e6ea6c3d06a28,61364e58c9f13d16ed8a9f7c,"[""comma""]",0,[0.26700000000005275],25,0,25,0,1
,,,,,,,5ea8093530fe1e200917c979,,,,,,5ea8093530fe1e200917c979,Mężczyzna,20,2021-09-06_19h23.07.654,rantool2,2021.1.4,Win32,60.04924038,6135e006383e6ea6c3d06a28,61364e58c9f13d16ed8a9f7c,"[""comma""]",0,[0.299000000000035],26,0,26,0,1
,,,,,,,5ea8093530fe1e200917c979,,,,,,5ea8093530fe1e200917c979,Mężczyzna,20,2021-09-06_19h23.07.654,rantool2,2021.1.4,Win32,60.04924038,6135e006383e6ea6c3d06a28,61364e58c9f13d16ed8a9f7c,"[""period""]",0,[0.46679999995228627],27,0,27,0,1
,,,,,,,5ea8093530fe1e200917c979,,,,,,5ea8093530fe1e200917c979,Mężczyzna,20,2021-09-06_19h23.07.654,rantool2,2021.1.4,Win32,60.04924038,6135e006383e6ea6c3d06a28,61364e58c9f13d16ed8a9f7c,"[""period""]",0,[0.47549999999995407],28,0,28,0,1
,,,,,,,5ea8093530fe1e200917c979,,,,,,5ea8093530fe1e200917c979,Mężczyzna,20,2021-09-06_19h23.07.654,rantool2,2021.1.4,Win32,60.04924038,6135e006383e6ea6c3d06a28,61364e58c9f13d16ed8a9f7c,"[""comma""]",0,[0.28949999999997544],29,0,29,0,1
,,,,,,,5ea8093530fe1e200917c979,,,,,,5ea8093530fe1e200917c979,Mężczyzna,20,2021-09-06_19h23.07.654,rantool2,2021.1.4,Win32,60.04924038,6135e006383e6ea6c3d06a28,61364e58c9f13d16ed8a9f7c,"[""period""]",0,[0.35420000004768326],30,0,30,0,1
,,,,,,,5ea8093530fe1e200917c979,,,,,,5ea8093530fe1e200917c979,Mężczyzna,20,2021-09-06_19h23.07.654,rantool2,2021.1.4,Win32,60.04924038,6135e006383e6ea6c3d06a28,61364e58c9f13d16ed8a9f7c,"[""period""]",0,[0.22870000004763824],31,0,31,0,1
,,,,,,,5ea8093530fe1e200917c979,,,,,,5ea8093530fe1e200917c979,Mężczyzna,20,2021-09-06_19h23.07.654,rantool2,2021.1.4,Win32,60.04924038,6135e006383e6ea6c3d06a28,61364e58c9f13d16ed8a9f7c,"[""comma""]",0,[0.22800000000000864],32,0,32,0,1
,,,,,,,5ea8093530fe1e200917c979,,,,,,5ea8093530fe1e200917c979,Mężczyzna,20,2021-09-06_19h23.07.654,rantool2,2021.1.4,Win32,60.04924038,6135e006383e6ea6c3d06a28,61364e58c9f13d16ed8a9f7c,"[""period""]",0,[0.5602000000476437],33,0,33,0,1
,,,,,,,5ea8093530fe1e200917c979,,,,,,5ea8093530fe1e200917c979,Mężczyzna,20,2021-09-06_19h23.07.654,rantool2,2021.1.4,Win32,60.04924038,6135e006383e6ea6c3d06a28,61364e58c9f13d16ed8a9f7c,"[""period""]",0,[0.5709000000953779],34,0,34,0,1
,,,,,,,5ea8093530fe1e200917c979,,,,,,5ea8093530fe1e200917c979,Mężczyzna,20,2021-09-06_19h23.07.654,rantool2,2021.1.4,Win32,60.04924038,6135e006383e6ea6c3d06a28,61364e58c9f13d16ed8a9f7c,"[""comma""]",0,[0.2512999999523231],35,0,35,0,1
,,,,,,,5ea8093530fe1e200917c979,,,,,,5ea8093530fe1e200917c979,Mężczyzna,20,2021-09-06_19h23.07.654,rantool2,2021.1.4,Win32,60.04924038,6135e006383e6ea6c3d06a28,61364e58c9f13d16ed8a9f7c,"[""comma""]",0,[0.2608999998569175],36,0,36,0,1
,,,,,,,5ea8093530fe1e200917c979,,,,,,5ea8093530fe1e200917c979,Mężczyzna,20,2021-09-06_19h23.07.654,rantool2,2021.1.4,Win32,60.04924038,6135e006383e6ea6c3d06a28,61364e58c9f13d16ed8a9f7c,"[""comma""]",0,[0.4712999999523504],37,0,37,0,1
,,,,,,,5ea8093530fe1e200917c979,,,,,,5ea8093530fe1e200917c979,Mężczyzna,20,2021-09-06_19h23.07.654,rantool2,2021.1.4,Win32,60.04924038,6135e006383e6ea6c3d06a28,61364e58c9f13d16ed8a9f7c,"[""comma""]",0,[0.3195999999046535],38,0,38,0,1
,,,,,,,5ea8093530fe1e200917c979,,,,,,5ea8093530fe1e200917c979,Mężczyzna,20,2021-09-06_19h23.07.654,rantool2,2021.1.4,Win32,60.04924038,6135e006383e6ea6c3d06a28,61364e58c9f13d16ed8a9f7c,"[""period""]",0,[0.28249999999997044],39,0,39,0,1
,,,,,,,5ea8093530fe1e200917c979,,,,,,5ea8093530fe1e200917c979,Mężczyzna,20,2021-09-06_19h23.07.654,rantool2,2021.1.4,Win32,60.04924038,6135e006383e6ea6c3d06a28,61364e58c9f13d16ed8a9f7c,"[""period""]",0,[0.5509999999999877],40,0,40,0,1
,,,,,,,5ea8093530fe1e200917c979,,,,,,5ea8093530fe1e200917c979,Mężczyzna,20,2021-09-06_19h23.07.654,rantool2,2021.1.4,Win32,60.04924038,6135e006383e6ea6c3d06a28,61364e58c9f13d16ed8a9f7c,"[""comma""]",0,[0.34979999995232447],41,0,41,0,1
,,,,,,,5ea8093530fe1e200917c979,,,,,,5ea8093530fe1e200917c979,Mężczyzna,20,2021-09-06_19h23.07.654,rantool2,2021.1.4,Win32,60.04924038,6135e006383e6ea6c3d06a28,61364e58c9f13d16ed8a9f7c,"[""period""]",0,[0.32479999995229036],42,0,42,0,1
,,,,,,,5ea8093530fe1e200917c979,,,,,,5ea8093530fe1e200917c979,Mężczyzna,20,2021-09-06_19h23.07.654,rantool2,2021.1.4,Win32,60.04924038,6135e006383e6ea6c3d06a28,61364e58c9f13d16ed8a9f7c,"[""period""]",0,[0.2692000000477037],43,0,43,0,1
,,,,,,,5ea8093530fe1e200917c979,,,,,,5ea8093530fe1e200917c979,Mężczyzna,20,2021-09-06_19h23.07.654,rantool2,2021.1.4,Win32,60.04924038,6135e006383e6ea6c3d06a28,61364e58c9f13d16ed8a9f7c,"[""period""]",0,[0.3177000000476937],44,0,44,0,1
,,,,,,,5ea8093530fe1e200917c979,,,,,,5ea8093530fe1e200917c979,Mężczyzna,20,2021-09-06_19h23.07.654,rantool2,2021.1.4,Win32,60.04924038,6135e006383e6ea6c3d06a28,61364e58c9f13d16ed8a9f7c,"[""period""]",0,[0.5863999998569511],45,0,45,0,1
,,,,,,,5ea8093530fe1e200917c979,,,,,,5ea8093530fe1e200917c979,Mężczyzna,20,2021-09-06_19h23.07.654,rantool2,2021.1.4,Win32,60.04924038,6135e006383e6ea6c3d06a28,61364e58c9f13d16ed8a9f7c,"[""comma""]",0,[0.3334000000953665],46,0,46,0,1
,,,,,,,5ea8093530fe1e200917c979,,,,,,5ea8093530fe1e200917c979,Mężczyzna,20,2021-09-06_19h23.07.654,rantool2,2021.1.4,Win32,60.04924038,6135e006383e6ea6c3d06a28,61364e58c9f13d16ed8a9f7c,"[""comma""]",0,[0.5515999999046244],47,0,47,0,1
,,,,,,,5ea8093530fe1e200917c979,,,,,,5ea8093530fe1e200917c979,Mężczyzna,20,2021-09-06_19h23.07.654,rantool2,2021.1.4,Win32,60.04924038,6135e006383e6ea6c3d06a28,61364e58c9f13d16ed8a9f7c,"[""comma""]",0,[0.6716000001430871],48,0,48,0,1
,,,,,,,5ea8093530fe1e200917c979,,,,,,5ea8093530fe1e200917c979,Mężczyzna,20,2021-09-06_19h23.07.654,rantool2,2021.1.4,Win32,60.04924038,6135e006383e6ea6c3d06a28,61364e58c9f13d16ed8a9f7c,"[""period""]",0,[0.49229999995230855],49,0,49,0,1
,,,,,,,5ea8093530fe1e200917c979,,,,,,5ea8093530fe1e200917c979,Mężczyzna,20,2021-09-06_19h23.07.654,rantool2,2021.1.4,Win32,60.04924038,6135e006383e6ea6c3d06a28,61364e58c9f13d16ed8a9f7c,"[""comma""]",0,[0.6003000001907708],50,0,50,0,1
,,,,,,,5ea8093530fe1e200917c979,,,,,,5ea8093530fe1e200917c979,Mężczyzna,20,2021-09-06_19h23.07.654,rantool2,2021.1.4,Win32,60.04924038,6135e006383e6ea6c3d06a28,61364e58c9f13d16ed8a9f7c,"[""comma""]",0,[0.5335000000000036],51,0,51,0,1
,,,,,,,5ea8093530fe1e200917c979,,,,,,5ea8093530fe1e200917c979,Mężczyzna,20,2021-09-06_19h23.07.654,rantool2,2021.1.4,Win32,60.04924038,6135e006383e6ea6c3d06a28,61364e58c9f13d16ed8a9f7c,"[""period""]",0,[0.3002000000476528],52,0,52,0,1
,,,,,,,5ea8093530fe1e200917c979,,,,,,5ea8093530fe1e200917c979,Mężczyzna,20,2021-09-06_19h23.07.654,rantool2,2021.1.4,Win32,60.04924038,6135e006383e6ea6c3d06a28,61364e58c9f13d16ed8a9f7c,"[""comma""]",0,[0.13559999990462757],53,0,53,0,1
,,,,,,,5ea8093530fe1e200917c979,,,,,,5ea8093530fe1e200917c979,Mężczyzna,20,2021-09-06_19h23.07.654,rantool2,2021.1.4,Win32,60.04924038,6135e006383e6ea6c3d06a28,61364e58c9f13d16ed8a9f7c,"[""period""]",0,[0.5455000000000041],54,0,54,0,1
,,,,,,,5ea8093530fe1e200917c979,,,,,,5ea8093530fe1e200917c979,Mężczyzna,20,2021-09-06_19h23.07.654,rantool2,2021.1.4,Win32,60.04924038,6135e006383e6ea6c3d06a28,61364e58c9f13d16ed8a9f7c,"[""period""]",0,[0.4909000000953938],55,0,55,0,1
,,,,,,,5ea8093530fe1e200917c979,,,,,,5ea8093530fe1e200917c979,Mężczyzna,20,2021-09-06_19h23.07.654,rantool2,2021.1.4,Win32,60.04924038,6135e006383e6ea6c3d06a28,61364e58c9f13d16ed8a9f7c,"[""comma""]",0,[0.6200000000000045],56,0,56,0,1
,,,,,,,5ea8093530fe1e200917c979,,,,,,5ea8093530fe1e200917c979,Mężczyzna,20,2021-09-06_19h23.07.654,rantool2,2021.1.4,Win32,60.04924038,6135e006383e6ea6c3d06a28,61364e58c9f13d16ed8a9f7c,"[""comma""]",0,[0.6160999999046339],57,0,57,0,1
,,,,,,,5ea8093530fe1e200917c979,,,,,,5ea8093530fe1e200917c979,Mężczyzna,20,2021-09-06_19h23.07.654,rantool2,2021.1.4,Win32,60.04924038,6135e006383e6ea6c3d06a28,61364e58c9f13d16ed8a9f7c,"[""period""]",0,[0.39320000004767053],58,0,58,0,1
,,,,,,,5ea8093530fe1e200917c979,,,,,,5ea8093530fe1e200917c979,Mężczyzna,20,2021-09-06_19h23.07.654,rantool2,2021.1.4,Win32,60.04924038,6135e006383e6ea6c3d06a28,61364e58c9f13d16ed8a9f7c,"[""period"",""period""]",0,"[0.1377000000476869,1.9346000001430639]",59,0,59,0,1
,,,,,,,5ea8093530fe1e200917c979,,,,,,5ea8093530fe1e200917c979,Mężczyzna,20,2021-09-06_19h23.07.654,rantool2,2021.1.4,Win32,60.04924038,6135e006383e6ea6c3d06a28,61364e58c9f13d16ed8a9f7c,"[""period""]",0,[0.6657000000476501],60,0,60,0,1
,,,,,,,5ea8093530fe1e200917c979,,,,,,5ea8093530fe1e200917c979,Mężczyzna,20,2021-09-06_19h23.07.654,rantool2,2021.1.4,Win32,60.04924038,6135e006383e6ea6c3d06a28,61364e58c9f13d16ed8a9f7c,"[""comma""]",0,[0.7022999999523449],61,0,61,0,1
,,,,,,,5ea8093530fe1e200917c979,,,,,,5ea8093530fe1e200917c979,Mężczyzna,20,2021-09-06_19h23.07.654,rantool2,2021.1.4,Win32,60.04924038,6135e006383e6ea6c3d06a28,61364e58c9f13d16ed8a9f7c,"[""period""]",0,[0.5051000001430452],62,0,62,0,1
,,,,,,,5ea8093530fe1e200917c979,,,,,,5ea8093530fe1e200917c979,Mężczyzna,20,2021-09-06_19h23.07.654,rantool2,2021.1.4,Win32,60.04924038,6135e006383e6ea6c3d06a28,61364e58c9f13d16ed8a9f7c,"[""comma""]",0,[1.922200000047667],63,0,63,0,1
,,,,,,,5ea8093530fe1e200917c979,,,,,,5ea8093530fe1e200917c979,Mężczyzna,20,2021-09-06_19h23.07.654,rantool2,2021.1.4,Win32,60.04924038,6135e006383e6ea6c3d06a28,61364e58c9f13d16ed8a9f7c,"[""comma""]",0,[0.8014000000953843],64,0,64,0,1
,,,,,,,5ea8093530fe1e200917c979,,,,,,5ea8093530fe1e200917c979,Mężczyzna,20,2021-09-06_19h23.07.654,rantool2,2021.1.4,Win32,60.04924038,6135e006383e6ea6c3d06a28,61364e58c9f13d16ed8a9f7c,"[""period""]",0,[0.5497999999523131],65,0,65,0,1
,,,,,,,5ea8093530fe1e200917c979,,,,,,5ea8093530fe1e200917c979,Mężczyzna,20,2021-09-06_19h23.07.654,rantool2,2021.1.4,Win32,60.04924038,6135e006383e6ea6c3d06a28,61364e58c9f13d16ed8a9f7c,"[""comma""]",0,[0.5402999999523104],66,0,66,0,1
,,,,,,,5ea8093530fe1e200917c979,,,,,,5ea8093530fe1e200917c979,Mężczyzna,20,2021-09-06_19h23.07.654,rantool2,2021.1.4,Win32,60.04924038,6135e006383e6ea6c3d06a28,61364e58c9f13d16ed8a9f7c,"[""period""]",0,[0.43940000009536107],67,0,67,0,1
,,,,,,,5ea8093530fe1e200917c979,,,,,,5ea8093530fe1e200917c979,Mężczyzna,20,2021-09-06_19h23.07.654,rantool2,2021.1.4,Win32,60.04924038,6135e006383e6ea6c3d06a28,61364e58c9f13d16ed8a9f7c,"[""comma""]",0,[0.8427999999523195],68,0,68,0,1
,,,,,,,5ea8093530fe1e200917c979,,,,,,5ea8093530fe1e200917c979,Mężczyzna,20,2021-09-06_19h23.07.654,rantool2,2021.1.4,Win32,60.04924038,6135e006383e6ea6c3d06a28,61364e58c9f13d16ed8a9f7c,"[""period""]",0,[0.2891999998092274],69,0,69,0,1
,,,,,,,5ea8093530fe1e200917c979,,,,,,5ea8093530fe1e200917c979,Mężczyzna,20,2021-09-06_19h23.07.654,rantool2,2021.1.4,Win32,60.04924038,6135e006383e6ea6c3d06a28,61364e58c9f13d16ed8a9f7c,"[""comma""]",0,[0.25409999990461074],70,0,70,0,1
,,,,,,,5ea8093530fe1e200917c979,,,,,,5ea8093530fe1e200917c979,Mężczyzna,20,2021-09-06_19h23.07.654,rantool2,2021.1.4,Win32,60.04924038,6135e006383e6ea6c3d06a28,61364e58c9f13d16ed8a9f7c,"[""comma""]",0,[0.23490000009536516],71,0,71,0,1
,,,,,,,5ea8093530fe1e200917c979,,,,,,5ea8093530fe1e200917c979,Mężczyzna,20,2021-09-06_19h23.07.654,rantool2,2021.1.4,Win32,60.04924038,6135e006383e6ea6c3d06a28,61364e58c9f13d16ed8a9f7c,"[""comma""]",0,[0.45340000009537107],72,0,72,0,1
,,,,,,,5ea8093530fe1e200917c979,,,,,,5ea8093530fe1e200917c979,Mężczyzna,20,2021-09-06_19h23.07.654,rantool2,2021.1.4,Win32,60.04924038,6135e006383e6ea6c3d06a28,61364e58c9f13d16ed8a9f7c,"[""period""]",0,[0.4732999999523031],73,0,73,0,1
,,,,,,,5ea8093530fe1e200917c979,,,,,,5ea8093530fe1e200917c979,Mężczyzna,20,2021-09-06_19h23.07.654,rantool2,2021.1.4,Win32,60.04924038,6135e006383e6ea6c3d06a28,61364e58c9f13d16ed8a9f7c,"[""period""]",0,[0.3509000000953506],74,0,74,0,1
,,,,,,,5ea8093530fe1e200917c979,,,,,,5ea8093530fe1e200917c979,Mężczyzna,20,2021-09-06_19h23.07.654,rantool2,2021.1.4,Win32,60.04924038,6135e006383e6ea6c3d06a28,61364e58c9f13d16ed8a9f7c,"[""period""]",0,[0.5873999998569843],75,0,75,0,1
,,,,,,,5ea8093530fe1e200917c979,,,,,,5ea8093530fe1e200917c979,Mężczyzna,20,2021-09-06_19h23.07.654,rantool2,2021.1.4,Win32,60.04924038,6135e006383e6ea6c3d06a28,61364e58c9f13d16ed8a9f7c,"[""period""]",0,[0.5372999999523245],76,0,76,0,1
,,,,,,,5ea8093530fe1e200917c979,,,,,,5ea8093530fe1e200917c979,Mężczyzna,20,2021-09-06_19h23.07.654,rantool2,2021.1.4,Win32,60.04924038,6135e006383e6ea6c3d06a28,61364e58c9f13d16ed8a9f7c,"[""comma""]",0,[0.2755999999046139],77,0,77,0,1
,,,,,,,5ea8093530fe1e200917c979,,,,,,5ea8093530fe1e200917c979,Mężczyzna,20,2021-09-06_19h23.07.654,rantool2,2021.1.4,Win32,60.04924038,6135e006383e6ea6c3d06a28,61364e58c9f13d16ed8a9f7c,"[""period""]",0,[0.30509999990459846],78,0,78,0,1
,,,,,,,5ea8093530fe1e200917c979,,,,,,5ea8093530fe1e200917c979,Mężczyzna,20,2021-09-06_19h23.07.654,rantool2,2021.1.4,Win32,60.04924038,6135e006383e6ea6c3d06a28,61364e58c9f13d16ed8a9f7c,"[""comma""]",0,[0.29050000000000864],79,0,79,0,1
,,,,,,,5ea8093530fe1e200917c979,,,,,,5ea8093530fe1e200917c979,Mężczyzna,20,2021-09-06_19h23.07.654,rantool2,2021.1.4,Win32,60.04924038,6135e006383e6ea6c3d06a28,61364e58c9f13d16ed8a9f7c,"[""comma""]",0,[0.28220000004768053],80,0,80,0,1
,,,,,,,5ea8093530fe1e200917c979,,,,,,5ea8093530fe1e200917c979,Mężczyzna,20,2021-09-06_19h23.07.654,rantool2,2021.1.4,Win32,60.04924038,6135e006383e6ea6c3d06a28,61364e58c9f13d16ed8a9f7c,"[""period""]",0,[0.2834999999999468],81,0,81,0,1
,,,,,,,5ea8093530fe1e200917c979,,,,,,5ea8093530fe1e200917c979,Mężczyzna,20,2021-09-06_19h23.07.654,rantool2,2021.1.4,Win32,60.04924038,6135e006383e6ea6c3d06a28,61364e58c9f13d16ed8a9f7c,"[""comma""]",0,[0.18299999999999272],82,0,82,0,1
,,,,,,,5ea8093530fe1e200917c979,,,,,,5ea8093530fe1e200917c979,Mężczyzna,20,2021-09-06_19h23.07.654,rantool2,2021.1.4,Win32,60.04924038,6135e006383e6ea6c3d06a28,61364e58c9f13d16ed8a9f7c,"[""comma""]",0,[0.42799999999999727],83,0,83,0,1
,,,,,,,5ea8093530fe1e200917c979,,,,,,5ea8093530fe1e200917c979,Mężczyzna,20,2021-09-06_19h23.07.654,rantool2,2021.1.4,Win32,60.04924038,6135e006383e6ea6c3d06a28,61364e58c9f13d16ed8a9f7c,"[""period""]",0,[0.25940000009535424],84,0,84,0,1
,,,,,,,5ea8093530fe1e200917c979,,,,,,5ea8093530fe1e200917c979,Mężczyzna,20,2021-09-06_19h23.07.654,rantool2,2021.1.4,Win32,60.04924038,6135e006383e6ea6c3d06a28,61364e58c9f13d16ed8a9f7c,"[""comma""]",0,[0.2671999998092929],85,0,85,0,1
,,,,,,,5ea8093530fe1e200917c979,,,,,,5ea8093530fe1e200917c979,Mężczyzna,20,2021-09-06_19h23.07.654,rantool2,2021.1.4,Win32,60.04924038,6135e006383e6ea6c3d06a28,61364e58c9f13d16ed8a9f7c,"[""period""]",0,[0.3089999999999691],86,0,86,0,1
,,,,,,,5ea8093530fe1e200917c979,,,,,,5ea8093530fe1e200917c979,Mężczyzna,20,2021-09-06_19h23.07.654,rantool2,2021.1.4,Win32,60.04924038,6135e006383e6ea6c3d06a28,61364e58c9f13d16ed8a9f7c,"[""period""]",0,[0.2529999999999859],87,0,87,0,1
,,,,,,,5ea8093530fe1e200917c979,,,,,,5ea8093530fe1e200917c979,Mężczyzna,20,2021-09-06_19h23.07.654,rantool2,2021.1.4,Win32,60.04924038,6135e006383e6ea6c3d06a28,61364e58c9f13d16ed8a9f7c,"[""period""]",0,[0.3085999999046294],88,0,88,0,1
,,,,,,,5ea8093530fe1e200917c979,,,,,,5ea8093530fe1e200917c979,Mężczyzna,20,2021-09-06_19h23.07.654,rantool2,2021.1.4,Win32,60.04924038,6135e006383e6ea6c3d06a28,61364e58c9f13d16ed8a9f7c,"[""comma""]",0,[0.41120000004769963],89,0,89,0,1
,,,,,,,5ea8093530fe1e200917c979,,,,,,5ea8093530fe1e200917c979,Mężczyzna,20,2021-09-06_19h23.07.654,rantool2,2021.1.4,Win32,60.04924038,6135e006383e6ea6c3d06a28,61364e58c9f13d16ed8a9f7c,"[""period""]",0,[0.5935000000000059],90,0,90,0,1
,,,,,,,5ea8093530fe1e200917c979,,,,,,5ea8093530fe1e200917c979,Mężczyzna,20,2021-09-06_19h23.07.654,rantool2,2021.1.4,Win32,60.04924038,6135e006383e6ea6c3d06a28,61364e58c9f13d16ed8a9f7c,"[""period""]",0,[0.2945999999046762],91,0,91,0,1
,,,,,,,5ea8093530fe1e200917c979,,,,,,5ea8093530fe1e200917c979,Mężczyzna,20,2021-09-06_19h23.07.654,rantool2,2021.1.4,Win32,60.04924038,6135e006383e6ea6c3d06a28,61364e58c9f13d16ed8a9f7c,"[""comma""]",0,[0.2670999999046444],92,0,92,0,1
,,,,,,,5ea8093530fe1e200917c979,,,,,,5ea8093530fe1e200917c979,Mężczyzna,20,2021-09-06_19h23.07.654,rantool2,2021.1.4,Win32,60.04924038,6135e006383e6ea6c3d06a28,61364e58c9f13d16ed8a9f7c,"[""comma""]",0,[0.3907999999523213],93,0,93,0,1
,,,,,,,5ea8093530fe1e200917c979,,,,,,5ea8093530fe1e200917c979,Mężczyzna,20,2021-09-06_19h23.07.654,rantool2,2021.1.4,Win32,60.04924038,6135e006383e6ea6c3d06a28,61364e58c9f13d16ed8a9f7c,"[""comma""]",0,[0.5489999999999782],94,0,94,0,1
,,,,,,,5ea8093530fe1e200917c979,,,,,,5ea8093530fe1e200917c979,Mężczyzna,20,2021-09-06_19h23.07.654,rantool2,2021.1.4,Win32,60.04924038,6135e006383e6ea6c3d06a28,61364e58c9f13d16ed8a9f7c,"[""comma""]",0,[0.34420000004769236],95,0,95,0,1
,,,,,,,5ea8093530fe1e200917c979,,,,,,5ea8093530fe1e200917c979,Mężczyzna,20,2021-09-06_19h23.07.654,rantool2,2021.1.4,Win32,60.04924038,6135e006383e6ea6c3d06a28,61364e58c9f13d16ed8a9f7c,"[""period""]",0,[0.2657999999523213],96,0,96,0,1
,,,,,,,5ea8093530fe1e200917c979,,,,,,5ea8093530fe1e200917c979,Mężczyzna,20,2021-09-06_19h23.07.654,rantool2,2021.1.4,Win32,60.04924038,6135e006383e6ea6c3d06a28,61364e58c9f13d16ed8a9f7c,"[""comma""]",0,[0.30020000004770964],97,0,97,0,1
,,,,,,,5ea8093530fe1e200917c979,,,,,,5ea8093530fe1e200917c979,Mężczyzna,20,2021-09-06_19h23.07.654,rantool2,2021.1.4,Win32,60.04924038,6135e006383e6ea6c3d06a28,61364e58c9f13d16ed8a9f7c,"[""comma""]",0,[0.3746000001430616],98,0,98,0,1
,,,,,,,5ea8093530fe1e200917c979,,,,,,5ea8093530fe1e200917c979,Mężczyzna,20,2021-09-06_19h23.07.654,rantool2,2021.1.4,Win32,60.04924038,6135e006383e6ea6c3d06a28,61364e58c9f13d16ed8a9f7c,"[""comma""]",0,[0.3563999998569898],99,0,99,0,1
,,,,,,,5ea8093530fe1e200917c979,,,,,,5ea8093530fe1e200917c979,Mężczyzna,20,2021-09-06_19h23.07.654,rantool2,2021.1.4,Win32,60.04924038,6135e006383e6ea6c3d06a28,61364e58c9f13d16ed8a9f7c,"[""period""]",0,[0.32760000014303614],100,0,100,0,1
,,,,,,,5ea8093530fe1e200917c979,,,,,,5ea8093530fe1e200917c979,Mężczyzna,20,2021-09-06_19h23.07.654,rantool2,2021.1.4,Win32,60.04924038,6135e006383e6ea6c3d06a28,61364e58c9f13d16ed8a9f7c,"[""period""]",0,[0.2876000001430157],101,0,101,0,1
,,,,,,,5ea8093530fe1e200917c979,,,,,,5ea8093530fe1e200917c979,Mężczyzna,20,2021-09-06_19h23.07.654,rantool2,2021.1.4,Win32,60.04924038,6135e006383e6ea6c3d06a28,61364e58c9f13d16ed8a9f7c,"[""comma""]",0,[0.28880000019074714],102,0,102,0,1
,,,,,,,5ea8093530fe1e200917c979,,,,,,5ea8093530fe1e200917c979,Mężczyzna,20,2021-09-06_19h23.07.654,rantool2,2021.1.4,Win32,60.04924038,6135e006383e6ea6c3d06a28,61364e58c9f13d16ed8a9f7c,"[""period""]",0,[0.1868000001907717],103,0,103,0,1
,,,,,,,5ea8093530fe1e200917c979,,,,,,5ea8093530fe1e200917c979,Mężczyzna,20,2021-09-06_19h23.07.654,rantool2,2021.1.4,Win32,60.04924038,6135e006383e6ea6c3d06a28,61364e58c9f13d16ed8a9f7c,"[""comma""]",0,[0.26239999985693885],104,0,104,0,1
,,,,,,,5ea8093530fe1e200917c979,,,,,,5ea8093530fe1e200917c979,Mężczyzna,20,2021-09-06_19h23.07.654,rantool2,2021.1.4,Win32,60.04924038,6135e006383e6ea6c3d06a28,61364e58c9f13d16ed8a9f7c,"[""period""]",0,[0.26690000009540427],105,0,105,0,1
,,,,,,,5ea8093530fe1e200917c979,,,,,,5ea8093530fe1e200917c979,Mężczyzna,20,2021-09-06_19h23.07.654,rantool2,2021.1.4,Win32,60.04924038,6135e006383e6ea6c3d06a28,61364e58c9f13d16ed8a9f7c,"[""period""]",0,[0.30020000004770964],106,0,106,0,1
,,,,,,,5ea8093530fe1e200917c979,,,,,,5ea8093530fe1e200917c979,Mężczyzna,20,2021-09-06_19h23.07.654,rantool2,2021.1.4,Win32,60.04924038,6135e006383e6ea6c3d06a28,61364e58c9f13d16ed8a9f7c,"[""period""]",0,[0.35430000019073304],107,0,107,0,1
,,,,,,,5ea8093530fe1e200917c979,,,,,,5ea8093530fe1e200917c979,Mężczyzna,20,2021-09-06_19h23.07.654,rantool2,2021.1.4,Win32,60.04924038,6135e006383e6ea6c3d06a28,61364e58c9f13d16ed8a9f7c,"[""comma""]",0,[0.5172000000476373],108,0,108,0,1
,,,,,,,5ea8093530fe1e200917c979,,,,,,5ea8093530fe1e200917c979,Mężczyzna,20,2021-09-06_19h23.07.654,rantool2,2021.1.4,Win32,60.04924038,6135e006383e6ea6c3d06a28,61364e58c9f13d16ed8a9f7c,"[""period""]",0,[0.43259999990465303],109,0,109,0,1
,,,,,,,5ea8093530fe1e200917c979,,,,,,5ea8093530fe1e200917c979,Mężczyzna,20,2021-09-06_19h23.07.654,rantool2,2021.1.4,Win32,60.04924038,6135e006383e6ea6c3d06a28,61364e58c9f13d16ed8a9f7c,"[""comma""]",0,[0.31659999990461074],110,0,110,0,1
,,,,,,,5ea8093530fe1e200917c979,,,,,,5ea8093530fe1e200917c979,Mężczyzna,20,2021-09-06_19h23.07.654,rantool2,2021.1.4,Win32,60.04924038,6135e006383e6ea6c3d06a28,61364e58c9f13d16ed8a9f7c,"[""comma""]",0,[0.34029999995232174],111,0,111,0,1
,,,,,,,5ea8093530fe1e200917c979,,,,,,5ea8093530fe1e200917c979,Mężczyzna,20,2021-09-06_19h23.07.654,rantool2,2021.1.4,Win32,60.04924038,6135e006383e6ea6c3d06a28,61364e58c9f13d16ed8a9f7c,"[""period""]",0,[0.3878000001907367],112,0,112,0,1
,,,,,,,5ea8093530fe1e200917c979,,,,,,5ea8093530fe1e200917c979,Mężczyzna,20,2021-09-06_19h23.07.654,rantool2,2021.1.4,Win32,60.04924038,6135e006383e6ea6c3d06a28,61364e58c9f13d16ed8a9f7c,"[""comma""]",0,[0.5249999999999773],113,0,113,0,1
,,,,,,,5ea8093530fe1e200917c979,,,,,,5ea8093530fe1e200917c979,Mężczyzna,20,2021-09-06_19h23.07.654,rantool2,2021.1.4,Win32,60.04924038,6135e006383e6ea6c3d06a28,61364e58c9f13d16ed8a9f7c,"[""period""]",0,[0.6342000000477128],114,0,114,0,1
,,,,,,,5ea8093530fe1e200917c979,,,,,,5ea8093530fe1e200917c979,Mężczyzna,20,2021-09-06_19h23.07.654,rantool2,2021.1.4,Win32,60.04924038,6135e006383e6ea6c3d06a28,61364e58c9f13d16ed8a9f7c,"[""comma""]",0,[0.46710000014309117],115,0,115,0,1
,,,,,,,5ea8093530fe1e200917c979,,,,,,5ea8093530fe1e200917c979,Mężczyzna,20,2021-09-06_19h23.07.654,rantool2,2021.1.4,Win32,60.04924038,6135e006383e6ea6c3d06a28,61364e58c9f13d16ed8a9f7c,"[""comma""]",0,[0.23929999995232265],116,0,116,0,1
,,,,,,,5ea8093530fe1e200917c979,,,,,,5ea8093530fe1e200917c979,Mężczyzna,20,2021-09-06_19h23.07.654,rantool2,2021.1.4,Win32,60.04924038,6135e006383e6ea6c3d06a28,61364e58c9f13d16ed8a9f7c,"[""period""]",0,[0.09329999995236449],117,0,117,0,1
,,,,,,,5ea8093530fe1e200917c979,,,,,,5ea8093530fe1e200917c979,Mężczyzna,20,2021-09-06_19h23.07.654,rantool2,2021.1.4,Win32,60.04924038,6135e006383e6ea6c3d06a28,61364e58c9f13d16ed8a9f7c,"[""period""]",0,[0.2735999999046612],118,0,118,0,1
,,,,,,,5ea8093530fe1e200917c979,,,,,,5ea8093530fe1e200917c979,Mężczyzna,20,2021-09-06_19h23.07.654,rantool2,2021.1.4,Win32,60.04924038,6135e006383e6ea6c3d06a28,61364e58c9f13d16ed8a9f7c,"[""period""]",0,[0.425099999904603],119,0,119,0,1
