key_resp_7.keys,key_resp_7.rt,trials_2.thisRepN,trials_2.thisTrialN,trials_2.thisN,trials_2.thisIndex,trials_2.ran,id,series_0,series_1,acss_0,acss_1,comparison,id*,Płeć*,Wiek*,date,expName,psychopyVersion,OS,frameRate,STUDY_ID,SESSION_ID,key_resp_5.keys,key_resp_5.corr,key_resp_5.rt,trials.thisRepN,trials.thisTrialN,trials.thisN,trials.thisIndex,trials.ran
j,2.2774,0,0,0,44,1,5f3663dd7dda2100096d4a81,RORROOO,RORROOR,21.66733484,22.02566557,series_1,5f3663dd7dda2100096d4a81,Mężczyzna,19,2021-09-06_18h50.00.878,rantool2,2021.1.4,MacIntel,59.99880002,6135e006383e6ea6c3d06a28,6136468867f6daee16fa44aa,,,,,,,,
j,2.6557,0,1,1,52,1,5f3663dd7dda2100096d4a81,RROROOO,RROROOR,22.18365867,22.11097995,series_0,5f3663dd7dda2100096d4a81,Mężczyzna,19,2021-09-06_18h50.00.878,rantool2,2021.1.4,MacIntel,59.99880002,6135e006383e6ea6c3d06a28,6136468867f6daee16fa44aa,,,,,,,,
f,2.3198,0,2,2,28,1,5f3663dd7dda2100096d4a81,ORRROOO,ORRROOR,22.24142883,22.53364006,series_1,5f3663dd7dda2100096d4a81,Mężczyzna,19,2021-09-06_18h50.00.878,rantool2,2021.1.4,MacIntel,59.99880002,6135e006383e6ea6c3d06a28,6136468867f6daee16fa44aa,,,,,,,,
f,2.4747,0,3,3,42,1,5f3663dd7dda2100096d4a81,ROROROO,ROROROR,20.39515459,19.8361834,series_0,5f3663dd7dda2100096d4a81,Mężczyzna,19,2021-09-06_18h50.00.878,rantool2,2021.1.4,MacIntel,59.99880002,6135e006383e6ea6c3d06a28,6136468867f6daee16fa44aa,,,,,,,,
j,1.7688,0,4,4,37,1,5f3663dd7dda2100096d4a81,ROORORO,ROORORR,20.42602454,21.57657071,series_1,5f3663dd7dda2100096d4a81,Mężczyzna,19,2021-09-06_18h50.00.878,rantool2,2021.1.4,MacIntel,59.99880002,6135e006383e6ea6c3d06a28,6136468867f6daee16fa44aa,,,,,,,,
j,2.4024,0,5,5,36,1,5f3663dd7dda2100096d4a81,ROOROOO,ROOROOR,21.07991943,20.9984461,series_0,5f3663dd7dda2100096d4a81,Mężczyzna,19,2021-09-06_18h50.00.878,rantool2,2021.1.4,MacIntel,59.99880002,6135e006383e6ea6c3d06a28,6136468867f6daee16fa44aa,,,,,,,,
j,1.6162,0,6,6,38,1,5f3663dd7dda2100096d4a81,ROORROO,ROORROR,21.79500819,21.36812781,series_0,5f3663dd7dda2100096d4a81,Mężczyzna,19,2021-09-06_18h50.00.878,rantool2,2021.1.4,MacIntel,59.99880002,6135e006383e6ea6c3d06a28,6136468867f6daee16fa44aa,,,,,,,,
f,1.7495,0,7,7,43,1,5f3663dd7dda2100096d4a81,RORORRO,RORORRR,20.71309134,21.07490964,series_1,5f3663dd7dda2100096d4a81,Mężczyzna,19,2021-09-06_18h50.00.878,rantool2,2021.1.4,MacIntel,59.99880002,6135e006383e6ea6c3d06a28,6136468867f6daee16fa44aa,,,,,,,,
j,1.8197,0,8,8,12,1,5f3663dd7dda2100096d4a81,OORROOO,OORROOR,21.30250474,22.02786418,series_1,5f3663dd7dda2100096d4a81,Mężczyzna,19,2021-09-06_18h50.00.878,rantool2,2021.1.4,MacIntel,59.99880002,6135e006383e6ea6c3d06a28,6136468867f6daee16fa44aa,,,,,,,,
f,2.6032,0,9,9,20,1,5f3663dd7dda2100096d4a81,OROROOO,OROROOR,21.31236711,21.90565814,series_1,5f3663dd7dda2100096d4a81,Mężczyzna,19,2021-09-06_18h50.00.878,rantool2,2021.1.4,MacIntel,59.99880002,6135e006383e6ea6c3d06a28,6136468867f6daee16fa44aa,,,,,,,,
j,2.4186,0,10,10,23,1,5f3663dd7dda2100096d4a81,ORORRRO,ORORRRR,22.1285618,21.9921709,series_0,5f3663dd7dda2100096d4a81,Mężczyzna,19,2021-09-06_18h50.00.878,rantool2,2021.1.4,MacIntel,59.99880002,6135e006383e6ea6c3d06a28,6136468867f6daee16fa44aa,,,,,,,,
f,2.8904,0,11,11,0,1,5f3663dd7dda2100096d4a81,OOOOOOO,OOOOOOR,18.52739004,19.62521613,series_1,5f3663dd7dda2100096d4a81,Mężczyzna,19,2021-09-06_18h50.00.878,rantool2,2021.1.4,MacIntel,59.99880002,6135e006383e6ea6c3d06a28,6136468867f6daee16fa44aa,,,,,,,,
f,2.8208,0,12,12,58,1,5f3663dd7dda2100096d4a81,RRROROO,RRROROR,22.1285618,21.37121559,series_0,5f3663dd7dda2100096d4a81,Mężczyzna,19,2021-09-06_18h50.00.878,rantool2,2021.1.4,MacIntel,59.99880002,6135e006383e6ea6c3d06a28,6136468867f6daee16fa44aa,,,,,,,,
j,2.2685,0,13,13,31,1,5f3663dd7dda2100096d4a81,ORRRRRO,ORRRRRR,22.16413392,20.74050628,series_0,5f3663dd7dda2100096d4a81,Mężczyzna,19,2021-09-06_18h50.00.878,rantool2,2021.1.4,MacIntel,59.99880002,6135e006383e6ea6c3d06a28,6136468867f6daee16fa44aa,,,,,,,,
j,2.5267,0,14,14,5,1,5f3663dd7dda2100096d4a81,OOORORO,OOORORR,20.87963819,21.9921709,series_1,5f3663dd7dda2100096d4a81,Mężczyzna,19,2021-09-06_18h50.00.878,rantool2,2021.1.4,MacIntel,59.99880002,6135e006383e6ea6c3d06a28,6136468867f6daee16fa44aa,,,,,,,,
j,2.5004,0,15,15,61,1,5f3663dd7dda2100096d4a81,RRRRORO,RRRRORR,21.81333602,21.17347734,series_0,5f3663dd7dda2100096d4a81,Mężczyzna,19,2021-09-06_18h50.00.878,rantool2,2021.1.4,MacIntel,59.99880002,6135e006383e6ea6c3d06a28,6136468867f6daee16fa44aa,,,,,,,,
f,3.1508,0,16,16,3,1,5f3663dd7dda2100096d4a81,OOOORRO,OOOORRR,20.90986523,21.74922619,series_1,5f3663dd7dda2100096d4a81,Mężczyzna,19,2021-09-06_18h50.00.878,rantool2,2021.1.4,MacIntel,59.99880002,6135e006383e6ea6c3d06a28,6136468867f6daee16fa44aa,,,,,,,,
f,2.5142,0,17,17,60,1,5f3663dd7dda2100096d4a81,RRRROOO,RRRROOR,22.10108823,22.15934078,series_1,5f3663dd7dda2100096d4a81,Mężczyzna,19,2021-09-06_18h50.00.878,rantool2,2021.1.4,MacIntel,59.99880002,6135e006383e6ea6c3d06a28,6136468867f6daee16fa44aa,,,,,,,,
j,1.0416,0,18,18,19,1,5f3663dd7dda2100096d4a81,OROORRO,OROORRR,21.73568164,22.11181017,series_1,5f3663dd7dda2100096d4a81,Mężczyzna,19,2021-09-06_18h50.00.878,rantool2,2021.1.4,MacIntel,59.99880002,6135e006383e6ea6c3d06a28,6136468867f6daee16fa44aa,,,,,,,,
f,1.0518,0,19,19,50,1,5f3663dd7dda2100096d4a81,RROOROO,RROOROR,21.73568164,22.02566557,series_1,5f3663dd7dda2100096d4a81,Mężczyzna,19,2021-09-06_18h50.00.878,rantool2,2021.1.4,MacIntel,59.99880002,6135e006383e6ea6c3d06a28,6136468867f6daee16fa44aa,,,,,,,,
f,1.2684,0,20,20,9,1,5f3663dd7dda2100096d4a81,OOROORO,OOROORR,21.07991943,22.2428857,series_1,5f3663dd7dda2100096d4a81,Mężczyzna,19,2021-09-06_18h50.00.878,rantool2,2021.1.4,MacIntel,59.99880002,6135e006383e6ea6c3d06a28,6136468867f6daee16fa44aa,,,,,,,,
f,1.5999,0,21,21,46,1,5f3663dd7dda2100096d4a81,RORRROO,RORRROR,22.00300695,21.24781509,series_0,5f3663dd7dda2100096d4a81,Mężczyzna,19,2021-09-06_18h50.00.878,rantool2,2021.1.4,MacIntel,59.99880002,6135e006383e6ea6c3d06a28,6136468867f6daee16fa44aa,,,,,,,,
j,1.4694,0,22,22,4,1,5f3663dd7dda2100096d4a81,OOOROOO,OOOROOR,19.91402015,21.21223021,series_1,5f3663dd7dda2100096d4a81,Mężczyzna,19,2021-09-06_18h50.00.878,rantool2,2021.1.4,MacIntel,59.99880002,6135e006383e6ea6c3d06a28,6136468867f6daee16fa44aa,,,,,,,,
j,2.0553,0,23,23,41,1,5f3663dd7dda2100096d4a81,ROROORO,ROROORR,20.42602454,21.71443381,series_1,5f3663dd7dda2100096d4a81,Mężczyzna,19,2021-09-06_18h50.00.878,rantool2,2021.1.4,MacIntel,59.99880002,6135e006383e6ea6c3d06a28,6136468867f6daee16fa44aa,,,,,,,,
j,2.3035,0,24,24,15,1,5f3663dd7dda2100096d4a81,OORRRRO,OORRRRR,22.10108823,21.74922619,series_0,5f3663dd7dda2100096d4a81,Mężczyzna,19,2021-09-06_18h50.00.878,rantool2,2021.1.4,MacIntel,59.99880002,6135e006383e6ea6c3d06a28,6136468867f6daee16fa44aa,,,,,,,,
f,1.8075,0,25,25,8,1,5f3663dd7dda2100096d4a81,OOROOOO,OOROOOR,19.91402015,20.89823192,series_1,5f3663dd7dda2100096d4a81,Mężczyzna,19,2021-09-06_18h50.00.878,rantool2,2021.1.4,MacIntel,59.99880002,6135e006383e6ea6c3d06a28,6136468867f6daee16fa44aa,,,,,,,,
j,1.4406,0,26,26,49,1,5f3663dd7dda2100096d4a81,RROOORO,RROOORR,21.76276513,22.53364006,series_1,5f3663dd7dda2100096d4a81,Mężczyzna,19,2021-09-06_18h50.00.878,rantool2,2021.1.4,MacIntel,59.99880002,6135e006383e6ea6c3d06a28,6136468867f6daee16fa44aa,,,,,,,,
j,0.9881,0,27,27,53,1,5f3663dd7dda2100096d4a81,RRORORO,RRORORR,20.71309134,21.90565814,series_1,5f3663dd7dda2100096d4a81,Mężczyzna,19,2021-09-06_18h50.00.878,rantool2,2021.1.4,MacIntel,59.99880002,6135e006383e6ea6c3d06a28,6136468867f6daee16fa44aa,,,,,,,,
f,1.2504,0,28,28,22,1,5f3663dd7dda2100096d4a81,ORORROO,ORORROR,22.02732763,21.57657071,series_0,5f3663dd7dda2100096d4a81,Mężczyzna,19,2021-09-06_18h50.00.878,rantool2,2021.1.4,MacIntel,59.99880002,6135e006383e6ea6c3d06a28,6136468867f6daee16fa44aa,,,,,,,,
j,1.0355,0,29,29,26,1,5f3663dd7dda2100096d4a81,ORROROO,ORROROR,22.02732763,21.71443381,series_0,5f3663dd7dda2100096d4a81,Mężczyzna,19,2021-09-06_18h50.00.878,rantool2,2021.1.4,MacIntel,59.99880002,6135e006383e6ea6c3d06a28,6136468867f6daee16fa44aa,,,,,,,,
f,2.3368,0,30,30,54,1,5f3663dd7dda2100096d4a81,RRORROO,RRORROR,21.55250791,20.9984461,series_0,5f3663dd7dda2100096d4a81,Mężczyzna,19,2021-09-06_18h50.00.878,rantool2,2021.1.4,MacIntel,59.99880002,6135e006383e6ea6c3d06a28,6136468867f6daee16fa44aa,,,,,,,,
f,2.2066,0,31,31,57,1,5f3663dd7dda2100096d4a81,RRROORO,RRROORR,21.82425538,22.07102821,series_1,5f3663dd7dda2100096d4a81,Mężczyzna,19,2021-09-06_18h50.00.878,rantool2,2021.1.4,MacIntel,59.99880002,6135e006383e6ea6c3d06a28,6136468867f6daee16fa44aa,,,,,,,,
j,1.1009,0,32,32,27,1,5f3663dd7dda2100096d4a81,ORRORRO,ORRORRR,21.55250791,22.2428857,series_1,5f3663dd7dda2100096d4a81,Mężczyzna,19,2021-09-06_18h50.00.878,rantool2,2021.1.4,MacIntel,59.99880002,6135e006383e6ea6c3d06a28,6136468867f6daee16fa44aa,,,,,,,,
j,2.7008,0,33,33,25,1,5f3663dd7dda2100096d4a81,ORROORO,ORROORR,21.79500819,22.61624387,series_1,5f3663dd7dda2100096d4a81,Mężczyzna,19,2021-09-06_18h50.00.878,rantool2,2021.1.4,MacIntel,59.99880002,6135e006383e6ea6c3d06a28,6136468867f6daee16fa44aa,,,,,,,,
f,1.623,0,34,34,34,1,5f3663dd7dda2100096d4a81,ROOOROO,ROOOROR,21.03750787,21.24781509,series_1,5f3663dd7dda2100096d4a81,Mężczyzna,19,2021-09-06_18h50.00.878,rantool2,2021.1.4,MacIntel,59.99880002,6135e006383e6ea6c3d06a28,6136468867f6daee16fa44aa,,,,,,,,
j,1.1339,0,35,35,48,1,5f3663dd7dda2100096d4a81,RROOOOO,RROOOOR,20.90986523,22.15934078,series_1,5f3663dd7dda2100096d4a81,Mężczyzna,19,2021-09-06_18h50.00.878,rantool2,2021.1.4,MacIntel,59.99880002,6135e006383e6ea6c3d06a28,6136468867f6daee16fa44aa,,,,,,,,
j,1.5965,0,36,36,7,1,5f3663dd7dda2100096d4a81,OOORRRO,OOORRRR,21.6194508,21.899017,series_1,5f3663dd7dda2100096d4a81,Mężczyzna,19,2021-09-06_18h50.00.878,rantool2,2021.1.4,MacIntel,59.99880002,6135e006383e6ea6c3d06a28,6136468867f6daee16fa44aa,,,,,,,,
f,1.2063,0,37,37,33,1,5f3663dd7dda2100096d4a81,ROOOORO,ROOOORR,20.83779602,22.03072203,series_1,5f3663dd7dda2100096d4a81,Mężczyzna,19,2021-09-06_18h50.00.878,rantool2,2021.1.4,MacIntel,59.99880002,6135e006383e6ea6c3d06a28,6136468867f6daee16fa44aa,,,,,,,,
f,1.5031,0,38,38,29,1,5f3663dd7dda2100096d4a81,ORRRORO,ORRRORR,22.00300695,22.12173012,series_1,5f3663dd7dda2100096d4a81,Mężczyzna,19,2021-09-06_18h50.00.878,rantool2,2021.1.4,MacIntel,59.99880002,6135e006383e6ea6c3d06a28,6136468867f6daee16fa44aa,,,,,,,,
f,2.1324,0,39,39,1,1,5f3663dd7dda2100096d4a81,OOOOORO,OOOOORR,19.92253567,20.74050628,series_1,5f3663dd7dda2100096d4a81,Mężczyzna,19,2021-09-06_18h50.00.878,rantool2,2021.1.4,MacIntel,59.99880002,6135e006383e6ea6c3d06a28,6136468867f6daee16fa44aa,,,,,,,,
j,1.2709,0,40,40,59,1,5f3663dd7dda2100096d4a81,RRRORRO,RRRORRR,21.56657303,20.89823192,series_0,5f3663dd7dda2100096d4a81,Mężczyzna,19,2021-09-06_18h50.00.878,rantool2,2021.1.4,MacIntel,59.99880002,6135e006383e6ea6c3d06a28,6136468867f6daee16fa44aa,,,,,,,,
f,1.3027,0,41,41,16,1,5f3663dd7dda2100096d4a81,OROOOOO,OROOOOR,20.43051175,21.17347734,series_1,5f3663dd7dda2100096d4a81,Mężczyzna,19,2021-09-06_18h50.00.878,rantool2,2021.1.4,MacIntel,59.99880002,6135e006383e6ea6c3d06a28,6136468867f6daee16fa44aa,,,,,,,,
j,1.8015,0,42,42,56,1,5f3663dd7dda2100096d4a81,RRROOOO,RRROOOR,21.6194508,22.31681875,series_1,5f3663dd7dda2100096d4a81,Mężczyzna,19,2021-09-06_18h50.00.878,rantool2,2021.1.4,MacIntel,59.99880002,6135e006383e6ea6c3d06a28,6136468867f6daee16fa44aa,,,,,,,,
j,1.4759,0,43,43,18,1,5f3663dd7dda2100096d4a81,OROOROO,OROOROR,20.84860893,21.22513037,series_1,5f3663dd7dda2100096d4a81,Mężczyzna,19,2021-09-06_18h50.00.878,rantool2,2021.1.4,MacIntel,59.99880002,6135e006383e6ea6c3d06a28,6136468867f6daee16fa44aa,,,,,,,,
j,1.7022,0,44,44,2,1,5f3663dd7dda2100096d4a81,OOOOROO,OOOOROR,20.43051175,21.02936224,series_1,5f3663dd7dda2100096d4a81,Mężczyzna,19,2021-09-06_18h50.00.878,rantool2,2021.1.4,MacIntel,59.99880002,6135e006383e6ea6c3d06a28,6136468867f6daee16fa44aa,,,,,,,,
f,1.3523,0,45,45,62,1,5f3663dd7dda2100096d4a81,RRRRROO,RRRRROR,22.16413392,21.27974287,series_0,5f3663dd7dda2100096d4a81,Mężczyzna,19,2021-09-06_18h50.00.878,rantool2,2021.1.4,MacIntel,59.99880002,6135e006383e6ea6c3d06a28,6136468867f6daee16fa44aa,,,,,,,,
j,1.5684,0,46,46,47,1,5f3663dd7dda2100096d4a81,RORRRRO,RORRRRR,21.81333602,21.02936224,series_0,5f3663dd7dda2100096d4a81,Mężczyzna,19,2021-09-06_18h50.00.878,rantool2,2021.1.4,MacIntel,59.99880002,6135e006383e6ea6c3d06a28,6136468867f6daee16fa44aa,,,,,,,,
j,1.7359,0,47,47,17,1,5f3663dd7dda2100096d4a81,OROOORO,OROOORR,21.03750787,22.12173012,series_1,5f3663dd7dda2100096d4a81,Mężczyzna,19,2021-09-06_18h50.00.878,rantool2,2021.1.4,MacIntel,59.99880002,6135e006383e6ea6c3d06a28,6136468867f6daee16fa44aa,,,,,,,,
j,1.5199,0,48,48,51,1,5f3663dd7dda2100096d4a81,RROORRO,RROORRR,21.89852628,22.02786418,series_1,5f3663dd7dda2100096d4a81,Mężczyzna,19,2021-09-06_18h50.00.878,rantool2,2021.1.4,MacIntel,59.99880002,6135e006383e6ea6c3d06a28,6136468867f6daee16fa44aa,,,,,,,,
f,0.7699,0,49,49,30,1,5f3663dd7dda2100096d4a81,ORRRROO,ORRRROR,22.46748491,22.03072203,series_0,5f3663dd7dda2100096d4a81,Mężczyzna,19,2021-09-06_18h50.00.878,rantool2,2021.1.4,MacIntel,59.99880002,6135e006383e6ea6c3d06a28,6136468867f6daee16fa44aa,,,,,,,,
f,2.4672,0,50,50,11,1,5f3663dd7dda2100096d4a81,OORORRO,OORORRR,22.18365867,22.6797523,series_1,5f3663dd7dda2100096d4a81,Mężczyzna,19,2021-09-06_18h50.00.878,rantool2,2021.1.4,MacIntel,59.99880002,6135e006383e6ea6c3d06a28,6136468867f6daee16fa44aa,,,,,,,,
f,1.6167,0,51,51,39,1,5f3663dd7dda2100096d4a81,ROORRRO,ROORRRR,21.82425538,21.38562617,series_0,5f3663dd7dda2100096d4a81,Mężczyzna,19,2021-09-06_18h50.00.878,rantool2,2021.1.4,MacIntel,59.99880002,6135e006383e6ea6c3d06a28,6136468867f6daee16fa44aa,,,,,,,,
j,1.3865,0,52,52,10,1,5f3663dd7dda2100096d4a81,OOROROO,OOROROR,21.31236711,21.07490964,series_0,5f3663dd7dda2100096d4a81,Mężczyzna,19,2021-09-06_18h50.00.878,rantool2,2021.1.4,MacIntel,59.99880002,6135e006383e6ea6c3d06a28,6136468867f6daee16fa44aa,,,,,,,,
j,1.5507,0,53,53,21,1,5f3663dd7dda2100096d4a81,ORORORO,ORORORR,20.39515459,22.06781359,series_1,5f3663dd7dda2100096d4a81,Mężczyzna,19,2021-09-06_18h50.00.878,rantool2,2021.1.4,MacIntel,59.99880002,6135e006383e6ea6c3d06a28,6136468867f6daee16fa44aa,,,,,,,,
f,1.716,0,54,54,45,1,5f3663dd7dda2100096d4a81,RORRORO,RORRORR,20.78182524,21.22513037,series_1,5f3663dd7dda2100096d4a81,Mężczyzna,19,2021-09-06_18h50.00.878,rantool2,2021.1.4,MacIntel,59.99880002,6135e006383e6ea6c3d06a28,6136468867f6daee16fa44aa,,,,,,,,
f,1.9531,0,55,55,32,1,5f3663dd7dda2100096d4a81,ROOOOOO,ROOOOOR,19.92253567,21.27974287,series_1,5f3663dd7dda2100096d4a81,Mężczyzna,19,2021-09-06_18h50.00.878,rantool2,2021.1.4,MacIntel,59.99880002,6135e006383e6ea6c3d06a28,6136468867f6daee16fa44aa,,,,,,,,
j,1.6539,0,56,56,13,1,5f3663dd7dda2100096d4a81,OORRORO,OORRORR,21.66733484,22.11181017,series_1,5f3663dd7dda2100096d4a81,Mężczyzna,19,2021-09-06_18h50.00.878,rantool2,2021.1.4,MacIntel,59.99880002,6135e006383e6ea6c3d06a28,6136468867f6daee16fa44aa,,,,,,,,
f,1.6619,0,57,57,55,1,5f3663dd7dda2100096d4a81,RRORRRO,RRORRRR,21.56657303,21.21223021,series_0,5f3663dd7dda2100096d4a81,Mężczyzna,19,2021-09-06_18h50.00.878,rantool2,2021.1.4,MacIntel,59.99880002,6135e006383e6ea6c3d06a28,6136468867f6daee16fa44aa,,,,,,,,
j,2.2706,0,58,58,40,1,5f3663dd7dda2100096d4a81,ROROOOO,ROROOOR,20.87963819,21.37121559,series_1,5f3663dd7dda2100096d4a81,Mężczyzna,19,2021-09-06_18h50.00.878,rantool2,2021.1.4,MacIntel,59.99880002,6135e006383e6ea6c3d06a28,6136468867f6daee16fa44aa,,,,,,,,
f,1.9204,0,59,59,6,1,5f3663dd7dda2100096d4a81,OOORROO,OOORROR,21.12383932,21.38562617,series_1,5f3663dd7dda2100096d4a81,Mężczyzna,19,2021-09-06_18h50.00.878,rantool2,2021.1.4,MacIntel,59.99880002,6135e006383e6ea6c3d06a28,6136468867f6daee16fa44aa,,,,,,,,
j,1.3191,0,60,60,24,1,5f3663dd7dda2100096d4a81,ORROOOO,ORROOOR,21.12383932,22.07102821,series_1,5f3663dd7dda2100096d4a81,Mężczyzna,19,2021-09-06_18h50.00.878,rantool2,2021.1.4,MacIntel,59.99880002,6135e006383e6ea6c3d06a28,6136468867f6daee16fa44aa,,,,,,,,
j,3.3177,0,61,61,35,1,5f3663dd7dda2100096d4a81,ROOORRO,ROOORRR,21.76276513,22.16977179,series_1,5f3663dd7dda2100096d4a81,Mężczyzna,19,2021-09-06_18h50.00.878,rantool2,2021.1.4,MacIntel,59.99880002,6135e006383e6ea6c3d06a28,6136468867f6daee16fa44aa,,,,,,,,
j,1.8395,0,62,62,63,1,5f3663dd7dda2100096d4a81,RRRRRRO,RRRRRRR,21.35278725,19.62521613,series_0,5f3663dd7dda2100096d4a81,Mężczyzna,19,2021-09-06_18h50.00.878,rantool2,2021.1.4,MacIntel,59.99880002,6135e006383e6ea6c3d06a28,6136468867f6daee16fa44aa,,,,,,,,
j,3.2386,0,63,63,14,1,5f3663dd7dda2100096d4a81,OORRROO,OORRROR,22.24142883,22.16977179,series_0,5f3663dd7dda2100096d4a81,Mężczyzna,19,2021-09-06_18h50.00.878,rantool2,2021.1.4,MacIntel,59.99880002,6135e006383e6ea6c3d06a28,6136468867f6daee16fa44aa,,,,,,,,
,,,,,,,5f3663dd7dda2100096d4a81,,,,,,5f3663dd7dda2100096d4a81,Mężczyzna,19,2021-09-06_18h50.00.878,rantool2,2021.1.4,MacIntel,59.99880002,6135e006383e6ea6c3d06a28,6136468867f6daee16fa44aa,"[""period""]",0,[1.1037999999523151],0,0,0,0,1
,,,,,,,5f3663dd7dda2100096d4a81,,,,,,5f3663dd7dda2100096d4a81,Mężczyzna,19,2021-09-06_18h50.00.878,rantool2,2021.1.4,MacIntel,59.99880002,6135e006383e6ea6c3d06a28,6136468867f6daee16fa44aa,"[""comma""]",0,[0.7729999999999961],1,0,1,0,1
,,,,,,,5f3663dd7dda2100096d4a81,,,,,,5f3663dd7dda2100096d4a81,Mężczyzna,19,2021-09-06_18h50.00.878,rantool2,2021.1.4,MacIntel,59.99880002,6135e006383e6ea6c3d06a28,6136468867f6daee16fa44aa,"[""comma""]",0,[0.6886999998092733],2,0,2,0,1
,,,,,,,5f3663dd7dda2100096d4a81,,,,,,5f3663dd7dda2100096d4a81,Mężczyzna,19,2021-09-06_18h50.00.878,rantool2,2021.1.4,MacIntel,59.99880002,6135e006383e6ea6c3d06a28,6136468867f6daee16fa44aa,"[""period""]",0,[0.41399999999998727],3,0,3,0,1
,,,,,,,5f3663dd7dda2100096d4a81,,,,,,5f3663dd7dda2100096d4a81,Mężczyzna,19,2021-09-06_18h50.00.878,rantool2,2021.1.4,MacIntel,59.99880002,6135e006383e6ea6c3d06a28,6136468867f6daee16fa44aa,"[""comma""]",0,[0.6175000000000068],4,0,4,0,1
,,,,,,,5f3663dd7dda2100096d4a81,,,,,,5f3663dd7dda2100096d4a81,Mężczyzna,19,2021-09-06_18h50.00.878,rantool2,2021.1.4,MacIntel,59.99880002,6135e006383e6ea6c3d06a28,6136468867f6daee16fa44aa,"[""period""]",0,[0.2845000000000084],5,0,5,0,1
,,,,,,,5f3663dd7dda2100096d4a81,,,,,,5f3663dd7dda2100096d4a81,Mężczyzna,19,2021-09-06_18h50.00.878,rantool2,2021.1.4,MacIntel,59.99880002,6135e006383e6ea6c3d06a28,6136468867f6daee16fa44aa,"[""period""]",0,[0.2737000000476826],6,0,6,0,1
,,,,,,,5f3663dd7dda2100096d4a81,,,,,,5f3663dd7dda2100096d4a81,Mężczyzna,19,2021-09-06_18h50.00.878,rantool2,2021.1.4,MacIntel,59.99880002,6135e006383e6ea6c3d06a28,6136468867f6daee16fa44aa,"[""period""]",0,[0.40070000004772055],7,0,7,0,1
,,,,,,,5f3663dd7dda2100096d4a81,,,,,,5f3663dd7dda2100096d4a81,Mężczyzna,19,2021-09-06_18h50.00.878,rantool2,2021.1.4,MacIntel,59.99880002,6135e006383e6ea6c3d06a28,6136468867f6daee16fa44aa,"[""comma""]",0,[0.2813000001906971],8,0,8,0,1
,,,,,,,5f3663dd7dda2100096d4a81,,,,,,5f3663dd7dda2100096d4a81,Mężczyzna,19,2021-09-06_18h50.00.878,rantool2,2021.1.4,MacIntel,59.99880002,6135e006383e6ea6c3d06a28,6136468867f6daee16fa44aa,"[""comma""]",0,[0.39400000000000546],9,0,9,0,1
,,,,,,,5f3663dd7dda2100096d4a81,,,,,,5f3663dd7dda2100096d4a81,Mężczyzna,19,2021-09-06_18h50.00.878,rantool2,2021.1.4,MacIntel,59.99880002,6135e006383e6ea6c3d06a28,6136468867f6daee16fa44aa,"[""period""]",0,[0.5719000000953542],10,0,10,0,1
,,,,,,,5f3663dd7dda2100096d4a81,,,,,,5f3663dd7dda2100096d4a81,Mężczyzna,19,2021-09-06_18h50.00.878,rantool2,2021.1.4,MacIntel,59.99880002,6135e006383e6ea6c3d06a28,6136468867f6daee16fa44aa,"[""comma""]",0,[0.3239000000953638],11,0,11,0,1
,,,,,,,5f3663dd7dda2100096d4a81,,,,,,5f3663dd7dda2100096d4a81,Mężczyzna,19,2021-09-06_18h50.00.878,rantool2,2021.1.4,MacIntel,59.99880002,6135e006383e6ea6c3d06a28,6136468867f6daee16fa44aa,"[""period"",""period""]",0,"[0.29010000014307025,1.7915000000000418]",12,0,12,0,1
,,,,,,,5f3663dd7dda2100096d4a81,,,,,,5f3663dd7dda2100096d4a81,Mężczyzna,19,2021-09-06_18h50.00.878,rantool2,2021.1.4,MacIntel,59.99880002,6135e006383e6ea6c3d06a28,6136468867f6daee16fa44aa,0,0,,13,0,13,0,1
,,,,,,,5f3663dd7dda2100096d4a81,,,,,,5f3663dd7dda2100096d4a81,Mężczyzna,19,2021-09-06_18h50.00.878,rantool2,2021.1.4,MacIntel,59.99880002,6135e006383e6ea6c3d06a28,6136468867f6daee16fa44aa,"[""comma""]",0,[0.23819999980923967],14,0,14,0,1
,,,,,,,5f3663dd7dda2100096d4a81,,,,,,5f3663dd7dda2100096d4a81,Mężczyzna,19,2021-09-06_18h50.00.878,rantool2,2021.1.4,MacIntel,59.99880002,6135e006383e6ea6c3d06a28,6136468867f6daee16fa44aa,"[""comma""]",0,[0.34170000004769463],15,0,15,0,1
,,,,,,,5f3663dd7dda2100096d4a81,,,,,,5f3663dd7dda2100096d4a81,Mężczyzna,19,2021-09-06_18h50.00.878,rantool2,2021.1.4,MacIntel,59.99880002,6135e006383e6ea6c3d06a28,6136468867f6daee16fa44aa,"[""period""]",0,[0.25489999985694567],16,0,16,0,1
,,,,,,,5f3663dd7dda2100096d4a81,,,,,,5f3663dd7dda2100096d4a81,Mężczyzna,19,2021-09-06_18h50.00.878,rantool2,2021.1.4,MacIntel,59.99880002,6135e006383e6ea6c3d06a28,6136468867f6daee16fa44aa,"[""comma""]",0,[0.3197000000476464],17,0,17,0,1
,,,,,,,5f3663dd7dda2100096d4a81,,,,,,5f3663dd7dda2100096d4a81,Mężczyzna,19,2021-09-06_18h50.00.878,rantool2,2021.1.4,MacIntel,59.99880002,6135e006383e6ea6c3d06a28,6136468867f6daee16fa44aa,"[""comma""]",0,[0.26600000000001955],18,0,18,0,1
,,,,,,,5f3663dd7dda2100096d4a81,,,,,,5f3663dd7dda2100096d4a81,Mężczyzna,19,2021-09-06_18h50.00.878,rantool2,2021.1.4,MacIntel,59.99880002,6135e006383e6ea6c3d06a28,6136468867f6daee16fa44aa,"[""period""]",0,[0.27300000000002456],19,0,19,0,1
,,,,,,,5f3663dd7dda2100096d4a81,,,,,,5f3663dd7dda2100096d4a81,Mężczyzna,19,2021-09-06_18h50.00.878,rantool2,2021.1.4,MacIntel,59.99880002,6135e006383e6ea6c3d06a28,6136468867f6daee16fa44aa,"[""comma""]",0,[0.2568999998569552],20,0,20,0,1
,,,,,,,5f3663dd7dda2100096d4a81,,,,,,5f3663dd7dda2100096d4a81,Mężczyzna,19,2021-09-06_18h50.00.878,rantool2,2021.1.4,MacIntel,59.99880002,6135e006383e6ea6c3d06a28,6136468867f6daee16fa44aa,"[""comma""]",0,[0.3012999999523345],21,0,21,0,1
,,,,,,,5f3663dd7dda2100096d4a81,,,,,,5f3663dd7dda2100096d4a81,Mężczyzna,19,2021-09-06_18h50.00.878,rantool2,2021.1.4,MacIntel,59.99880002,6135e006383e6ea6c3d06a28,6136468867f6daee16fa44aa,"[""period"",""comma"",""period""]",0,"[0.17429999995232492,0.22000000000002728,0.8347999999523381]",22,0,22,0,1
,,,,,,,5f3663dd7dda2100096d4a81,,,,,,5f3663dd7dda2100096d4a81,Mężczyzna,19,2021-09-06_18h50.00.878,rantool2,2021.1.4,MacIntel,59.99880002,6135e006383e6ea6c3d06a28,6136468867f6daee16fa44aa,"[""period""]",0,[0.33550000000002456],23,0,23,0,1
,,,,,,,5f3663dd7dda2100096d4a81,,,,,,5f3663dd7dda2100096d4a81,Mężczyzna,19,2021-09-06_18h50.00.878,rantool2,2021.1.4,MacIntel,59.99880002,6135e006383e6ea6c3d06a28,6136468867f6daee16fa44aa,"[""period""]",0,[0.21859999990459755],24,0,24,0,1
,,,,,,,5f3663dd7dda2100096d4a81,,,,,,5f3663dd7dda2100096d4a81,Mężczyzna,19,2021-09-06_18h50.00.878,rantool2,2021.1.4,MacIntel,59.99880002,6135e006383e6ea6c3d06a28,6136468867f6daee16fa44aa,"[""comma""]",0,[0.30770000004764597],25,0,25,0,1
,,,,,,,5f3663dd7dda2100096d4a81,,,,,,5f3663dd7dda2100096d4a81,Mężczyzna,19,2021-09-06_18h50.00.878,rantool2,2021.1.4,MacIntel,59.99880002,6135e006383e6ea6c3d06a28,6136468867f6daee16fa44aa,"[""period""]",0,[0.36920000004772646],26,0,26,0,1
,,,,,,,5f3663dd7dda2100096d4a81,,,,,,5f3663dd7dda2100096d4a81,Mężczyzna,19,2021-09-06_18h50.00.878,rantool2,2021.1.4,MacIntel,59.99880002,6135e006383e6ea6c3d06a28,6136468867f6daee16fa44aa,"[""period""]",0,[0.30309999990464576],27,0,27,0,1
,,,,,,,5f3663dd7dda2100096d4a81,,,,,,5f3663dd7dda2100096d4a81,Mężczyzna,19,2021-09-06_18h50.00.878,rantool2,2021.1.4,MacIntel,59.99880002,6135e006383e6ea6c3d06a28,6136468867f6daee16fa44aa,"[""period""]",0,[0.6656000001430584],28,0,28,0,1
,,,,,,,5f3663dd7dda2100096d4a81,,,,,,5f3663dd7dda2100096d4a81,Mężczyzna,19,2021-09-06_18h50.00.878,rantool2,2021.1.4,MacIntel,59.99880002,6135e006383e6ea6c3d06a28,6136468867f6daee16fa44aa,"[""comma""]",0,[0.27099999999995816],29,0,29,0,1
,,,,,,,5f3663dd7dda2100096d4a81,,,,,,5f3663dd7dda2100096d4a81,Mężczyzna,19,2021-09-06_18h50.00.878,rantool2,2021.1.4,MacIntel,59.99880002,6135e006383e6ea6c3d06a28,6136468867f6daee16fa44aa,"[""period""]",0,[0.29080000019069985],30,0,30,0,1
,,,,,,,5f3663dd7dda2100096d4a81,,,,,,5f3663dd7dda2100096d4a81,Mężczyzna,19,2021-09-06_18h50.00.878,rantool2,2021.1.4,MacIntel,59.99880002,6135e006383e6ea6c3d06a28,6136468867f6daee16fa44aa,"[""comma""]",0,[0.3013000001907358],31,0,31,0,1
,,,,,,,5f3663dd7dda2100096d4a81,,,,,,5f3663dd7dda2100096d4a81,Mężczyzna,19,2021-09-06_18h50.00.878,rantool2,2021.1.4,MacIntel,59.99880002,6135e006383e6ea6c3d06a28,6136468867f6daee16fa44aa,"[""comma""]",0,[0.2547999999522972],32,0,32,0,1
,,,,,,,5f3663dd7dda2100096d4a81,,,,,,5f3663dd7dda2100096d4a81,Mężczyzna,19,2021-09-06_18h50.00.878,rantool2,2021.1.4,MacIntel,59.99880002,6135e006383e6ea6c3d06a28,6136468867f6daee16fa44aa,"[""period""]",0,[0.2512000000476746],33,0,33,0,1
,,,,,,,5f3663dd7dda2100096d4a81,,,,,,5f3663dd7dda2100096d4a81,Mężczyzna,19,2021-09-06_18h50.00.878,rantool2,2021.1.4,MacIntel,59.99880002,6135e006383e6ea6c3d06a28,6136468867f6daee16fa44aa,"[""period""]",0,[0.25339999985698114],34,0,34,0,1
,,,,,,,5f3663dd7dda2100096d4a81,,,,,,5f3663dd7dda2100096d4a81,Mężczyzna,19,2021-09-06_18h50.00.878,rantool2,2021.1.4,MacIntel,59.99880002,6135e006383e6ea6c3d06a28,6136468867f6daee16fa44aa,"[""comma""]",0,[0.2898999998569707],35,0,35,0,1
,,,,,,,5f3663dd7dda2100096d4a81,,,,,,5f3663dd7dda2100096d4a81,Mężczyzna,19,2021-09-06_18h50.00.878,rantool2,2021.1.4,MacIntel,59.99880002,6135e006383e6ea6c3d06a28,6136468867f6daee16fa44aa,"[""period""]",0,[0.2884000000953506],36,0,36,0,1
,,,,,,,5f3663dd7dda2100096d4a81,,,,,,5f3663dd7dda2100096d4a81,Mężczyzna,19,2021-09-06_18h50.00.878,rantool2,2021.1.4,MacIntel,59.99880002,6135e006383e6ea6c3d06a28,6136468867f6daee16fa44aa,"[""comma""]",0,[0.4532000000476728],37,0,37,0,1
,,,,,,,5f3663dd7dda2100096d4a81,,,,,,5f3663dd7dda2100096d4a81,Mężczyzna,19,2021-09-06_18h50.00.878,rantool2,2021.1.4,MacIntel,59.99880002,6135e006383e6ea6c3d06a28,6136468867f6daee16fa44aa,"[""comma""]",0,[0.32059999990462984],38,0,38,0,1
,,,,,,,5f3663dd7dda2100096d4a81,,,,,,5f3663dd7dda2100096d4a81,Mężczyzna,19,2021-09-06_18h50.00.878,rantool2,2021.1.4,MacIntel,59.99880002,6135e006383e6ea6c3d06a28,6136468867f6daee16fa44aa,"[""period""]",0,[0.2853000001907162],39,0,39,0,1
,,,,,,,5f3663dd7dda2100096d4a81,,,,,,5f3663dd7dda2100096d4a81,Mężczyzna,19,2021-09-06_18h50.00.878,rantool2,2021.1.4,MacIntel,59.99880002,6135e006383e6ea6c3d06a28,6136468867f6daee16fa44aa,"[""period""]",0,[0.483299999952294],40,0,40,0,1
,,,,,,,5f3663dd7dda2100096d4a81,,,,,,5f3663dd7dda2100096d4a81,Mężczyzna,19,2021-09-06_18h50.00.878,rantool2,2021.1.4,MacIntel,59.99880002,6135e006383e6ea6c3d06a28,6136468867f6daee16fa44aa,"[""comma""]",0,[0.45209999990464667],41,0,41,0,1
,,,,,,,5f3663dd7dda2100096d4a81,,,,,,5f3663dd7dda2100096d4a81,Mężczyzna,19,2021-09-06_18h50.00.878,rantool2,2021.1.4,MacIntel,59.99880002,6135e006383e6ea6c3d06a28,6136468867f6daee16fa44aa,"[""comma""]",0,[0.4845999999046171],42,0,42,0,1
,,,,,,,5f3663dd7dda2100096d4a81,,,,,,5f3663dd7dda2100096d4a81,Mężczyzna,19,2021-09-06_18h50.00.878,rantool2,2021.1.4,MacIntel,59.99880002,6135e006383e6ea6c3d06a28,6136468867f6daee16fa44aa,"[""comma""]",0,[0.42420000004767644],43,0,43,0,1
,,,,,,,5f3663dd7dda2100096d4a81,,,,,,5f3663dd7dda2100096d4a81,Mężczyzna,19,2021-09-06_18h50.00.878,rantool2,2021.1.4,MacIntel,59.99880002,6135e006383e6ea6c3d06a28,6136468867f6daee16fa44aa,"[""comma""]",0,[0.46609999990465667],44,0,44,0,1
,,,,,,,5f3663dd7dda2100096d4a81,,,,,,5f3663dd7dda2100096d4a81,Mężczyzna,19,2021-09-06_18h50.00.878,rantool2,2021.1.4,MacIntel,59.99880002,6135e006383e6ea6c3d06a28,6136468867f6daee16fa44aa,"[""period""]",0,[0.23500000000001364],45,0,45,0,1
,,,,,,,5f3663dd7dda2100096d4a81,,,,,,5f3663dd7dda2100096d4a81,Mężczyzna,19,2021-09-06_18h50.00.878,rantool2,2021.1.4,MacIntel,59.99880002,6135e006383e6ea6c3d06a28,6136468867f6daee16fa44aa,"[""comma""]",0,[0.259200000047656],46,0,46,0,1
,,,,,,,5f3663dd7dda2100096d4a81,,,,,,5f3663dd7dda2100096d4a81,Mężczyzna,19,2021-09-06_18h50.00.878,rantool2,2021.1.4,MacIntel,59.99880002,6135e006383e6ea6c3d06a28,6136468867f6daee16fa44aa,"[""period""]",0,[0.25780000019074123],47,0,47,0,1
,,,,,,,5f3663dd7dda2100096d4a81,,,,,,5f3663dd7dda2100096d4a81,Mężczyzna,19,2021-09-06_18h50.00.878,rantool2,2021.1.4,MacIntel,59.99880002,6135e006383e6ea6c3d06a28,6136468867f6daee16fa44aa,"[""period""]",0,[0.2687999999523072],48,0,48,0,1
,,,,,,,5f3663dd7dda2100096d4a81,,,,,,5f3663dd7dda2100096d4a81,Mężczyzna,19,2021-09-06_18h50.00.878,rantool2,2021.1.4,MacIntel,59.99880002,6135e006383e6ea6c3d06a28,6136468867f6daee16fa44aa,"[""period""]",0,[0.25020000004769827],49,0,49,0,1
,,,,,,,5f3663dd7dda2100096d4a81,,,,,,5f3663dd7dda2100096d4a81,Mężczyzna,19,2021-09-06_18h50.00.878,rantool2,2021.1.4,MacIntel,59.99880002,6135e006383e6ea6c3d06a28,6136468867f6daee16fa44aa,"[""comma""]",0,[0.2858999998569516],50,0,50,0,1
,,,,,,,5f3663dd7dda2100096d4a81,,,,,,5f3663dd7dda2100096d4a81,Mężczyzna,19,2021-09-06_18h50.00.878,rantool2,2021.1.4,MacIntel,59.99880002,6135e006383e6ea6c3d06a28,6136468867f6daee16fa44aa,"[""comma""]",0,[0.4519999999999982],51,0,51,0,1
,,,,,,,5f3663dd7dda2100096d4a81,,,,,,5f3663dd7dda2100096d4a81,Mężczyzna,19,2021-09-06_18h50.00.878,rantool2,2021.1.4,MacIntel,59.99880002,6135e006383e6ea6c3d06a28,6136468867f6daee16fa44aa,"[""period""]",0,[0.28449999999998],52,0,52,0,1
,,,,,,,5f3663dd7dda2100096d4a81,,,,,,5f3663dd7dda2100096d4a81,Mężczyzna,19,2021-09-06_18h50.00.878,rantool2,2021.1.4,MacIntel,59.99880002,6135e006383e6ea6c3d06a28,6136468867f6daee16fa44aa,"[""period""]",0,[0.45040000009538517],53,0,53,0,1
,,,,,,,5f3663dd7dda2100096d4a81,,,,,,5f3663dd7dda2100096d4a81,Mężczyzna,19,2021-09-06_18h50.00.878,rantool2,2021.1.4,MacIntel,59.99880002,6135e006383e6ea6c3d06a28,6136468867f6daee16fa44aa,"[""comma""]",0,[0.28439999985698705],54,0,54,0,1
,,,,,,,5f3663dd7dda2100096d4a81,,,,,,5f3663dd7dda2100096d4a81,Mężczyzna,19,2021-09-06_18h50.00.878,rantool2,2021.1.4,MacIntel,59.99880002,6135e006383e6ea6c3d06a28,6136468867f6daee16fa44aa,"[""period""]",0,[0.30639999985692157],55,0,55,0,1
,,,,,,,5f3663dd7dda2100096d4a81,,,,,,5f3663dd7dda2100096d4a81,Mężczyzna,19,2021-09-06_18h50.00.878,rantool2,2021.1.4,MacIntel,59.99880002,6135e006383e6ea6c3d06a28,6136468867f6daee16fa44aa,"[""period""]",0,[0.33179999995229537],56,0,56,0,1
,,,,,,,5f3663dd7dda2100096d4a81,,,,,,5f3663dd7dda2100096d4a81,Mężczyzna,19,2021-09-06_18h50.00.878,rantool2,2021.1.4,MacIntel,59.99880002,6135e006383e6ea6c3d06a28,6136468867f6daee16fa44aa,"[""period""]",0,[0.435900000095387],57,0,57,0,1
,,,,,,,5f3663dd7dda2100096d4a81,,,,,,5f3663dd7dda2100096d4a81,Mężczyzna,19,2021-09-06_18h50.00.878,rantool2,2021.1.4,MacIntel,59.99880002,6135e006383e6ea6c3d06a28,6136468867f6daee16fa44aa,"[""comma""]",0,[0.28130000019075396],58,0,58,0,1
,,,,,,,5f3663dd7dda2100096d4a81,,,,,,5f3663dd7dda2100096d4a81,Mężczyzna,19,2021-09-06_18h50.00.878,rantool2,2021.1.4,MacIntel,59.99880002,6135e006383e6ea6c3d06a28,6136468867f6daee16fa44aa,"[""period""]",0,[0.23559999990459346],59,0,59,0,1
,,,,,,,5f3663dd7dda2100096d4a81,,,,,,5f3663dd7dda2100096d4a81,Mężczyzna,19,2021-09-06_18h50.00.878,rantool2,2021.1.4,MacIntel,59.99880002,6135e006383e6ea6c3d06a28,6136468867f6daee16fa44aa,"[""comma""]",0,[0.03359999990459528],60,0,60,0,1
,,,,,,,5f3663dd7dda2100096d4a81,,,,,,5f3663dd7dda2100096d4a81,Mężczyzna,19,2021-09-06_18h50.00.878,rantool2,2021.1.4,MacIntel,59.99880002,6135e006383e6ea6c3d06a28,6136468867f6daee16fa44aa,"[""comma""]",0,[0.2362999999522799],61,0,61,0,1
,,,,,,,5f3663dd7dda2100096d4a81,,,,,,5f3663dd7dda2100096d4a81,Mężczyzna,19,2021-09-06_18h50.00.878,rantool2,2021.1.4,MacIntel,59.99880002,6135e006383e6ea6c3d06a28,6136468867f6daee16fa44aa,"[""comma""]",0,[0.25200000000000955],62,0,62,0,1
,,,,,,,5f3663dd7dda2100096d4a81,,,,,,5f3663dd7dda2100096d4a81,Mężczyzna,19,2021-09-06_18h50.00.878,rantool2,2021.1.4,MacIntel,59.99880002,6135e006383e6ea6c3d06a28,6136468867f6daee16fa44aa,"[""comma""]",0,[0.26739999985699114],63,0,63,0,1
,,,,,,,5f3663dd7dda2100096d4a81,,,,,,5f3663dd7dda2100096d4a81,Mężczyzna,19,2021-09-06_18h50.00.878,rantool2,2021.1.4,MacIntel,59.99880002,6135e006383e6ea6c3d06a28,6136468867f6daee16fa44aa,"[""comma""]",0,[0.2840999999046403],64,0,64,0,1
,,,,,,,5f3663dd7dda2100096d4a81,,,,,,5f3663dd7dda2100096d4a81,Mężczyzna,19,2021-09-06_18h50.00.878,rantool2,2021.1.4,MacIntel,59.99880002,6135e006383e6ea6c3d06a28,6136468867f6daee16fa44aa,"[""period""]",0,[0.2672000000476942],65,0,65,0,1
,,,,,,,5f3663dd7dda2100096d4a81,,,,,,5f3663dd7dda2100096d4a81,Mężczyzna,19,2021-09-06_18h50.00.878,rantool2,2021.1.4,MacIntel,59.99880002,6135e006383e6ea6c3d06a28,6136468867f6daee16fa44aa,"[""comma""]",0,[0.2650000000000432],66,0,66,0,1
,,,,,,,5f3663dd7dda2100096d4a81,,,,,,5f3663dd7dda2100096d4a81,Mężczyzna,19,2021-09-06_18h50.00.878,rantool2,2021.1.4,MacIntel,59.99880002,6135e006383e6ea6c3d06a28,6136468867f6daee16fa44aa,"[""comma""]",0,[0.27179999995234994],67,0,67,0,1
,,,,,,,5f3663dd7dda2100096d4a81,,,,,,5f3663dd7dda2100096d4a81,Mężczyzna,19,2021-09-06_18h50.00.878,rantool2,2021.1.4,MacIntel,59.99880002,6135e006383e6ea6c3d06a28,6136468867f6daee16fa44aa,"[""period""]",0,[0.2870999999046262],68,0,68,0,1
,,,,,,,5f3663dd7dda2100096d4a81,,,,,,5f3663dd7dda2100096d4a81,Mężczyzna,19,2021-09-06_18h50.00.878,rantool2,2021.1.4,MacIntel,59.99880002,6135e006383e6ea6c3d06a28,6136468867f6daee16fa44aa,"[""period""]",0,[0.3172000000476487],69,0,69,0,1
,,,,,,,5f3663dd7dda2100096d4a81,,,,,,5f3663dd7dda2100096d4a81,Mężczyzna,19,2021-09-06_18h50.00.878,rantool2,2021.1.4,MacIntel,59.99880002,6135e006383e6ea6c3d06a28,6136468867f6daee16fa44aa,"[""comma""]",0,[0.25470000004770554],70,0,70,0,1
,,,,,,,5f3663dd7dda2100096d4a81,,,,,,5f3663dd7dda2100096d4a81,Mężczyzna,19,2021-09-06_18h50.00.878,rantool2,2021.1.4,MacIntel,59.99880002,6135e006383e6ea6c3d06a28,6136468867f6daee16fa44aa,"[""period""]",0,[0.2667999999523545],71,0,71,0,1
,,,,,,,5f3663dd7dda2100096d4a81,,,,,,5f3663dd7dda2100096d4a81,Mężczyzna,19,2021-09-06_18h50.00.878,rantool2,2021.1.4,MacIntel,59.99880002,6135e006383e6ea6c3d06a28,6136468867f6daee16fa44aa,"[""period""]",0,[0.28769999980926286],72,0,72,0,1
,,,,,,,5f3663dd7dda2100096d4a81,,,,,,5f3663dd7dda2100096d4a81,Mężczyzna,19,2021-09-06_18h50.00.878,rantool2,2021.1.4,MacIntel,59.99880002,6135e006383e6ea6c3d06a28,6136468867f6daee16fa44aa,"[""period""]",0,[0.18680000019071485],73,0,73,0,1
,,,,,,,5f3663dd7dda2100096d4a81,,,,,,5f3663dd7dda2100096d4a81,Mężczyzna,19,2021-09-06_18h50.00.878,rantool2,2021.1.4,MacIntel,59.99880002,6135e006383e6ea6c3d06a28,6136468867f6daee16fa44aa,"[""comma""]",0,[0.32180000019070576],74,0,74,0,1
,,,,,,,5f3663dd7dda2100096d4a81,,,,,,5f3663dd7dda2100096d4a81,Mężczyzna,19,2021-09-06_18h50.00.878,rantool2,2021.1.4,MacIntel,59.99880002,6135e006383e6ea6c3d06a28,6136468867f6daee16fa44aa,"[""comma""]",0,[0.405700000047716],75,0,75,0,1
,,,,,,,5f3663dd7dda2100096d4a81,,,,,,5f3663dd7dda2100096d4a81,Mężczyzna,19,2021-09-06_18h50.00.878,rantool2,2021.1.4,MacIntel,59.99880002,6135e006383e6ea6c3d06a28,6136468867f6daee16fa44aa,"[""period""]",0,[0.36890000009532287],76,0,76,0,1
,,,,,,,5f3663dd7dda2100096d4a81,,,,,,5f3663dd7dda2100096d4a81,Mężczyzna,19,2021-09-06_18h50.00.878,rantool2,2021.1.4,MacIntel,59.99880002,6135e006383e6ea6c3d06a28,6136468867f6daee16fa44aa,"[""comma""]",0,[0.30190000009537243],77,0,77,0,1
,,,,,,,5f3663dd7dda2100096d4a81,,,,,,5f3663dd7dda2100096d4a81,Mężczyzna,19,2021-09-06_18h50.00.878,rantool2,2021.1.4,MacIntel,59.99880002,6135e006383e6ea6c3d06a28,6136468867f6daee16fa44aa,"[""comma""]",0,[0.3212000000476678],78,0,78,0,1
,,,,,,,5f3663dd7dda2100096d4a81,,,,,,5f3663dd7dda2100096d4a81,Mężczyzna,19,2021-09-06_18h50.00.878,rantool2,2021.1.4,MacIntel,59.99880002,6135e006383e6ea6c3d06a28,6136468867f6daee16fa44aa,"[""period""]",0,[0.13779999995233538],79,0,79,0,1
,,,,,,,5f3663dd7dda2100096d4a81,,,,,,5f3663dd7dda2100096d4a81,Mężczyzna,19,2021-09-06_18h50.00.878,rantool2,2021.1.4,MacIntel,59.99880002,6135e006383e6ea6c3d06a28,6136468867f6daee16fa44aa,"[""period""]",0,[0.3667000000476719],80,0,80,0,1
,,,,,,,5f3663dd7dda2100096d4a81,,,,,,5f3663dd7dda2100096d4a81,Mężczyzna,19,2021-09-06_18h50.00.878,rantool2,2021.1.4,MacIntel,59.99880002,6135e006383e6ea6c3d06a28,6136468867f6daee16fa44aa,"[""period""]",0,[0.31709999990465576],81,0,81,0,1
,,,,,,,5f3663dd7dda2100096d4a81,,,,,,5f3663dd7dda2100096d4a81,Mężczyzna,19,2021-09-06_18h50.00.878,rantool2,2021.1.4,MacIntel,59.99880002,6135e006383e6ea6c3d06a28,6136468867f6daee16fa44aa,"[""period""]",0,[0.2832999999523622],82,0,82,0,1
,,,,,,,5f3663dd7dda2100096d4a81,,,,,,5f3663dd7dda2100096d4a81,Mężczyzna,19,2021-09-06_18h50.00.878,rantool2,2021.1.4,MacIntel,59.99880002,6135e006383e6ea6c3d06a28,6136468867f6daee16fa44aa,"[""comma""]",0,[0.25039999985699524],83,0,83,0,1
,,,,,,,5f3663dd7dda2100096d4a81,,,,,,5f3663dd7dda2100096d4a81,Mężczyzna,19,2021-09-06_18h50.00.878,rantool2,2021.1.4,MacIntel,59.99880002,6135e006383e6ea6c3d06a28,6136468867f6daee16fa44aa,"[""period""]",0,[0.2045999999046444],84,0,84,0,1
,,,,,,,5f3663dd7dda2100096d4a81,,,,,,5f3663dd7dda2100096d4a81,Mężczyzna,19,2021-09-06_18h50.00.878,rantool2,2021.1.4,MacIntel,59.99880002,6135e006383e6ea6c3d06a28,6136468867f6daee16fa44aa,"[""period""]",0,[0.2683000001907203],85,0,85,0,1
,,,,,,,5f3663dd7dda2100096d4a81,,,,,,5f3663dd7dda2100096d4a81,Mężczyzna,19,2021-09-06_18h50.00.878,rantool2,2021.1.4,MacIntel,59.99880002,6135e006383e6ea6c3d06a28,6136468867f6daee16fa44aa,"[""period""]",0,[0.2832999999523622],86,0,86,0,1
,,,,,,,5f3663dd7dda2100096d4a81,,,,,,5f3663dd7dda2100096d4a81,Mężczyzna,19,2021-09-06_18h50.00.878,rantool2,2021.1.4,MacIntel,59.99880002,6135e006383e6ea6c3d06a28,6136468867f6daee16fa44aa,"[""period""]",0,[0.23579999995234857],87,0,87,0,1
,,,,,,,5f3663dd7dda2100096d4a81,,,,,,5f3663dd7dda2100096d4a81,Mężczyzna,19,2021-09-06_18h50.00.878,rantool2,2021.1.4,MacIntel,59.99880002,6135e006383e6ea6c3d06a28,6136468867f6daee16fa44aa,"[""period""]",0,[0.2686000001430102],88,0,88,0,1
,,,,,,,5f3663dd7dda2100096d4a81,,,,,,5f3663dd7dda2100096d4a81,Mężczyzna,19,2021-09-06_18h50.00.878,rantool2,2021.1.4,MacIntel,59.99880002,6135e006383e6ea6c3d06a28,6136468867f6daee16fa44aa,"[""comma""]",0,[0.2383000001907476],89,0,89,0,1
,,,,,,,5f3663dd7dda2100096d4a81,,,,,,5f3663dd7dda2100096d4a81,Mężczyzna,19,2021-09-06_18h50.00.878,rantool2,2021.1.4,MacIntel,59.99880002,6135e006383e6ea6c3d06a28,6136468867f6daee16fa44aa,"[""period""]",0,[0.251599999904613],90,0,90,0,1
,,,,,,,5f3663dd7dda2100096d4a81,,,,,,5f3663dd7dda2100096d4a81,Mężczyzna,19,2021-09-06_18h50.00.878,rantool2,2021.1.4,MacIntel,59.99880002,6135e006383e6ea6c3d06a28,6136468867f6daee16fa44aa,"[""comma""]",0,[0.21989999985692066],91,0,91,0,1
,,,,,,,5f3663dd7dda2100096d4a81,,,,,,5f3663dd7dda2100096d4a81,Mężczyzna,19,2021-09-06_18h50.00.878,rantool2,2021.1.4,MacIntel,59.99880002,6135e006383e6ea6c3d06a28,6136468867f6daee16fa44aa,"[""comma""]",0,[0.24060000014304705],92,0,92,0,1
,,,,,,,5f3663dd7dda2100096d4a81,,,,,,5f3663dd7dda2100096d4a81,Mężczyzna,19,2021-09-06_18h50.00.878,rantool2,2021.1.4,MacIntel,59.99880002,6135e006383e6ea6c3d06a28,6136468867f6daee16fa44aa,"[""comma""]",0,[0.8662000000476837],93,0,93,0,1
,,,,,,,5f3663dd7dda2100096d4a81,,,,,,5f3663dd7dda2100096d4a81,Mężczyzna,19,2021-09-06_18h50.00.878,rantool2,2021.1.4,MacIntel,59.99880002,6135e006383e6ea6c3d06a28,6136468867f6daee16fa44aa,"[""period""]",0,[0.3212000000476678],94,0,94,0,1
,,,,,,,5f3663dd7dda2100096d4a81,,,,,,5f3663dd7dda2100096d4a81,Mężczyzna,19,2021-09-06_18h50.00.878,rantool2,2021.1.4,MacIntel,59.99880002,6135e006383e6ea6c3d06a28,6136468867f6daee16fa44aa,"[""period""]",0,[0.2513000001907244],95,0,95,0,1
,,,,,,,5f3663dd7dda2100096d4a81,,,,,,5f3663dd7dda2100096d4a81,Mężczyzna,19,2021-09-06_18h50.00.878,rantool2,2021.1.4,MacIntel,59.99880002,6135e006383e6ea6c3d06a28,6136468867f6daee16fa44aa,"[""period"",""comma""]",0,"[0.3015999999046244,1.91729999995232]",96,0,96,0,1
,,,,,,,5f3663dd7dda2100096d4a81,,,,,,5f3663dd7dda2100096d4a81,Mężczyzna,19,2021-09-06_18h50.00.878,rantool2,2021.1.4,MacIntel,59.99880002,6135e006383e6ea6c3d06a28,6136468867f6daee16fa44aa,0,0,,97,0,97,0,1
,,,,,,,5f3663dd7dda2100096d4a81,,,,,,5f3663dd7dda2100096d4a81,Mężczyzna,19,2021-09-06_18h50.00.878,rantool2,2021.1.4,MacIntel,59.99880002,6135e006383e6ea6c3d06a28,6136468867f6daee16fa44aa,"[""period""]",0,[0.2511999998092733],98,0,98,0,1
,,,,,,,5f3663dd7dda2100096d4a81,,,,,,5f3663dd7dda2100096d4a81,Mężczyzna,19,2021-09-06_18h50.00.878,rantool2,2021.1.4,MacIntel,59.99880002,6135e006383e6ea6c3d06a28,6136468867f6daee16fa44aa,"[""comma""]",0,[0.2757999999523122],99,0,99,0,1
,,,,,,,5f3663dd7dda2100096d4a81,,,,,,5f3663dd7dda2100096d4a81,Mężczyzna,19,2021-09-06_18h50.00.878,rantool2,2021.1.4,MacIntel,59.99880002,6135e006383e6ea6c3d06a28,6136468867f6daee16fa44aa,"[""period""]",0,[0.2697999999523404],100,0,100,0,1
,,,,,,,5f3663dd7dda2100096d4a81,,,,,,5f3663dd7dda2100096d4a81,Mężczyzna,19,2021-09-06_18h50.00.878,rantool2,2021.1.4,MacIntel,59.99880002,6135e006383e6ea6c3d06a28,6136468867f6daee16fa44aa,"[""period""]",0,[0.3337000000477133],101,0,101,0,1
,,,,,,,5f3663dd7dda2100096d4a81,,,,,,5f3663dd7dda2100096d4a81,Mężczyzna,19,2021-09-06_18h50.00.878,rantool2,2021.1.4,MacIntel,59.99880002,6135e006383e6ea6c3d06a28,6136468867f6daee16fa44aa,"[""comma""]",0,[0.38329999995227126],102,0,102,0,1
,,,,,,,5f3663dd7dda2100096d4a81,,,,,,5f3663dd7dda2100096d4a81,Mężczyzna,19,2021-09-06_18h50.00.878,rantool2,2021.1.4,MacIntel,59.99880002,6135e006383e6ea6c3d06a28,6136468867f6daee16fa44aa,"[""comma""]",0,[0.23880000019073577],103,0,103,0,1
,,,,,,,5f3663dd7dda2100096d4a81,,,,,,5f3663dd7dda2100096d4a81,Mężczyzna,19,2021-09-06_18h50.00.878,rantool2,2021.1.4,MacIntel,59.99880002,6135e006383e6ea6c3d06a28,6136468867f6daee16fa44aa,"[""period""]",0,[0.2893000001907353],104,0,104,0,1
,,,,,,,5f3663dd7dda2100096d4a81,,,,,,5f3663dd7dda2100096d4a81,Mężczyzna,19,2021-09-06_18h50.00.878,rantool2,2021.1.4,MacIntel,59.99880002,6135e006383e6ea6c3d06a28,6136468867f6daee16fa44aa,"[""comma""]",0,[0.2671000001430457],105,0,105,0,1
,,,,,,,5f3663dd7dda2100096d4a81,,,,,,5f3663dd7dda2100096d4a81,Mężczyzna,19,2021-09-06_18h50.00.878,rantool2,2021.1.4,MacIntel,59.99880002,6135e006383e6ea6c3d06a28,6136468867f6daee16fa44aa,"[""comma""]",0,[0.21809999990466622],106,0,106,0,1
,,,,,,,5f3663dd7dda2100096d4a81,,,,,,5f3663dd7dda2100096d4a81,Mężczyzna,19,2021-09-06_18h50.00.878,rantool2,2021.1.4,MacIntel,59.99880002,6135e006383e6ea6c3d06a28,6136468867f6daee16fa44aa,"[""comma""]",0,[0.32320000004767735],107,0,107,0,1
,,,,,,,5f3663dd7dda2100096d4a81,,,,,,5f3663dd7dda2100096d4a81,Mężczyzna,19,2021-09-06_18h50.00.878,rantool2,2021.1.4,MacIntel,59.99880002,6135e006383e6ea6c3d06a28,6136468867f6daee16fa44aa,"[""period""]",0,[0.26650000000000773],108,0,108,0,1
,,,,,,,5f3663dd7dda2100096d4a81,,,,,,5f3663dd7dda2100096d4a81,Mężczyzna,19,2021-09-06_18h50.00.878,rantool2,2021.1.4,MacIntel,59.99880002,6135e006383e6ea6c3d06a28,6136468867f6daee16fa44aa,"[""period""]",0,[0.20530000019073213],109,0,109,0,1
,,,,,,,5f3663dd7dda2100096d4a81,,,,,,5f3663dd7dda2100096d4a81,Mężczyzna,19,2021-09-06_18h50.00.878,rantool2,2021.1.4,MacIntel,59.99880002,6135e006383e6ea6c3d06a28,6136468867f6daee16fa44aa,"[""period""]",0,[0.019400000095401992],110,0,110,0,1
,,,,,,,5f3663dd7dda2100096d4a81,,,,,,5f3663dd7dda2100096d4a81,Mężczyzna,19,2021-09-06_18h50.00.878,rantool2,2021.1.4,MacIntel,59.99880002,6135e006383e6ea6c3d06a28,6136468867f6daee16fa44aa,"[""comma""]",0,[0.10409999990463348],111,0,111,0,1
,,,,,,,5f3663dd7dda2100096d4a81,,,,,,5f3663dd7dda2100096d4a81,Mężczyzna,19,2021-09-06_18h50.00.878,rantool2,2021.1.4,MacIntel,59.99880002,6135e006383e6ea6c3d06a28,6136468867f6daee16fa44aa,"[""comma""]",0,[0.3531000001430584],112,0,112,0,1
,,,,,,,5f3663dd7dda2100096d4a81,,,,,,5f3663dd7dda2100096d4a81,Mężczyzna,19,2021-09-06_18h50.00.878,rantool2,2021.1.4,MacIntel,59.99880002,6135e006383e6ea6c3d06a28,6136468867f6daee16fa44aa,"[""period""]",0,[0.3175999999045871],113,0,113,0,1
,,,,,,,5f3663dd7dda2100096d4a81,,,,,,5f3663dd7dda2100096d4a81,Mężczyzna,19,2021-09-06_18h50.00.878,rantool2,2021.1.4,MacIntel,59.99880002,6135e006383e6ea6c3d06a28,6136468867f6daee16fa44aa,"[""comma""]",0,[0.3674000000954152],114,0,114,0,1
,,,,,,,5f3663dd7dda2100096d4a81,,,,,,5f3663dd7dda2100096d4a81,Mężczyzna,19,2021-09-06_18h50.00.878,rantool2,2021.1.4,MacIntel,59.99880002,6135e006383e6ea6c3d06a28,6136468867f6daee16fa44aa,"[""comma""]",0,[0.2661999998092597],115,0,115,0,1
,,,,,,,5f3663dd7dda2100096d4a81,,,,,,5f3663dd7dda2100096d4a81,Mężczyzna,19,2021-09-06_18h50.00.878,rantool2,2021.1.4,MacIntel,59.99880002,6135e006383e6ea6c3d06a28,6136468867f6daee16fa44aa,"[""period""]",0,[0.10250000000002046],116,0,116,0,1
,,,,,,,5f3663dd7dda2100096d4a81,,,,,,5f3663dd7dda2100096d4a81,Mężczyzna,19,2021-09-06_18h50.00.878,rantool2,2021.1.4,MacIntel,59.99880002,6135e006383e6ea6c3d06a28,6136468867f6daee16fa44aa,"[""period""]",0,[0.11729999995230855],117,0,117,0,1
,,,,,,,5f3663dd7dda2100096d4a81,,,,,,5f3663dd7dda2100096d4a81,Mężczyzna,19,2021-09-06_18h50.00.878,rantool2,2021.1.4,MacIntel,59.99880002,6135e006383e6ea6c3d06a28,6136468867f6daee16fa44aa,"[""period""]",0,[0.1717000000476787],118,0,118,0,1
,,,,,,,5f3663dd7dda2100096d4a81,,,,,,5f3663dd7dda2100096d4a81,Mężczyzna,19,2021-09-06_18h50.00.878,rantool2,2021.1.4,MacIntel,59.99880002,6135e006383e6ea6c3d06a28,6136468867f6daee16fa44aa,"[""period""]",0,[0.5088000001907176],119,0,119,0,1
