key_resp_7.keys,key_resp_7.rt,trials_2.thisRepN,trials_2.thisTrialN,trials_2.thisN,trials_2.thisIndex,trials_2.ran,id,series_0,series_1,acss_0,acss_1,comparison,id*,Płeć*,Wiek*,date,expName,psychopyVersion,OS,frameRate,STUDY_ID,SESSION_ID,key_resp_5.keys,key_resp_5.corr,key_resp_5.rt,trials.thisRepN,trials.thisTrialN,trials.thisN,trials.thisIndex,trials.ran
j,1.4896,0,0,0,41,1,6130e6f71947d9db1884079b,ROROORO,ROROORR,20.42602454,21.71443381,series_1,6130e6f71947d9db1884079b,Kobieta,18,2021-09-06_18h19.46.534,rantool2,2021.1.4,Win32,59.91970759,6135e006383e6ea6c3d06a28,61363f8bd838829ba29f2929,,,,,,,,
j,2.0835,0,1,1,10,1,6130e6f71947d9db1884079b,OOROROO,OOROROR,21.31236711,21.07490964,series_0,6130e6f71947d9db1884079b,Kobieta,18,2021-09-06_18h19.46.534,rantool2,2021.1.4,Win32,59.91970759,6135e006383e6ea6c3d06a28,61363f8bd838829ba29f2929,,,,,,,,
f,2.711,0,2,2,35,1,6130e6f71947d9db1884079b,ROOORRO,ROOORRR,21.76276513,22.16977179,series_1,6130e6f71947d9db1884079b,Kobieta,18,2021-09-06_18h19.46.534,rantool2,2021.1.4,Win32,59.91970759,6135e006383e6ea6c3d06a28,61363f8bd838829ba29f2929,,,,,,,,
f,1.8767,0,3,3,12,1,6130e6f71947d9db1884079b,OORROOO,OORROOR,21.30250474,22.02786418,series_1,6130e6f71947d9db1884079b,Kobieta,18,2021-09-06_18h19.46.534,rantool2,2021.1.4,Win32,59.91970759,6135e006383e6ea6c3d06a28,61363f8bd838829ba29f2929,,,,,,,,
f,2.0682,0,4,4,42,1,6130e6f71947d9db1884079b,ROROROO,ROROROR,20.39515459,19.8361834,series_0,6130e6f71947d9db1884079b,Kobieta,18,2021-09-06_18h19.46.534,rantool2,2021.1.4,Win32,59.91970759,6135e006383e6ea6c3d06a28,61363f8bd838829ba29f2929,,,,,,,,
f,1.8491,0,5,5,13,1,6130e6f71947d9db1884079b,OORRORO,OORRORR,21.66733484,22.11181017,series_1,6130e6f71947d9db1884079b,Kobieta,18,2021-09-06_18h19.46.534,rantool2,2021.1.4,Win32,59.91970759,6135e006383e6ea6c3d06a28,61363f8bd838829ba29f2929,,,,,,,,
f,2.5588,0,6,6,5,1,6130e6f71947d9db1884079b,OOORORO,OOORORR,20.87963819,21.9921709,series_1,6130e6f71947d9db1884079b,Kobieta,18,2021-09-06_18h19.46.534,rantool2,2021.1.4,Win32,59.91970759,6135e006383e6ea6c3d06a28,61363f8bd838829ba29f2929,,,,,,,,
f,1.8145,0,7,7,18,1,6130e6f71947d9db1884079b,OROOROO,OROOROR,20.84860893,21.22513037,series_1,6130e6f71947d9db1884079b,Kobieta,18,2021-09-06_18h19.46.534,rantool2,2021.1.4,Win32,59.91970759,6135e006383e6ea6c3d06a28,61363f8bd838829ba29f2929,,,,,,,,
f,1.3143,0,8,8,9,1,6130e6f71947d9db1884079b,OOROORO,OOROORR,21.07991943,22.2428857,series_1,6130e6f71947d9db1884079b,Kobieta,18,2021-09-06_18h19.46.534,rantool2,2021.1.4,Win32,59.91970759,6135e006383e6ea6c3d06a28,61363f8bd838829ba29f2929,,,,,,,,
f,1.6885,0,9,9,57,1,6130e6f71947d9db1884079b,RRROORO,RRROORR,21.82425538,22.07102821,series_1,6130e6f71947d9db1884079b,Kobieta,18,2021-09-06_18h19.46.534,rantool2,2021.1.4,Win32,59.91970759,6135e006383e6ea6c3d06a28,61363f8bd838829ba29f2929,,,,,,,,
f,1.982,0,10,10,26,1,6130e6f71947d9db1884079b,ORROROO,ORROROR,22.02732763,21.71443381,series_0,6130e6f71947d9db1884079b,Kobieta,18,2021-09-06_18h19.46.534,rantool2,2021.1.4,Win32,59.91970759,6135e006383e6ea6c3d06a28,61363f8bd838829ba29f2929,,,,,,,,
j,1.6633,0,11,11,54,1,6130e6f71947d9db1884079b,RRORROO,RRORROR,21.55250791,20.9984461,series_0,6130e6f71947d9db1884079b,Kobieta,18,2021-09-06_18h19.46.534,rantool2,2021.1.4,Win32,59.91970759,6135e006383e6ea6c3d06a28,61363f8bd838829ba29f2929,,,,,,,,
f,1.4724,0,12,12,3,1,6130e6f71947d9db1884079b,OOOORRO,OOOORRR,20.90986523,21.74922619,series_1,6130e6f71947d9db1884079b,Kobieta,18,2021-09-06_18h19.46.534,rantool2,2021.1.4,Win32,59.91970759,6135e006383e6ea6c3d06a28,61363f8bd838829ba29f2929,,,,,,,,
j,2.6391,0,13,13,14,1,6130e6f71947d9db1884079b,OORRROO,OORRROR,22.24142883,22.16977179,series_0,6130e6f71947d9db1884079b,Kobieta,18,2021-09-06_18h19.46.534,rantool2,2021.1.4,Win32,59.91970759,6135e006383e6ea6c3d06a28,61363f8bd838829ba29f2929,,,,,,,,
f,2.0505,0,14,14,11,1,6130e6f71947d9db1884079b,OORORRO,OORORRR,22.18365867,22.6797523,series_1,6130e6f71947d9db1884079b,Kobieta,18,2021-09-06_18h19.46.534,rantool2,2021.1.4,Win32,59.91970759,6135e006383e6ea6c3d06a28,61363f8bd838829ba29f2929,,,,,,,,
j,1.8992,0,15,15,51,1,6130e6f71947d9db1884079b,RROORRO,RROORRR,21.89852628,22.02786418,series_1,6130e6f71947d9db1884079b,Kobieta,18,2021-09-06_18h19.46.534,rantool2,2021.1.4,Win32,59.91970759,6135e006383e6ea6c3d06a28,61363f8bd838829ba29f2929,,,,,,,,
j,1.7159,0,16,16,48,1,6130e6f71947d9db1884079b,RROOOOO,RROOOOR,20.90986523,22.15934078,series_1,6130e6f71947d9db1884079b,Kobieta,18,2021-09-06_18h19.46.534,rantool2,2021.1.4,Win32,59.91970759,6135e006383e6ea6c3d06a28,61363f8bd838829ba29f2929,,,,,,,,
f,1.233,0,17,17,32,1,6130e6f71947d9db1884079b,ROOOOOO,ROOOOOR,19.92253567,21.27974287,series_1,6130e6f71947d9db1884079b,Kobieta,18,2021-09-06_18h19.46.534,rantool2,2021.1.4,Win32,59.91970759,6135e006383e6ea6c3d06a28,61363f8bd838829ba29f2929,,,,,,,,
j,1.6338,0,18,18,45,1,6130e6f71947d9db1884079b,RORRORO,RORRORR,20.78182524,21.22513037,series_1,6130e6f71947d9db1884079b,Kobieta,18,2021-09-06_18h19.46.534,rantool2,2021.1.4,Win32,59.91970759,6135e006383e6ea6c3d06a28,61363f8bd838829ba29f2929,,,,,,,,
f,1.4299,0,19,19,2,1,6130e6f71947d9db1884079b,OOOOROO,OOOOROR,20.43051175,21.02936224,series_1,6130e6f71947d9db1884079b,Kobieta,18,2021-09-06_18h19.46.534,rantool2,2021.1.4,Win32,59.91970759,6135e006383e6ea6c3d06a28,61363f8bd838829ba29f2929,,,,,,,,
j,1.418,0,20,20,46,1,6130e6f71947d9db1884079b,RORRROO,RORRROR,22.00300695,21.24781509,series_0,6130e6f71947d9db1884079b,Kobieta,18,2021-09-06_18h19.46.534,rantool2,2021.1.4,Win32,59.91970759,6135e006383e6ea6c3d06a28,61363f8bd838829ba29f2929,,,,,,,,
f,1.4206,0,21,21,52,1,6130e6f71947d9db1884079b,RROROOO,RROROOR,22.18365867,22.11097995,series_0,6130e6f71947d9db1884079b,Kobieta,18,2021-09-06_18h19.46.534,rantool2,2021.1.4,Win32,59.91970759,6135e006383e6ea6c3d06a28,61363f8bd838829ba29f2929,,,,,,,,
j,2.5357,0,22,22,28,1,6130e6f71947d9db1884079b,ORRROOO,ORRROOR,22.24142883,22.53364006,series_1,6130e6f71947d9db1884079b,Kobieta,18,2021-09-06_18h19.46.534,rantool2,2021.1.4,Win32,59.91970759,6135e006383e6ea6c3d06a28,61363f8bd838829ba29f2929,,,,,,,,
f,1.1958,0,23,23,8,1,6130e6f71947d9db1884079b,OOROOOO,OOROOOR,19.91402015,20.89823192,series_1,6130e6f71947d9db1884079b,Kobieta,18,2021-09-06_18h19.46.534,rantool2,2021.1.4,Win32,59.91970759,6135e006383e6ea6c3d06a28,61363f8bd838829ba29f2929,,,,,,,,
j,1.4999,0,24,24,15,1,6130e6f71947d9db1884079b,OORRRRO,OORRRRR,22.10108823,21.74922619,series_0,6130e6f71947d9db1884079b,Kobieta,18,2021-09-06_18h19.46.534,rantool2,2021.1.4,Win32,59.91970759,6135e006383e6ea6c3d06a28,61363f8bd838829ba29f2929,,,,,,,,
f,1.0817,0,25,25,16,1,6130e6f71947d9db1884079b,OROOOOO,OROOOOR,20.43051175,21.17347734,series_1,6130e6f71947d9db1884079b,Kobieta,18,2021-09-06_18h19.46.534,rantool2,2021.1.4,Win32,59.91970759,6135e006383e6ea6c3d06a28,61363f8bd838829ba29f2929,,,,,,,,
j,1.5099,0,26,26,29,1,6130e6f71947d9db1884079b,ORRRORO,ORRRORR,22.00300695,22.12173012,series_1,6130e6f71947d9db1884079b,Kobieta,18,2021-09-06_18h19.46.534,rantool2,2021.1.4,Win32,59.91970759,6135e006383e6ea6c3d06a28,61363f8bd838829ba29f2929,,,,,,,,
j,2.3522,0,27,27,44,1,6130e6f71947d9db1884079b,RORROOO,RORROOR,21.66733484,22.02566557,series_1,6130e6f71947d9db1884079b,Kobieta,18,2021-09-06_18h19.46.534,rantool2,2021.1.4,Win32,59.91970759,6135e006383e6ea6c3d06a28,61363f8bd838829ba29f2929,,,,,,,,
f,0.1527,0,28,28,22,1,6130e6f71947d9db1884079b,ORORROO,ORORROR,22.02732763,21.57657071,series_0,6130e6f71947d9db1884079b,Kobieta,18,2021-09-06_18h19.46.534,rantool2,2021.1.4,Win32,59.91970759,6135e006383e6ea6c3d06a28,61363f8bd838829ba29f2929,,,,,,,,
f,2.448,0,29,29,39,1,6130e6f71947d9db1884079b,ROORRRO,ROORRRR,21.82425538,21.38562617,series_0,6130e6f71947d9db1884079b,Kobieta,18,2021-09-06_18h19.46.534,rantool2,2021.1.4,Win32,59.91970759,6135e006383e6ea6c3d06a28,61363f8bd838829ba29f2929,,,,,,,,
f,1.5673,0,30,30,55,1,6130e6f71947d9db1884079b,RRORRRO,RRORRRR,21.56657303,21.21223021,series_0,6130e6f71947d9db1884079b,Kobieta,18,2021-09-06_18h19.46.534,rantool2,2021.1.4,Win32,59.91970759,6135e006383e6ea6c3d06a28,61363f8bd838829ba29f2929,,,,,,,,
f,1.9381,0,31,31,36,1,6130e6f71947d9db1884079b,ROOROOO,ROOROOR,21.07991943,20.9984461,series_0,6130e6f71947d9db1884079b,Kobieta,18,2021-09-06_18h19.46.534,rantool2,2021.1.4,Win32,59.91970759,6135e006383e6ea6c3d06a28,61363f8bd838829ba29f2929,,,,,,,,
j,1.3506,0,32,32,43,1,6130e6f71947d9db1884079b,RORORRO,RORORRR,20.71309134,21.07490964,series_1,6130e6f71947d9db1884079b,Kobieta,18,2021-09-06_18h19.46.534,rantool2,2021.1.4,Win32,59.91970759,6135e006383e6ea6c3d06a28,61363f8bd838829ba29f2929,,,,,,,,
f,1.1825,0,33,33,40,1,6130e6f71947d9db1884079b,ROROOOO,ROROOOR,20.87963819,21.37121559,series_1,6130e6f71947d9db1884079b,Kobieta,18,2021-09-06_18h19.46.534,rantool2,2021.1.4,Win32,59.91970759,6135e006383e6ea6c3d06a28,61363f8bd838829ba29f2929,,,,,,,,
j,1.2513,0,34,34,4,1,6130e6f71947d9db1884079b,OOOROOO,OOOROOR,19.91402015,21.21223021,series_1,6130e6f71947d9db1884079b,Kobieta,18,2021-09-06_18h19.46.534,rantool2,2021.1.4,Win32,59.91970759,6135e006383e6ea6c3d06a28,61363f8bd838829ba29f2929,,,,,,,,
j,1.6001,0,35,35,33,1,6130e6f71947d9db1884079b,ROOOORO,ROOOORR,20.83779602,22.03072203,series_1,6130e6f71947d9db1884079b,Kobieta,18,2021-09-06_18h19.46.534,rantool2,2021.1.4,Win32,59.91970759,6135e006383e6ea6c3d06a28,61363f8bd838829ba29f2929,,,,,,,,
j,1.4884,0,36,36,7,1,6130e6f71947d9db1884079b,OOORRRO,OOORRRR,21.6194508,21.899017,series_1,6130e6f71947d9db1884079b,Kobieta,18,2021-09-06_18h19.46.534,rantool2,2021.1.4,Win32,59.91970759,6135e006383e6ea6c3d06a28,61363f8bd838829ba29f2929,,,,,,,,
j,1.6767,0,37,37,30,1,6130e6f71947d9db1884079b,ORRRROO,ORRRROR,22.46748491,22.03072203,series_0,6130e6f71947d9db1884079b,Kobieta,18,2021-09-06_18h19.46.534,rantool2,2021.1.4,Win32,59.91970759,6135e006383e6ea6c3d06a28,61363f8bd838829ba29f2929,,,,,,,,
j,1.5352,0,38,38,61,1,6130e6f71947d9db1884079b,RRRRORO,RRRRORR,21.81333602,21.17347734,series_0,6130e6f71947d9db1884079b,Kobieta,18,2021-09-06_18h19.46.534,rantool2,2021.1.4,Win32,59.91970759,6135e006383e6ea6c3d06a28,61363f8bd838829ba29f2929,,,,,,,,
f,2.0438,0,39,39,34,1,6130e6f71947d9db1884079b,ROOOROO,ROOOROR,21.03750787,21.24781509,series_1,6130e6f71947d9db1884079b,Kobieta,18,2021-09-06_18h19.46.534,rantool2,2021.1.4,Win32,59.91970759,6135e006383e6ea6c3d06a28,61363f8bd838829ba29f2929,,,,,,,,
j,1.7395,0,40,40,19,1,6130e6f71947d9db1884079b,OROORRO,OROORRR,21.73568164,22.11181017,series_1,6130e6f71947d9db1884079b,Kobieta,18,2021-09-06_18h19.46.534,rantool2,2021.1.4,Win32,59.91970759,6135e006383e6ea6c3d06a28,61363f8bd838829ba29f2929,,,,,,,,
j,1.4821,0,41,41,60,1,6130e6f71947d9db1884079b,RRRROOO,RRRROOR,22.10108823,22.15934078,series_1,6130e6f71947d9db1884079b,Kobieta,18,2021-09-06_18h19.46.534,rantool2,2021.1.4,Win32,59.91970759,6135e006383e6ea6c3d06a28,61363f8bd838829ba29f2929,,,,,,,,
f,1.8619,0,42,42,50,1,6130e6f71947d9db1884079b,RROOROO,RROOROR,21.73568164,22.02566557,series_1,6130e6f71947d9db1884079b,Kobieta,18,2021-09-06_18h19.46.534,rantool2,2021.1.4,Win32,59.91970759,6135e006383e6ea6c3d06a28,61363f8bd838829ba29f2929,,,,,,,,
f,1.788,0,43,43,20,1,6130e6f71947d9db1884079b,OROROOO,OROROOR,21.31236711,21.90565814,series_1,6130e6f71947d9db1884079b,Kobieta,18,2021-09-06_18h19.46.534,rantool2,2021.1.4,Win32,59.91970759,6135e006383e6ea6c3d06a28,61363f8bd838829ba29f2929,,,,,,,,
f,1.6336,0,44,44,58,1,6130e6f71947d9db1884079b,RRROROO,RRROROR,22.1285618,21.37121559,series_0,6130e6f71947d9db1884079b,Kobieta,18,2021-09-06_18h19.46.534,rantool2,2021.1.4,Win32,59.91970759,6135e006383e6ea6c3d06a28,61363f8bd838829ba29f2929,,,,,,,,
f,1.2644,0,45,45,59,1,6130e6f71947d9db1884079b,RRRORRO,RRRORRR,21.56657303,20.89823192,series_0,6130e6f71947d9db1884079b,Kobieta,18,2021-09-06_18h19.46.534,rantool2,2021.1.4,Win32,59.91970759,6135e006383e6ea6c3d06a28,61363f8bd838829ba29f2929,,,,,,,,
j,1.0648,0,46,46,0,1,6130e6f71947d9db1884079b,OOOOOOO,OOOOOOR,18.52739004,19.62521613,series_1,6130e6f71947d9db1884079b,Kobieta,18,2021-09-06_18h19.46.534,rantool2,2021.1.4,Win32,59.91970759,6135e006383e6ea6c3d06a28,61363f8bd838829ba29f2929,,,,,,,,
j,1.6666,0,47,47,62,1,6130e6f71947d9db1884079b,RRRRROO,RRRRROR,22.16413392,21.27974287,series_0,6130e6f71947d9db1884079b,Kobieta,18,2021-09-06_18h19.46.534,rantool2,2021.1.4,Win32,59.91970759,6135e006383e6ea6c3d06a28,61363f8bd838829ba29f2929,,,,,,,,
j,1.2996,0,48,48,31,1,6130e6f71947d9db1884079b,ORRRRRO,ORRRRRR,22.16413392,20.74050628,series_0,6130e6f71947d9db1884079b,Kobieta,18,2021-09-06_18h19.46.534,rantool2,2021.1.4,Win32,59.91970759,6135e006383e6ea6c3d06a28,61363f8bd838829ba29f2929,,,,,,,,
j,1.7145,0,49,49,37,1,6130e6f71947d9db1884079b,ROORORO,ROORORR,20.42602454,21.57657071,series_1,6130e6f71947d9db1884079b,Kobieta,18,2021-09-06_18h19.46.534,rantool2,2021.1.4,Win32,59.91970759,6135e006383e6ea6c3d06a28,61363f8bd838829ba29f2929,,,,,,,,
j,1.6668,0,50,50,25,1,6130e6f71947d9db1884079b,ORROORO,ORROORR,21.79500819,22.61624387,series_1,6130e6f71947d9db1884079b,Kobieta,18,2021-09-06_18h19.46.534,rantool2,2021.1.4,Win32,59.91970759,6135e006383e6ea6c3d06a28,61363f8bd838829ba29f2929,,,,,,,,
j,1.3642,0,51,51,56,1,6130e6f71947d9db1884079b,RRROOOO,RRROOOR,21.6194508,22.31681875,series_1,6130e6f71947d9db1884079b,Kobieta,18,2021-09-06_18h19.46.534,rantool2,2021.1.4,Win32,59.91970759,6135e006383e6ea6c3d06a28,61363f8bd838829ba29f2929,,,,,,,,
j,1.476,0,52,52,24,1,6130e6f71947d9db1884079b,ORROOOO,ORROOOR,21.12383932,22.07102821,series_1,6130e6f71947d9db1884079b,Kobieta,18,2021-09-06_18h19.46.534,rantool2,2021.1.4,Win32,59.91970759,6135e006383e6ea6c3d06a28,61363f8bd838829ba29f2929,,,,,,,,
f,1.1503,0,53,53,63,1,6130e6f71947d9db1884079b,RRRRRRO,RRRRRRR,21.35278725,19.62521613,series_0,6130e6f71947d9db1884079b,Kobieta,18,2021-09-06_18h19.46.534,rantool2,2021.1.4,Win32,59.91970759,6135e006383e6ea6c3d06a28,61363f8bd838829ba29f2929,,,,,,,,
j,1.2674,0,54,54,6,1,6130e6f71947d9db1884079b,OOORROO,OOORROR,21.12383932,21.38562617,series_1,6130e6f71947d9db1884079b,Kobieta,18,2021-09-06_18h19.46.534,rantool2,2021.1.4,Win32,59.91970759,6135e006383e6ea6c3d06a28,61363f8bd838829ba29f2929,,,,,,,,
f,1.8158,0,55,55,38,1,6130e6f71947d9db1884079b,ROORROO,ROORROR,21.79500819,21.36812781,series_0,6130e6f71947d9db1884079b,Kobieta,18,2021-09-06_18h19.46.534,rantool2,2021.1.4,Win32,59.91970759,6135e006383e6ea6c3d06a28,61363f8bd838829ba29f2929,,,,,,,,
j,1.4696,0,56,56,27,1,6130e6f71947d9db1884079b,ORRORRO,ORRORRR,21.55250791,22.2428857,series_1,6130e6f71947d9db1884079b,Kobieta,18,2021-09-06_18h19.46.534,rantool2,2021.1.4,Win32,59.91970759,6135e006383e6ea6c3d06a28,61363f8bd838829ba29f2929,,,,,,,,
j,2.3331,0,57,57,49,1,6130e6f71947d9db1884079b,RROOORO,RROOORR,21.76276513,22.53364006,series_1,6130e6f71947d9db1884079b,Kobieta,18,2021-09-06_18h19.46.534,rantool2,2021.1.4,Win32,59.91970759,6135e006383e6ea6c3d06a28,61363f8bd838829ba29f2929,,,,,,,,
j,1.255,0,58,58,47,1,6130e6f71947d9db1884079b,RORRRRO,RORRRRR,21.81333602,21.02936224,series_0,6130e6f71947d9db1884079b,Kobieta,18,2021-09-06_18h19.46.534,rantool2,2021.1.4,Win32,59.91970759,6135e006383e6ea6c3d06a28,61363f8bd838829ba29f2929,,,,,,,,
j,1.1776,0,59,59,17,1,6130e6f71947d9db1884079b,OROOORO,OROOORR,21.03750787,22.12173012,series_1,6130e6f71947d9db1884079b,Kobieta,18,2021-09-06_18h19.46.534,rantool2,2021.1.4,Win32,59.91970759,6135e006383e6ea6c3d06a28,61363f8bd838829ba29f2929,,,,,,,,
j,1.1045,0,60,60,23,1,6130e6f71947d9db1884079b,ORORRRO,ORORRRR,22.1285618,21.9921709,series_0,6130e6f71947d9db1884079b,Kobieta,18,2021-09-06_18h19.46.534,rantool2,2021.1.4,Win32,59.91970759,6135e006383e6ea6c3d06a28,61363f8bd838829ba29f2929,,,,,,,,
f,1.1544,0,61,61,53,1,6130e6f71947d9db1884079b,RRORORO,RRORORR,20.71309134,21.90565814,series_1,6130e6f71947d9db1884079b,Kobieta,18,2021-09-06_18h19.46.534,rantool2,2021.1.4,Win32,59.91970759,6135e006383e6ea6c3d06a28,61363f8bd838829ba29f2929,,,,,,,,
f,1.2989,0,62,62,1,1,6130e6f71947d9db1884079b,OOOOORO,OOOOORR,19.92253567,20.74050628,series_1,6130e6f71947d9db1884079b,Kobieta,18,2021-09-06_18h19.46.534,rantool2,2021.1.4,Win32,59.91970759,6135e006383e6ea6c3d06a28,61363f8bd838829ba29f2929,,,,,,,,
f,1.7343,0,63,63,21,1,6130e6f71947d9db1884079b,ORORORO,ORORORR,20.39515459,22.06781359,series_1,6130e6f71947d9db1884079b,Kobieta,18,2021-09-06_18h19.46.534,rantool2,2021.1.4,Win32,59.91970759,6135e006383e6ea6c3d06a28,61363f8bd838829ba29f2929,,,,,,,,
,,,,,,,6130e6f71947d9db1884079b,,,,,,6130e6f71947d9db1884079b,Kobieta,18,2021-09-06_18h19.46.534,rantool2,2021.1.4,Win32,59.91970759,6135e006383e6ea6c3d06a28,61363f8bd838829ba29f2929,0,,,0,0,0,0,1
,,,,,,,6130e6f71947d9db1884079b,,,,,,6130e6f71947d9db1884079b,Kobieta,18,2021-09-06_18h19.46.534,rantool2,2021.1.4,Win32,59.91970759,6135e006383e6ea6c3d06a28,61363f8bd838829ba29f2929,"[""comma""]",0,[0.3675999999046269],1,0,1,0,1
,,,,,,,6130e6f71947d9db1884079b,,,,,,6130e6f71947d9db1884079b,Kobieta,18,2021-09-06_18h19.46.534,rantool2,2021.1.4,Win32,59.91970759,6135e006383e6ea6c3d06a28,61363f8bd838829ba29f2929,"[""period""]",0,[0.46790000009536925],2,0,2,0,1
,,,,,,,6130e6f71947d9db1884079b,,,,,,6130e6f71947d9db1884079b,Kobieta,18,2021-09-06_18h19.46.534,rantool2,2021.1.4,Win32,59.91970759,6135e006383e6ea6c3d06a28,61363f8bd838829ba29f2929,"[""period""]",0,[0.6724000000953652],3,0,3,0,1
,,,,,,,6130e6f71947d9db1884079b,,,,,,6130e6f71947d9db1884079b,Kobieta,18,2021-09-06_18h19.46.534,rantool2,2021.1.4,Win32,59.91970759,6135e006383e6ea6c3d06a28,61363f8bd838829ba29f2929,"[""period""]",0,[0.852499999999992],4,0,4,0,1
,,,,,,,6130e6f71947d9db1884079b,,,,,,6130e6f71947d9db1884079b,Kobieta,18,2021-09-06_18h19.46.534,rantool2,2021.1.4,Win32,59.91970759,6135e006383e6ea6c3d06a28,61363f8bd838829ba29f2929,"[""comma""]",0,[0.48940000009537243],5,0,5,0,1
,,,,,,,6130e6f71947d9db1884079b,,,,,,6130e6f71947d9db1884079b,Kobieta,18,2021-09-06_18h19.46.534,rantool2,2021.1.4,Win32,59.91970759,6135e006383e6ea6c3d06a28,61363f8bd838829ba29f2929,0,0,,6,0,6,0,1
,,,,,,,6130e6f71947d9db1884079b,,,,,,6130e6f71947d9db1884079b,Kobieta,18,2021-09-06_18h19.46.534,rantool2,2021.1.4,Win32,59.91970759,6135e006383e6ea6c3d06a28,61363f8bd838829ba29f2929,"[""comma""]",0,[0.2511999998092733],7,0,7,0,1
,,,,,,,6130e6f71947d9db1884079b,,,,,,6130e6f71947d9db1884079b,Kobieta,18,2021-09-06_18h19.46.534,rantool2,2021.1.4,Win32,59.91970759,6135e006383e6ea6c3d06a28,61363f8bd838829ba29f2929,"[""comma""]",0,[0.3535999999046453],8,0,8,0,1
,,,,,,,6130e6f71947d9db1884079b,,,,,,6130e6f71947d9db1884079b,Kobieta,18,2021-09-06_18h19.46.534,rantool2,2021.1.4,Win32,59.91970759,6135e006383e6ea6c3d06a28,61363f8bd838829ba29f2929,"[""comma""]",0,[0.4186999998092631],9,0,9,0,1
,,,,,,,6130e6f71947d9db1884079b,,,,,,6130e6f71947d9db1884079b,Kobieta,18,2021-09-06_18h19.46.534,rantool2,2021.1.4,Win32,59.91970759,6135e006383e6ea6c3d06a28,61363f8bd838829ba29f2929,"[""comma""]",0,[0.585099999904628],10,0,10,0,1
,,,,,,,6130e6f71947d9db1884079b,,,,,,6130e6f71947d9db1884079b,Kobieta,18,2021-09-06_18h19.46.534,rantool2,2021.1.4,Win32,59.91970759,6135e006383e6ea6c3d06a28,61363f8bd838829ba29f2929,"[""period""]",0,[0.2539999999999907],11,0,11,0,1
,,,,,,,6130e6f71947d9db1884079b,,,,,,6130e6f71947d9db1884079b,Kobieta,18,2021-09-06_18h19.46.534,rantool2,2021.1.4,Win32,59.91970759,6135e006383e6ea6c3d06a28,61363f8bd838829ba29f2929,"[""comma""]",0,[0.8179999999999836],12,0,12,0,1
,,,,,,,6130e6f71947d9db1884079b,,,,,,6130e6f71947d9db1884079b,Kobieta,18,2021-09-06_18h19.46.534,rantool2,2021.1.4,Win32,59.91970759,6135e006383e6ea6c3d06a28,61363f8bd838829ba29f2929,"[""period""]",0,[0.41799999999997794],13,0,13,0,1
,,,,,,,6130e6f71947d9db1884079b,,,,,,6130e6f71947d9db1884079b,Kobieta,18,2021-09-06_18h19.46.534,rantool2,2021.1.4,Win32,59.91970759,6135e006383e6ea6c3d06a28,61363f8bd838829ba29f2929,"[""comma""]",0,[0.28650000000001796],14,0,14,0,1
,,,,,,,6130e6f71947d9db1884079b,,,,,,6130e6f71947d9db1884079b,Kobieta,18,2021-09-06_18h19.46.534,rantool2,2021.1.4,Win32,59.91970759,6135e006383e6ea6c3d06a28,61363f8bd838829ba29f2929,"[""period""]",0,[0.267400000095364],15,0,15,0,1
,,,,,,,6130e6f71947d9db1884079b,,,,,,6130e6f71947d9db1884079b,Kobieta,18,2021-09-06_18h19.46.534,rantool2,2021.1.4,Win32,59.91970759,6135e006383e6ea6c3d06a28,61363f8bd838829ba29f2929,"[""period""]",0,[0.4077999997138875],16,0,16,0,1
,,,,,,,6130e6f71947d9db1884079b,,,,,,6130e6f71947d9db1884079b,Kobieta,18,2021-09-06_18h19.46.534,rantool2,2021.1.4,Win32,59.91970759,6135e006383e6ea6c3d06a28,61363f8bd838829ba29f2929,"[""period""]",0,[0.507000000000005],17,0,17,0,1
,,,,,,,6130e6f71947d9db1884079b,,,,,,6130e6f71947d9db1884079b,Kobieta,18,2021-09-06_18h19.46.534,rantool2,2021.1.4,Win32,59.91970759,6135e006383e6ea6c3d06a28,61363f8bd838829ba29f2929,"[""comma""]",0,[0.710300000190756],18,0,18,0,1
,,,,,,,6130e6f71947d9db1884079b,,,,,,6130e6f71947d9db1884079b,Kobieta,18,2021-09-06_18h19.46.534,rantool2,2021.1.4,Win32,59.91970759,6135e006383e6ea6c3d06a28,61363f8bd838829ba29f2929,"[""period""]",0,[0.902699999809272],19,0,19,0,1
,,,,,,,6130e6f71947d9db1884079b,,,,,,6130e6f71947d9db1884079b,Kobieta,18,2021-09-06_18h19.46.534,rantool2,2021.1.4,Win32,59.91970759,6135e006383e6ea6c3d06a28,61363f8bd838829ba29f2929,"[""comma""]",0,[0.27519999980927423],20,0,20,0,1
,,,,,,,6130e6f71947d9db1884079b,,,,,,6130e6f71947d9db1884079b,Kobieta,18,2021-09-06_18h19.46.534,rantool2,2021.1.4,Win32,59.91970759,6135e006383e6ea6c3d06a28,61363f8bd838829ba29f2929,"[""period""]",0,[0.32430000019076033],21,0,21,0,1
,,,,,,,6130e6f71947d9db1884079b,,,,,,6130e6f71947d9db1884079b,Kobieta,18,2021-09-06_18h19.46.534,rantool2,2021.1.4,Win32,59.91970759,6135e006383e6ea6c3d06a28,61363f8bd838829ba29f2929,"[""comma""]",0,[0.35019999980926286],22,0,22,0,1
,,,,,,,6130e6f71947d9db1884079b,,,,,,6130e6f71947d9db1884079b,Kobieta,18,2021-09-06_18h19.46.534,rantool2,2021.1.4,Win32,59.91970759,6135e006383e6ea6c3d06a28,61363f8bd838829ba29f2929,"[""period""]",0,[0.29079999971389725],23,0,23,0,1
,,,,,,,6130e6f71947d9db1884079b,,,,,,6130e6f71947d9db1884079b,Kobieta,18,2021-09-06_18h19.46.534,rantool2,2021.1.4,Win32,59.91970759,6135e006383e6ea6c3d06a28,61363f8bd838829ba29f2929,"[""period""]",0,[0.28419999980923194],24,0,24,0,1
,,,,,,,6130e6f71947d9db1884079b,,,,,,6130e6f71947d9db1884079b,Kobieta,18,2021-09-06_18h19.46.534,rantool2,2021.1.4,Win32,59.91970759,6135e006383e6ea6c3d06a28,61363f8bd838829ba29f2929,"[""period""]",0,[0.41800000000000637],25,0,25,0,1
,,,,,,,6130e6f71947d9db1884079b,,,,,,6130e6f71947d9db1884079b,Kobieta,18,2021-09-06_18h19.46.534,rantool2,2021.1.4,Win32,59.91970759,6135e006383e6ea6c3d06a28,61363f8bd838829ba29f2929,"[""comma""]",0,[0.45150000000001],26,0,26,0,1
,,,,,,,6130e6f71947d9db1884079b,,,,,,6130e6f71947d9db1884079b,Kobieta,18,2021-09-06_18h19.46.534,rantool2,2021.1.4,Win32,59.91970759,6135e006383e6ea6c3d06a28,61363f8bd838829ba29f2929,"[""period""]",0,[0.6582999997139041],27,0,27,0,1
,,,,,,,6130e6f71947d9db1884079b,,,,,,6130e6f71947d9db1884079b,Kobieta,18,2021-09-06_18h19.46.534,rantool2,2021.1.4,Win32,59.91970759,6135e006383e6ea6c3d06a28,61363f8bd838829ba29f2929,"[""period""]",0,[0.835099999904628],28,0,28,0,1
,,,,,,,6130e6f71947d9db1884079b,,,,,,6130e6f71947d9db1884079b,Kobieta,18,2021-09-06_18h19.46.534,rantool2,2021.1.4,Win32,59.91970759,6135e006383e6ea6c3d06a28,61363f8bd838829ba29f2929,"[""comma""]",0,[0.26069999980927605],29,0,29,0,1
,,,,,,,6130e6f71947d9db1884079b,,,,,,6130e6f71947d9db1884079b,Kobieta,18,2021-09-06_18h19.46.534,rantool2,2021.1.4,Win32,59.91970759,6135e006383e6ea6c3d06a28,61363f8bd838829ba29f2929,"[""period""]",0,[0.25109999990462484],30,0,30,0,1
,,,,,,,6130e6f71947d9db1884079b,,,,,,6130e6f71947d9db1884079b,Kobieta,18,2021-09-06_18h19.46.534,rantool2,2021.1.4,Win32,59.91970759,6135e006383e6ea6c3d06a28,61363f8bd838829ba29f2929,"[""comma""]",0,[0.2370000000000232],31,0,31,0,1
,,,,,,,6130e6f71947d9db1884079b,,,,,,6130e6f71947d9db1884079b,Kobieta,18,2021-09-06_18h19.46.534,rantool2,2021.1.4,Win32,59.91970759,6135e006383e6ea6c3d06a28,61363f8bd838829ba29f2929,"[""comma""]",0,[0.2513000001907244],32,0,32,0,1
,,,,,,,6130e6f71947d9db1884079b,,,,,,6130e6f71947d9db1884079b,Kobieta,18,2021-09-06_18h19.46.534,rantool2,2021.1.4,Win32,59.91970759,6135e006383e6ea6c3d06a28,61363f8bd838829ba29f2929,"[""comma""]",0,[0.33499999999997954],33,0,33,0,1
,,,,,,,6130e6f71947d9db1884079b,,,,,,6130e6f71947d9db1884079b,Kobieta,18,2021-09-06_18h19.46.534,rantool2,2021.1.4,Win32,59.91970759,6135e006383e6ea6c3d06a28,61363f8bd838829ba29f2929,"[""comma""]",0,[0.30180000019072395],34,0,34,0,1
,,,,,,,6130e6f71947d9db1884079b,,,,,,6130e6f71947d9db1884079b,Kobieta,18,2021-09-06_18h19.46.534,rantool2,2021.1.4,Win32,59.91970759,6135e006383e6ea6c3d06a28,61363f8bd838829ba29f2929,"[""period""]",0,[0.5706999998092783],35,0,35,0,1
,,,,,,,6130e6f71947d9db1884079b,,,,,,6130e6f71947d9db1884079b,Kobieta,18,2021-09-06_18h19.46.534,rantool2,2021.1.4,Win32,59.91970759,6135e006383e6ea6c3d06a28,61363f8bd838829ba29f2929,"[""period""]",0,[0.6746999998092633],36,0,36,0,1
,,,,,,,6130e6f71947d9db1884079b,,,,,,6130e6f71947d9db1884079b,Kobieta,18,2021-09-06_18h19.46.534,rantool2,2021.1.4,Win32,59.91970759,6135e006383e6ea6c3d06a28,61363f8bd838829ba29f2929,"[""comma""]",0,[0.774300000190749],37,0,37,0,1
,,,,,,,6130e6f71947d9db1884079b,,,,,,6130e6f71947d9db1884079b,Kobieta,18,2021-09-06_18h19.46.534,rantool2,2021.1.4,Win32,59.91970759,6135e006383e6ea6c3d06a28,61363f8bd838829ba29f2929,"[""period""]",0,[0.28979999971386405],38,0,38,0,1
,,,,,,,6130e6f71947d9db1884079b,,,,,,6130e6f71947d9db1884079b,Kobieta,18,2021-09-06_18h19.46.534,rantool2,2021.1.4,Win32,59.91970759,6135e006383e6ea6c3d06a28,61363f8bd838829ba29f2929,"[""comma""]",0,[0.4782000002861082],39,0,39,0,1
,,,,,,,6130e6f71947d9db1884079b,,,,,,6130e6f71947d9db1884079b,Kobieta,18,2021-09-06_18h19.46.534,rantool2,2021.1.4,Win32,59.91970759,6135e006383e6ea6c3d06a28,61363f8bd838829ba29f2929,"[""period""]",0,[0.2514000000953729],40,0,40,0,1
,,,,,,,6130e6f71947d9db1884079b,,,,,,6130e6f71947d9db1884079b,Kobieta,18,2021-09-06_18h19.46.534,rantool2,2021.1.4,Win32,59.91970759,6135e006383e6ea6c3d06a28,61363f8bd838829ba29f2929,"[""period""]",0,[0.3777000002860973],41,0,41,0,1
,,,,,,,6130e6f71947d9db1884079b,,,,,,6130e6f71947d9db1884079b,Kobieta,18,2021-09-06_18h19.46.534,rantool2,2021.1.4,Win32,59.91970759,6135e006383e6ea6c3d06a28,61363f8bd838829ba29f2929,"[""comma""]",0,[0.33460000038144244],42,0,42,0,1
,,,,,,,6130e6f71947d9db1884079b,,,,,,6130e6f71947d9db1884079b,Kobieta,18,2021-09-06_18h19.46.534,rantool2,2021.1.4,Win32,59.91970759,6135e006383e6ea6c3d06a28,61363f8bd838829ba29f2929,"[""period""]",0,[0.27240000009533105],43,0,43,0,1
,,,,,,,6130e6f71947d9db1884079b,,,,,,6130e6f71947d9db1884079b,Kobieta,18,2021-09-06_18h19.46.534,rantool2,2021.1.4,Win32,59.91970759,6135e006383e6ea6c3d06a28,61363f8bd838829ba29f2929,"[""period""]",0,[0.27679999971388725],44,0,44,0,1
,,,,,,,6130e6f71947d9db1884079b,,,,,,6130e6f71947d9db1884079b,Kobieta,18,2021-09-06_18h19.46.534,rantool2,2021.1.4,Win32,59.91970759,6135e006383e6ea6c3d06a28,61363f8bd838829ba29f2929,"[""comma""]",0,[0.5346999998092201],45,0,45,0,1
,,,,,,,6130e6f71947d9db1884079b,,,,,,6130e6f71947d9db1884079b,Kobieta,18,2021-09-06_18h19.46.534,rantool2,2021.1.4,Win32,59.91970759,6135e006383e6ea6c3d06a28,61363f8bd838829ba29f2929,"[""period""]",0,[0.4186000003814456],46,0,46,0,1
,,,,,,,6130e6f71947d9db1884079b,,,,,,6130e6f71947d9db1884079b,Kobieta,18,2021-09-06_18h19.46.534,rantool2,2021.1.4,Win32,59.91970759,6135e006383e6ea6c3d06a28,61363f8bd838829ba29f2929,"[""period""]",0,[0.28440000009538835],47,0,47,0,1
,,,,,,,6130e6f71947d9db1884079b,,,,,,6130e6f71947d9db1884079b,Kobieta,18,2021-09-06_18h19.46.534,rantool2,2021.1.4,Win32,59.91970759,6135e006383e6ea6c3d06a28,61363f8bd838829ba29f2929,"[""comma""]",0,[0.27050000000002683],48,0,48,0,1
,,,,,,,6130e6f71947d9db1884079b,,,,,,6130e6f71947d9db1884079b,Kobieta,18,2021-09-06_18h19.46.534,rantool2,2021.1.4,Win32,59.91970759,6135e006383e6ea6c3d06a28,61363f8bd838829ba29f2929,"[""period""]",0,[0.25380000019072213],49,0,49,0,1
,,,,,,,6130e6f71947d9db1884079b,,,,,,6130e6f71947d9db1884079b,Kobieta,18,2021-09-06_18h19.46.534,rantool2,2021.1.4,Win32,59.91970759,6135e006383e6ea6c3d06a28,61363f8bd838829ba29f2929,"[""comma""]",0,[0.2840999999046403],50,0,50,0,1
,,,,,,,6130e6f71947d9db1884079b,,,,,,6130e6f71947d9db1884079b,Kobieta,18,2021-09-06_18h19.46.534,rantool2,2021.1.4,Win32,59.91970759,6135e006383e6ea6c3d06a28,61363f8bd838829ba29f2929,"[""period""]",0,[0.27169999980930015],51,0,51,0,1
,,,,,,,6130e6f71947d9db1884079b,,,,,,6130e6f71947d9db1884079b,Kobieta,18,2021-09-06_18h19.46.534,rantool2,2021.1.4,Win32,59.91970759,6135e006383e6ea6c3d06a28,61363f8bd838829ba29f2929,"[""period""]",0,[0.2347000002860682],52,0,52,0,1
,,,,,,,6130e6f71947d9db1884079b,,,,,,6130e6f71947d9db1884079b,Kobieta,18,2021-09-06_18h19.46.534,rantool2,2021.1.4,Win32,59.91970759,6135e006383e6ea6c3d06a28,61363f8bd838829ba29f2929,"[""period""]",0,[0.21519999980927196],53,0,53,0,1
,,,,,,,6130e6f71947d9db1884079b,,,,,,6130e6f71947d9db1884079b,Kobieta,18,2021-09-06_18h19.46.534,rantool2,2021.1.4,Win32,59.91970759,6135e006383e6ea6c3d06a28,61363f8bd838829ba29f2929,"[""period""]",0,[0.3013000001907358],54,0,54,0,1
,,,,,,,6130e6f71947d9db1884079b,,,,,,6130e6f71947d9db1884079b,Kobieta,18,2021-09-06_18h19.46.534,rantool2,2021.1.4,Win32,59.91970759,6135e006383e6ea6c3d06a28,61363f8bd838829ba29f2929,"[""period""]",0,[0.28449999999998],55,0,55,0,1
,,,,,,,6130e6f71947d9db1884079b,,,,,,6130e6f71947d9db1884079b,Kobieta,18,2021-09-06_18h19.46.534,rantool2,2021.1.4,Win32,59.91970759,6135e006383e6ea6c3d06a28,61363f8bd838829ba29f2929,"[""comma""]",0,[0.37690000009536107],56,0,56,0,1
,,,,,,,6130e6f71947d9db1884079b,,,,,,6130e6f71947d9db1884079b,Kobieta,18,2021-09-06_18h19.46.534,rantool2,2021.1.4,Win32,59.91970759,6135e006383e6ea6c3d06a28,61363f8bd838829ba29f2929,"[""comma""]",0,[0.2579000000953897],57,0,57,0,1
,,,,,,,6130e6f71947d9db1884079b,,,,,,6130e6f71947d9db1884079b,Kobieta,18,2021-09-06_18h19.46.534,rantool2,2021.1.4,Win32,59.91970759,6135e006383e6ea6c3d06a28,61363f8bd838829ba29f2929,"[""period""]",0,[0.2689999999999486],58,0,58,0,1
,,,,,,,6130e6f71947d9db1884079b,,,,,,6130e6f71947d9db1884079b,Kobieta,18,2021-09-06_18h19.46.534,rantool2,2021.1.4,Win32,59.91970759,6135e006383e6ea6c3d06a28,61363f8bd838829ba29f2929,"[""comma""]",0,[0.2715000000000032],59,0,59,0,1
,,,,,,,6130e6f71947d9db1884079b,,,,,,6130e6f71947d9db1884079b,Kobieta,18,2021-09-06_18h19.46.534,rantool2,2021.1.4,Win32,59.91970759,6135e006383e6ea6c3d06a28,61363f8bd838829ba29f2929,"[""comma""]",0,[0.47119999980924376],60,0,60,0,1
,,,,,,,6130e6f71947d9db1884079b,,,,,,6130e6f71947d9db1884079b,Kobieta,18,2021-09-06_18h19.46.534,rantool2,2021.1.4,Win32,59.91970759,6135e006383e6ea6c3d06a28,61363f8bd838829ba29f2929,"[""period""]",0,[0.2752999997138659],61,0,61,0,1
,,,,,,,6130e6f71947d9db1884079b,,,,,,6130e6f71947d9db1884079b,Kobieta,18,2021-09-06_18h19.46.534,rantool2,2021.1.4,Win32,59.91970759,6135e006383e6ea6c3d06a28,61363f8bd838829ba29f2929,"[""comma""]",0,[0.26769999980928105],62,0,62,0,1
,,,,,,,6130e6f71947d9db1884079b,,,,,,6130e6f71947d9db1884079b,Kobieta,18,2021-09-06_18h19.46.534,rantool2,2021.1.4,Win32,59.91970759,6135e006383e6ea6c3d06a28,61363f8bd838829ba29f2929,"[""period""]",0,[0.23989999961850117],63,0,63,0,1
,,,,,,,6130e6f71947d9db1884079b,,,,,,6130e6f71947d9db1884079b,Kobieta,18,2021-09-06_18h19.46.534,rantool2,2021.1.4,Win32,59.91970759,6135e006383e6ea6c3d06a28,61363f8bd838829ba29f2929,"[""period""]",0,[0.23579999971389043],64,0,64,0,1
,,,,,,,6130e6f71947d9db1884079b,,,,,,6130e6f71947d9db1884079b,Kobieta,18,2021-09-06_18h19.46.534,rantool2,2021.1.4,Win32,59.91970759,6135e006383e6ea6c3d06a28,61363f8bd838829ba29f2929,"[""comma""]",0,[0.34990000009537425],65,0,65,0,1
,,,,,,,6130e6f71947d9db1884079b,,,,,,6130e6f71947d9db1884079b,Kobieta,18,2021-09-06_18h19.46.534,rantool2,2021.1.4,Win32,59.91970759,6135e006383e6ea6c3d06a28,61363f8bd838829ba29f2929,"[""period""]",0,[0.28909999990463575],66,0,66,0,1
,,,,,,,6130e6f71947d9db1884079b,,,,,,6130e6f71947d9db1884079b,Kobieta,18,2021-09-06_18h19.46.534,rantool2,2021.1.4,Win32,59.91970759,6135e006383e6ea6c3d06a28,61363f8bd838829ba29f2929,"[""comma""]",0,[0.45440000009540427],67,0,67,0,1
,,,,,,,6130e6f71947d9db1884079b,,,,,,6130e6f71947d9db1884079b,Kobieta,18,2021-09-06_18h19.46.534,rantool2,2021.1.4,Win32,59.91970759,6135e006383e6ea6c3d06a28,61363f8bd838829ba29f2929,"[""comma""]",0,[0.26480000019074623],68,0,68,0,1
,,,,,,,6130e6f71947d9db1884079b,,,,,,6130e6f71947d9db1884079b,Kobieta,18,2021-09-06_18h19.46.534,rantool2,2021.1.4,Win32,59.91970759,6135e006383e6ea6c3d06a28,61363f8bd838829ba29f2929,"[""comma""]",0,[0.2529999999999859],69,0,69,0,1
,,,,,,,6130e6f71947d9db1884079b,,,,,,6130e6f71947d9db1884079b,Kobieta,18,2021-09-06_18h19.46.534,rantool2,2021.1.4,Win32,59.91970759,6135e006383e6ea6c3d06a28,61363f8bd838829ba29f2929,"[""comma""]",0,[0.33880000019070167],70,0,70,0,1
,,,,,,,6130e6f71947d9db1884079b,,,,,,6130e6f71947d9db1884079b,Kobieta,18,2021-09-06_18h19.46.534,rantool2,2021.1.4,Win32,59.91970759,6135e006383e6ea6c3d06a28,61363f8bd838829ba29f2929,"[""period""]",0,[0.3344000000953429],71,0,71,0,1
,,,,,,,6130e6f71947d9db1884079b,,,,,,6130e6f71947d9db1884079b,Kobieta,18,2021-09-06_18h19.46.534,rantool2,2021.1.4,Win32,59.91970759,6135e006383e6ea6c3d06a28,61363f8bd838829ba29f2929,"[""period""]",0,[0.31110000038148655],72,0,72,0,1
,,,,,,,6130e6f71947d9db1884079b,,,,,,6130e6f71947d9db1884079b,Kobieta,18,2021-09-06_18h19.46.534,rantool2,2021.1.4,Win32,59.91970759,6135e006383e6ea6c3d06a28,61363f8bd838829ba29f2929,"[""comma""]",0,[0.28150000000005093],73,0,73,0,1
,,,,,,,6130e6f71947d9db1884079b,,,,,,6130e6f71947d9db1884079b,Kobieta,18,2021-09-06_18h19.46.534,rantool2,2021.1.4,Win32,59.91970759,6135e006383e6ea6c3d06a28,61363f8bd838829ba29f2929,"[""period""]",0,[0.25859999990467486],74,0,74,0,1
,,,,,,,6130e6f71947d9db1884079b,,,,,,6130e6f71947d9db1884079b,Kobieta,18,2021-09-06_18h19.46.534,rantool2,2021.1.4,Win32,59.91970759,6135e006383e6ea6c3d06a28,61363f8bd838829ba29f2929,"[""period""]",0,[0.24160000038148155],75,0,75,0,1
,,,,,,,6130e6f71947d9db1884079b,,,,,,6130e6f71947d9db1884079b,Kobieta,18,2021-09-06_18h19.46.534,rantool2,2021.1.4,Win32,59.91970759,6135e006383e6ea6c3d06a28,61363f8bd838829ba29f2929,"[""period""]",0,[0.2422000002861182],76,0,76,0,1
,,,,,,,6130e6f71947d9db1884079b,,,,,,6130e6f71947d9db1884079b,Kobieta,18,2021-09-06_18h19.46.534,rantool2,2021.1.4,Win32,59.91970759,6135e006383e6ea6c3d06a28,61363f8bd838829ba29f2929,"[""comma""]",0,[0.45809999990461847],77,0,77,0,1
,,,,,,,6130e6f71947d9db1884079b,,,,,,6130e6f71947d9db1884079b,Kobieta,18,2021-09-06_18h19.46.534,rantool2,2021.1.4,Win32,59.91970759,6135e006383e6ea6c3d06a28,61363f8bd838829ba29f2929,"[""period""]",0,[0.44219999980930424],78,0,78,0,1
,,,,,,,6130e6f71947d9db1884079b,,,,,,6130e6f71947d9db1884079b,Kobieta,18,2021-09-06_18h19.46.534,rantool2,2021.1.4,Win32,59.91970759,6135e006383e6ea6c3d06a28,61363f8bd838829ba29f2929,"[""comma""]",0,[0.3227999997138795],79,0,79,0,1
,,,,,,,6130e6f71947d9db1884079b,,,,,,6130e6f71947d9db1884079b,Kobieta,18,2021-09-06_18h19.46.534,rantool2,2021.1.4,Win32,59.91970759,6135e006383e6ea6c3d06a28,61363f8bd838829ba29f2929,"[""comma""]",0,[0.27630000019070167],80,0,80,0,1
,,,,,,,6130e6f71947d9db1884079b,,,,,,6130e6f71947d9db1884079b,Kobieta,18,2021-09-06_18h19.46.534,rantool2,2021.1.4,Win32,59.91970759,6135e006383e6ea6c3d06a28,61363f8bd838829ba29f2929,"[""comma""]",0,[0.285000000000025],81,0,81,0,1
,,,,,,,6130e6f71947d9db1884079b,,,,,,6130e6f71947d9db1884079b,Kobieta,18,2021-09-06_18h19.46.534,rantool2,2021.1.4,Win32,59.91970759,6135e006383e6ea6c3d06a28,61363f8bd838829ba29f2929,"[""comma""]",0,[0.26820000028612867],82,0,82,0,1
,,,,,,,6130e6f71947d9db1884079b,,,,,,6130e6f71947d9db1884079b,Kobieta,18,2021-09-06_18h19.46.534,rantool2,2021.1.4,Win32,59.91970759,6135e006383e6ea6c3d06a28,61363f8bd838829ba29f2929,"[""period""]",0,[0.28649999999998954],83,0,83,0,1
,,,,,,,6130e6f71947d9db1884079b,,,,,,6130e6f71947d9db1884079b,Kobieta,18,2021-09-06_18h19.46.534,rantool2,2021.1.4,Win32,59.91970759,6135e006383e6ea6c3d06a28,61363f8bd838829ba29f2929,"[""comma""]",0,[0.3014999999999759],84,0,84,0,1
,,,,,,,6130e6f71947d9db1884079b,,,,,,6130e6f71947d9db1884079b,Kobieta,18,2021-09-06_18h19.46.534,rantool2,2021.1.4,Win32,59.91970759,6135e006383e6ea6c3d06a28,61363f8bd838829ba29f2929,"[""comma""]",0,[0.263499999999965],85,0,85,0,1
,,,,,,,6130e6f71947d9db1884079b,,,,,,6130e6f71947d9db1884079b,Kobieta,18,2021-09-06_18h19.46.534,rantool2,2021.1.4,Win32,59.91970759,6135e006383e6ea6c3d06a28,61363f8bd838829ba29f2929,"[""period""]",0,[0.28480000019072804],86,0,86,0,1
,,,,,,,6130e6f71947d9db1884079b,,,,,,6130e6f71947d9db1884079b,Kobieta,18,2021-09-06_18h19.46.534,rantool2,2021.1.4,Win32,59.91970759,6135e006383e6ea6c3d06a28,61363f8bd838829ba29f2929,"[""comma""]",0,[0.3864000000953638],87,0,87,0,1
,,,,,,,6130e6f71947d9db1884079b,,,,,,6130e6f71947d9db1884079b,Kobieta,18,2021-09-06_18h19.46.534,rantool2,2021.1.4,Win32,59.91970759,6135e006383e6ea6c3d06a28,61363f8bd838829ba29f2929,"[""period""]",0,[0.23959999990461256],88,0,88,0,1
,,,,,,,6130e6f71947d9db1884079b,,,,,,6130e6f71947d9db1884079b,Kobieta,18,2021-09-06_18h19.46.534,rantool2,2021.1.4,Win32,59.91970759,6135e006383e6ea6c3d06a28,61363f8bd838829ba29f2929,"[""comma""]",0,[0.26030000019073896],89,0,89,0,1
,,,,,,,6130e6f71947d9db1884079b,,,,,,6130e6f71947d9db1884079b,Kobieta,18,2021-09-06_18h19.46.534,rantool2,2021.1.4,Win32,59.91970759,6135e006383e6ea6c3d06a28,61363f8bd838829ba29f2929,"[""period""]",0,[0.35440000009538153],90,0,90,0,1
,,,,,,,6130e6f71947d9db1884079b,,,,,,6130e6f71947d9db1884079b,Kobieta,18,2021-09-06_18h19.46.534,rantool2,2021.1.4,Win32,59.91970759,6135e006383e6ea6c3d06a28,61363f8bd838829ba29f2929,"[""comma""]",0,[0.269200000286105],91,0,91,0,1
,,,,,,,6130e6f71947d9db1884079b,,,,,,6130e6f71947d9db1884079b,Kobieta,18,2021-09-06_18h19.46.534,rantool2,2021.1.4,Win32,59.91970759,6135e006383e6ea6c3d06a28,61363f8bd838829ba29f2929,"[""comma""]",0,[0.3194000000953565],92,0,92,0,1
,,,,,,,6130e6f71947d9db1884079b,,,,,,6130e6f71947d9db1884079b,Kobieta,18,2021-09-06_18h19.46.534,rantool2,2021.1.4,Win32,59.91970759,6135e006383e6ea6c3d06a28,61363f8bd838829ba29f2929,"[""comma""]",0,[0.2601999998092879],93,0,93,0,1
,,,,,,,6130e6f71947d9db1884079b,,,,,,6130e6f71947d9db1884079b,Kobieta,18,2021-09-06_18h19.46.534,rantool2,2021.1.4,Win32,59.91970759,6135e006383e6ea6c3d06a28,61363f8bd838829ba29f2929,"[""comma""]",0,[0.26730000019074396],94,0,94,0,1
,,,,,,,6130e6f71947d9db1884079b,,,,,,6130e6f71947d9db1884079b,Kobieta,18,2021-09-06_18h19.46.534,rantool2,2021.1.4,Win32,59.91970759,6135e006383e6ea6c3d06a28,61363f8bd838829ba29f2929,"[""period""]",0,[0.2985999999046385],95,0,95,0,1
,,,,,,,6130e6f71947d9db1884079b,,,,,,6130e6f71947d9db1884079b,Kobieta,18,2021-09-06_18h19.46.534,rantool2,2021.1.4,Win32,59.91970759,6135e006383e6ea6c3d06a28,61363f8bd838829ba29f2929,"[""comma""]",0,[0.2839000000954002],96,0,96,0,1
,,,,,,,6130e6f71947d9db1884079b,,,,,,6130e6f71947d9db1884079b,Kobieta,18,2021-09-06_18h19.46.534,rantool2,2021.1.4,Win32,59.91970759,6135e006383e6ea6c3d06a28,61363f8bd838829ba29f2929,"[""period""]",0,[0.22740000009537198],97,0,97,0,1
,,,,,,,6130e6f71947d9db1884079b,,,,,,6130e6f71947d9db1884079b,Kobieta,18,2021-09-06_18h19.46.534,rantool2,2021.1.4,Win32,59.91970759,6135e006383e6ea6c3d06a28,61363f8bd838829ba29f2929,"[""comma""]",0,[0.2868000001907376],98,0,98,0,1
,,,,,,,6130e6f71947d9db1884079b,,,,,,6130e6f71947d9db1884079b,Kobieta,18,2021-09-06_18h19.46.534,rantool2,2021.1.4,Win32,59.91970759,6135e006383e6ea6c3d06a28,61363f8bd838829ba29f2929,"[""period""]",0,[0.27649999999999864],99,0,99,0,1
,,,,,,,6130e6f71947d9db1884079b,,,,,,6130e6f71947d9db1884079b,Kobieta,18,2021-09-06_18h19.46.534,rantool2,2021.1.4,Win32,59.91970759,6135e006383e6ea6c3d06a28,61363f8bd838829ba29f2929,"[""period""]",0,[0.2506999998092283],100,0,100,0,1
,,,,,,,6130e6f71947d9db1884079b,,,,,,6130e6f71947d9db1884079b,Kobieta,18,2021-09-06_18h19.46.534,rantool2,2021.1.4,Win32,59.91970759,6135e006383e6ea6c3d06a28,61363f8bd838829ba29f2929,"[""period""]",0,[0.2544000000953588],101,0,101,0,1
,,,,,,,6130e6f71947d9db1884079b,,,,,,6130e6f71947d9db1884079b,Kobieta,18,2021-09-06_18h19.46.534,rantool2,2021.1.4,Win32,59.91970759,6135e006383e6ea6c3d06a28,61363f8bd838829ba29f2929,"[""comma""]",0,[0.2758999996185594],102,0,102,0,1
,,,,,,,6130e6f71947d9db1884079b,,,,,,6130e6f71947d9db1884079b,Kobieta,18,2021-09-06_18h19.46.534,rantool2,2021.1.4,Win32,59.91970759,6135e006383e6ea6c3d06a28,61363f8bd838829ba29f2929,"[""period""]",0,[0.2669999999999959],103,0,103,0,1
,,,,,,,6130e6f71947d9db1884079b,,,,,,6130e6f71947d9db1884079b,Kobieta,18,2021-09-06_18h19.46.534,rantool2,2021.1.4,Win32,59.91970759,6135e006383e6ea6c3d06a28,61363f8bd838829ba29f2929,"[""comma""]",0,[0.2527000002860973],104,0,104,0,1
,,,,,,,6130e6f71947d9db1884079b,,,,,,6130e6f71947d9db1884079b,Kobieta,18,2021-09-06_18h19.46.534,rantool2,2021.1.4,Win32,59.91970759,6135e006383e6ea6c3d06a28,61363f8bd838829ba29f2929,"[""period""]",0,[0.2977000002861132],105,0,105,0,1
,,,,,,,6130e6f71947d9db1884079b,,,,,,6130e6f71947d9db1884079b,Kobieta,18,2021-09-06_18h19.46.534,rantool2,2021.1.4,Win32,59.91970759,6135e006383e6ea6c3d06a28,61363f8bd838829ba29f2929,"[""comma""]",0,[0.3680999999046435],106,0,106,0,1
,,,,,,,6130e6f71947d9db1884079b,,,,,,6130e6f71947d9db1884079b,Kobieta,18,2021-09-06_18h19.46.534,rantool2,2021.1.4,Win32,59.91970759,6135e006383e6ea6c3d06a28,61363f8bd838829ba29f2929,"[""period""]",0,[0.26759999990463257],107,0,107,0,1
,,,,,,,6130e6f71947d9db1884079b,,,,,,6130e6f71947d9db1884079b,Kobieta,18,2021-09-06_18h19.46.534,rantool2,2021.1.4,Win32,59.91970759,6135e006383e6ea6c3d06a28,61363f8bd838829ba29f2929,"[""comma""]",0,[0.26960000038150156],108,0,108,0,1
,,,,,,,6130e6f71947d9db1884079b,,,,,,6130e6f71947d9db1884079b,Kobieta,18,2021-09-06_18h19.46.534,rantool2,2021.1.4,Win32,59.91970759,6135e006383e6ea6c3d06a28,61363f8bd838829ba29f2929,"[""period""]",0,[0.22510000038147382],109,0,109,0,1
,,,,,,,6130e6f71947d9db1884079b,,,,,,6130e6f71947d9db1884079b,Kobieta,18,2021-09-06_18h19.46.534,rantool2,2021.1.4,Win32,59.91970759,6135e006383e6ea6c3d06a28,61363f8bd838829ba29f2929,"[""period""]",0,[0.48630000019073805],110,0,110,0,1
,,,,,,,6130e6f71947d9db1884079b,,,,,,6130e6f71947d9db1884079b,Kobieta,18,2021-09-06_18h19.46.534,rantool2,2021.1.4,Win32,59.91970759,6135e006383e6ea6c3d06a28,61363f8bd838829ba29f2929,"[""period""]",0,[0.2838000001907517],111,0,111,0,1
,,,,,,,6130e6f71947d9db1884079b,,,,,,6130e6f71947d9db1884079b,Kobieta,18,2021-09-06_18h19.46.534,rantool2,2021.1.4,Win32,59.91970759,6135e006383e6ea6c3d06a28,61363f8bd838829ba29f2929,"[""comma""]",0,[0.2685000000000173],112,0,112,0,1
,,,,,,,6130e6f71947d9db1884079b,,,,,,6130e6f71947d9db1884079b,Kobieta,18,2021-09-06_18h19.46.534,rantool2,2021.1.4,Win32,59.91970759,6135e006383e6ea6c3d06a28,61363f8bd838829ba29f2929,"[""comma""]",0,[0.23510000038146472],113,0,113,0,1
,,,,,,,6130e6f71947d9db1884079b,,,,,,6130e6f71947d9db1884079b,Kobieta,18,2021-09-06_18h19.46.534,rantool2,2021.1.4,Win32,59.91970759,6135e006383e6ea6c3d06a28,61363f8bd838829ba29f2929,"[""comma""]",0,[0.35570000028610593],114,0,114,0,1
,,,,,,,6130e6f71947d9db1884079b,,,,,,6130e6f71947d9db1884079b,Kobieta,18,2021-09-06_18h19.46.534,rantool2,2021.1.4,Win32,59.91970759,6135e006383e6ea6c3d06a28,61363f8bd838829ba29f2929,"[""comma""]",0,[0.2909999999999968],115,0,115,0,1
,,,,,,,6130e6f71947d9db1884079b,,,,,,6130e6f71947d9db1884079b,Kobieta,18,2021-09-06_18h19.46.534,rantool2,2021.1.4,Win32,59.91970759,6135e006383e6ea6c3d06a28,61363f8bd838829ba29f2929,"[""comma""]",0,[0.26690000009540427],116,0,116,0,1
,,,,,,,6130e6f71947d9db1884079b,,,,,,6130e6f71947d9db1884079b,Kobieta,18,2021-09-06_18h19.46.534,rantool2,2021.1.4,Win32,59.91970759,6135e006383e6ea6c3d06a28,61363f8bd838829ba29f2929,"[""period""]",0,[0.2528000001907458],117,0,117,0,1
,,,,,,,6130e6f71947d9db1884079b,,,,,,6130e6f71947d9db1884079b,Kobieta,18,2021-09-06_18h19.46.534,rantool2,2021.1.4,Win32,59.91970759,6135e006383e6ea6c3d06a28,61363f8bd838829ba29f2929,"[""period""]",0,[0.2353000001907617],118,0,118,0,1
,,,,,,,6130e6f71947d9db1884079b,,,,,,6130e6f71947d9db1884079b,Kobieta,18,2021-09-06_18h19.46.534,rantool2,2021.1.4,Win32,59.91970759,6135e006383e6ea6c3d06a28,61363f8bd838829ba29f2929,"[""period""]",0,[0.2691999998092456],119,0,119,0,1
