key_resp_5.keys,key_resp_5.corr,key_resp_5.rt,trials.thisRepN,trials.thisTrialN,trials.thisN,trials.thisIndex,trials.ran,id*,Płeć*,Wiek*,date,expName,psychopyVersion,OS,frameRate,id,STUDY_ID,SESSION_ID,key_resp_7.keys,key_resp_7.rt,trials_2.thisRepN,trials_2.thisTrialN,trials_2.thisN,trials_2.thisIndex,trials_2.ran,series_0,series_1,acss_0,acss_1,comparison
"[""period""]",0,[1.030600000001499],0,0,0,0,1,60e2d5dcca60e8043355c326,Mężczyzna,23,2021-07-13_21h22.14.194,rantool2,2021.1.4,MacIntel,59.99880002,60e2d5dcca60e8043355c326,60d9d14f4a8a35a482e0d9bf,60ede75a4bac6e1c3ea11b12,,,,,,,,,,,,
"[""comma""]",0,[0.6001999999992478],1,0,1,0,1,60e2d5dcca60e8043355c326,Mężczyzna,23,2021-07-13_21h22.14.194,rantool2,2021.1.4,MacIntel,59.99880002,60e2d5dcca60e8043355c326,60d9d14f4a8a35a482e0d9bf,60ede75a4bac6e1c3ea11b12,,,,,,,,,,,,
"[""comma""]",0,[0.4576999999992637],2,0,2,0,1,60e2d5dcca60e8043355c326,Mężczyzna,23,2021-07-13_21h22.14.194,rantool2,2021.1.4,MacIntel,59.99880002,60e2d5dcca60e8043355c326,60d9d14f4a8a35a482e0d9bf,60ede75a4bac6e1c3ea11b12,,,,,,,,,,,,
"[""period""]",0,[0.28640000000224575],3,0,3,0,1,60e2d5dcca60e8043355c326,Mężczyzna,23,2021-07-13_21h22.14.194,rantool2,2021.1.4,MacIntel,59.99880002,60e2d5dcca60e8043355c326,60d9d14f4a8a35a482e0d9bf,60ede75a4bac6e1c3ea11b12,,,,,,,,,,,,
"[""period""]",0,[0.5208000000007473],4,0,4,0,1,60e2d5dcca60e8043355c326,Mężczyzna,23,2021-07-13_21h22.14.194,rantool2,2021.1.4,MacIntel,59.99880002,60e2d5dcca60e8043355c326,60d9d14f4a8a35a482e0d9bf,60ede75a4bac6e1c3ea11b12,,,,,,,,,,,,
"[""comma""]",0,[0.3213999999985049],5,0,5,0,1,60e2d5dcca60e8043355c326,Mężczyzna,23,2021-07-13_21h22.14.194,rantool2,2021.1.4,MacIntel,59.99880002,60e2d5dcca60e8043355c326,60d9d14f4a8a35a482e0d9bf,60ede75a4bac6e1c3ea11b12,,,,,,,,,,,,
"[""period""]",0,[0.2926000000014852],6,0,6,0,1,60e2d5dcca60e8043355c326,Mężczyzna,23,2021-07-13_21h22.14.194,rantool2,2021.1.4,MacIntel,59.99880002,60e2d5dcca60e8043355c326,60d9d14f4a8a35a482e0d9bf,60ede75a4bac6e1c3ea11b12,,,,,,,,,,,,
"[""comma""]",0,[0.3321999999992613],7,0,7,0,1,60e2d5dcca60e8043355c326,Mężczyzna,23,2021-07-13_21h22.14.194,rantool2,2021.1.4,MacIntel,59.99880002,60e2d5dcca60e8043355c326,60d9d14f4a8a35a482e0d9bf,60ede75a4bac6e1c3ea11b12,,,,,,,,,,,,
"[""period""]",0,[0.5504999999999995],8,0,8,0,1,60e2d5dcca60e8043355c326,Mężczyzna,23,2021-07-13_21h22.14.194,rantool2,2021.1.4,MacIntel,59.99880002,60e2d5dcca60e8043355c326,60d9d14f4a8a35a482e0d9bf,60ede75a4bac6e1c3ea11b12,,,,,,,,,,,,
"[""comma""]",0,[0.3852999999970166],9,0,9,0,1,60e2d5dcca60e8043355c326,Mężczyzna,23,2021-07-13_21h22.14.194,rantool2,2021.1.4,MacIntel,59.99880002,60e2d5dcca60e8043355c326,60d9d14f4a8a35a482e0d9bf,60ede75a4bac6e1c3ea11b12,,,,,,,,,,,,
"[""comma""]",0,[0.35060000000149216],10,0,10,0,1,60e2d5dcca60e8043355c326,Mężczyzna,23,2021-07-13_21h22.14.194,rantool2,2021.1.4,MacIntel,59.99880002,60e2d5dcca60e8043355c326,60d9d14f4a8a35a482e0d9bf,60ede75a4bac6e1c3ea11b12,,,,,,,,,,,,
"[""period""]",0,[0.3056999999992627],11,0,11,0,1,60e2d5dcca60e8043355c326,Mężczyzna,23,2021-07-13_21h22.14.194,rantool2,2021.1.4,MacIntel,59.99880002,60e2d5dcca60e8043355c326,60d9d14f4a8a35a482e0d9bf,60ede75a4bac6e1c3ea11b12,,,,,,,,,,,,
"[""period""]",0,[0.4684000000022337],12,0,12,0,1,60e2d5dcca60e8043355c326,Mężczyzna,23,2021-07-13_21h22.14.194,rantool2,2021.1.4,MacIntel,59.99880002,60e2d5dcca60e8043355c326,60d9d14f4a8a35a482e0d9bf,60ede75a4bac6e1c3ea11b12,,,,,,,,,,,,
"[""period""]",0,[0.33620000000297523],13,0,13,0,1,60e2d5dcca60e8043355c326,Mężczyzna,23,2021-07-13_21h22.14.194,rantool2,2021.1.4,MacIntel,59.99880002,60e2d5dcca60e8043355c326,60d9d14f4a8a35a482e0d9bf,60ede75a4bac6e1c3ea11b12,,,,,,,,,,,,
"[""comma""]",0,[0.44169999999925835],14,0,14,0,1,60e2d5dcca60e8043355c326,Mężczyzna,23,2021-07-13_21h22.14.194,rantool2,2021.1.4,MacIntel,59.99880002,60e2d5dcca60e8043355c326,60d9d14f4a8a35a482e0d9bf,60ede75a4bac6e1c3ea11b12,,,,,,,,,,,,
"[""comma""]",0,[0.5198000000007426],15,0,15,0,1,60e2d5dcca60e8043355c326,Mężczyzna,23,2021-07-13_21h22.14.194,rantool2,2021.1.4,MacIntel,59.99880002,60e2d5dcca60e8043355c326,60d9d14f4a8a35a482e0d9bf,60ede75a4bac6e1c3ea11b12,,,,,,,,,,,,
"[""comma""]",0,[0.7088000000007355],16,0,16,0,1,60e2d5dcca60e8043355c326,Mężczyzna,23,2021-07-13_21h22.14.194,rantool2,2021.1.4,MacIntel,59.99880002,60e2d5dcca60e8043355c326,60d9d14f4a8a35a482e0d9bf,60ede75a4bac6e1c3ea11b12,,,,,,,,,,,,
"[""period""]",0,[0.6206999999992604],17,0,17,0,1,60e2d5dcca60e8043355c326,Mężczyzna,23,2021-07-13_21h22.14.194,rantool2,2021.1.4,MacIntel,59.99880002,60e2d5dcca60e8043355c326,60d9d14f4a8a35a482e0d9bf,60ede75a4bac6e1c3ea11b12,,,,,,,,,,,,
"[""comma""]",0,[0.5215999999977612],18,0,18,0,1,60e2d5dcca60e8043355c326,Mężczyzna,23,2021-07-13_21h22.14.194,rantool2,2021.1.4,MacIntel,59.99880002,60e2d5dcca60e8043355c326,60d9d14f4a8a35a482e0d9bf,60ede75a4bac6e1c3ea11b12,,,,,,,,,,,,
"[""period""]",0,[0.6516000000014941],19,0,19,0,1,60e2d5dcca60e8043355c326,Mężczyzna,23,2021-07-13_21h22.14.194,rantool2,2021.1.4,MacIntel,59.99880002,60e2d5dcca60e8043355c326,60d9d14f4a8a35a482e0d9bf,60ede75a4bac6e1c3ea11b12,,,,,,,,,,,,
"[""comma""]",0,[0.4296999999992579],20,0,20,0,1,60e2d5dcca60e8043355c326,Mężczyzna,23,2021-07-13_21h22.14.194,rantool2,2021.1.4,MacIntel,59.99880002,60e2d5dcca60e8043355c326,60d9d14f4a8a35a482e0d9bf,60ede75a4bac6e1c3ea11b12,,,,,,,,,,,,
"[""period""]",0,[0.48470000000298796],21,0,21,0,1,60e2d5dcca60e8043355c326,Mężczyzna,23,2021-07-13_21h22.14.194,rantool2,2021.1.4,MacIntel,59.99880002,60e2d5dcca60e8043355c326,60d9d14f4a8a35a482e0d9bf,60ede75a4bac6e1c3ea11b12,,,,,,,,,,,,
"[""comma""]",0,[0.45169999999924926],22,0,22,0,1,60e2d5dcca60e8043355c326,Mężczyzna,23,2021-07-13_21h22.14.194,rantool2,2021.1.4,MacIntel,59.99880002,60e2d5dcca60e8043355c326,60d9d14f4a8a35a482e0d9bf,60ede75a4bac6e1c3ea11b12,,,,,,,,,,,,
"[""period""]",0,[0.37000000000000455],23,0,23,0,1,60e2d5dcca60e8043355c326,Mężczyzna,23,2021-07-13_21h22.14.194,rantool2,2021.1.4,MacIntel,59.99880002,60e2d5dcca60e8043355c326,60d9d14f4a8a35a482e0d9bf,60ede75a4bac6e1c3ea11b12,,,,,,,,,,,,
"[""comma""]",0,[0.28899999999998727],24,0,24,0,1,60e2d5dcca60e8043355c326,Mężczyzna,23,2021-07-13_21h22.14.194,rantool2,2021.1.4,MacIntel,59.99880002,60e2d5dcca60e8043355c326,60d9d14f4a8a35a482e0d9bf,60ede75a4bac6e1c3ea11b12,,,,,,,,,,,,
"[""period""]",0,[0.4863000000007389],25,0,25,0,1,60e2d5dcca60e8043355c326,Mężczyzna,23,2021-07-13_21h22.14.194,rantool2,2021.1.4,MacIntel,59.99880002,60e2d5dcca60e8043355c326,60d9d14f4a8a35a482e0d9bf,60ede75a4bac6e1c3ea11b12,,,,,,,,,,,,
"[""comma""]",0,[0.4738000000007503],26,0,26,0,1,60e2d5dcca60e8043355c326,Mężczyzna,23,2021-07-13_21h22.14.194,rantool2,2021.1.4,MacIntel,59.99880002,60e2d5dcca60e8043355c326,60d9d14f4a8a35a482e0d9bf,60ede75a4bac6e1c3ea11b12,,,,,,,,,,,,
"[""period""]",0,[0.3248999999985074],27,0,27,0,1,60e2d5dcca60e8043355c326,Mężczyzna,23,2021-07-13_21h22.14.194,rantool2,2021.1.4,MacIntel,59.99880002,60e2d5dcca60e8043355c326,60d9d14f4a8a35a482e0d9bf,60ede75a4bac6e1c3ea11b12,,,,,,,,,,,,
"[""comma""]",0,[0.38619999999923493],28,0,28,0,1,60e2d5dcca60e8043355c326,Mężczyzna,23,2021-07-13_21h22.14.194,rantool2,2021.1.4,MacIntel,59.99880002,60e2d5dcca60e8043355c326,60d9d14f4a8a35a482e0d9bf,60ede75a4bac6e1c3ea11b12,,,,,,,,,,,,
"[""period""]",0,[0.40060000000150353],29,0,29,0,1,60e2d5dcca60e8043355c326,Mężczyzna,23,2021-07-13_21h22.14.194,rantool2,2021.1.4,MacIntel,59.99880002,60e2d5dcca60e8043355c326,60d9d14f4a8a35a482e0d9bf,60ede75a4bac6e1c3ea11b12,,,,,,,,,,,,
"[""comma""]",0,[0.304399999998509],30,0,30,0,1,60e2d5dcca60e8043355c326,Mężczyzna,23,2021-07-13_21h22.14.194,rantool2,2021.1.4,MacIntel,59.99880002,60e2d5dcca60e8043355c326,60d9d14f4a8a35a482e0d9bf,60ede75a4bac6e1c3ea11b12,,,,,,,,,,,,
"[""period""]",0,[0.2862000000029923],31,0,31,0,1,60e2d5dcca60e8043355c326,Mężczyzna,23,2021-07-13_21h22.14.194,rantool2,2021.1.4,MacIntel,59.99880002,60e2d5dcca60e8043355c326,60d9d14f4a8a35a482e0d9bf,60ede75a4bac6e1c3ea11b12,,,,,,,,,,,,
"[""comma""]",0,[0.5034000000022445],32,0,32,0,1,60e2d5dcca60e8043355c326,Mężczyzna,23,2021-07-13_21h22.14.194,rantool2,2021.1.4,MacIntel,59.99880002,60e2d5dcca60e8043355c326,60d9d14f4a8a35a482e0d9bf,60ede75a4bac6e1c3ea11b12,,,,,,,,,,,,
"[""period""]",0,[0.35089999999851784],33,0,33,0,1,60e2d5dcca60e8043355c326,Mężczyzna,23,2021-07-13_21h22.14.194,rantool2,2021.1.4,MacIntel,59.99880002,60e2d5dcca60e8043355c326,60d9d14f4a8a35a482e0d9bf,60ede75a4bac6e1c3ea11b12,,,,,,,,,,,,
"[""comma""]",0,[0.308799999997035],34,0,34,0,1,60e2d5dcca60e8043355c326,Mężczyzna,23,2021-07-13_21h22.14.194,rantool2,2021.1.4,MacIntel,59.99880002,60e2d5dcca60e8043355c326,60d9d14f4a8a35a482e0d9bf,60ede75a4bac6e1c3ea11b12,,,,,,,,,,,,
"[""period""]",0,[0.4881000000014808],35,0,35,0,1,60e2d5dcca60e8043355c326,Mężczyzna,23,2021-07-13_21h22.14.194,rantool2,2021.1.4,MacIntel,59.99880002,60e2d5dcca60e8043355c326,60d9d14f4a8a35a482e0d9bf,60ede75a4bac6e1c3ea11b12,,,,,,,,,,,,
"[""comma""]",0,[0.2771000000014965],36,0,36,0,1,60e2d5dcca60e8043355c326,Mężczyzna,23,2021-07-13_21h22.14.194,rantool2,2021.1.4,MacIntel,59.99880002,60e2d5dcca60e8043355c326,60d9d14f4a8a35a482e0d9bf,60ede75a4bac6e1c3ea11b12,,,,,,,,,,,,
"[""period""]",0,[0.4388000000007253],37,0,37,0,1,60e2d5dcca60e8043355c326,Mężczyzna,23,2021-07-13_21h22.14.194,rantool2,2021.1.4,MacIntel,59.99880002,60e2d5dcca60e8043355c326,60d9d14f4a8a35a482e0d9bf,60ede75a4bac6e1c3ea11b12,,,,,,,,,,,,
"[""comma""]",0,[0.31939999999849533],38,0,38,0,1,60e2d5dcca60e8043355c326,Mężczyzna,23,2021-07-13_21h22.14.194,rantool2,2021.1.4,MacIntel,59.99880002,60e2d5dcca60e8043355c326,60d9d14f4a8a35a482e0d9bf,60ede75a4bac6e1c3ea11b12,,,,,,,,,,,,
"[""period""]",0,[0.28700000000000614],39,0,39,0,1,60e2d5dcca60e8043355c326,Mężczyzna,23,2021-07-13_21h22.14.194,rantool2,2021.1.4,MacIntel,59.99880002,60e2d5dcca60e8043355c326,60d9d14f4a8a35a482e0d9bf,60ede75a4bac6e1c3ea11b12,,,,,,,,,,,,
"[""comma""]",0,[0.4205000000000041],40,0,40,0,1,60e2d5dcca60e8043355c326,Mężczyzna,23,2021-07-13_21h22.14.194,rantool2,2021.1.4,MacIntel,59.99880002,60e2d5dcca60e8043355c326,60d9d14f4a8a35a482e0d9bf,60ede75a4bac6e1c3ea11b12,,,,,,,,,,,,
"[""period""]",0,[0.33600000000001273],41,0,41,0,1,60e2d5dcca60e8043355c326,Mężczyzna,23,2021-07-13_21h22.14.194,rantool2,2021.1.4,MacIntel,59.99880002,60e2d5dcca60e8043355c326,60d9d14f4a8a35a482e0d9bf,60ede75a4bac6e1c3ea11b12,,,,,,,,,,,,
"[""comma""]",0,[0.3190999999977464],42,0,42,0,1,60e2d5dcca60e8043355c326,Mężczyzna,23,2021-07-13_21h22.14.194,rantool2,2021.1.4,MacIntel,59.99880002,60e2d5dcca60e8043355c326,60d9d14f4a8a35a482e0d9bf,60ede75a4bac6e1c3ea11b12,,,,,,,,,,,,
"[""comma""]",0,[0.20250000000001478],43,0,43,0,1,60e2d5dcca60e8043355c326,Mężczyzna,23,2021-07-13_21h22.14.194,rantool2,2021.1.4,MacIntel,59.99880002,60e2d5dcca60e8043355c326,60d9d14f4a8a35a482e0d9bf,60ede75a4bac6e1c3ea11b12,,,,,,,,,,,,
"[""period""]",0,[0.305499999999995],44,0,44,0,1,60e2d5dcca60e8043355c326,Mężczyzna,23,2021-07-13_21h22.14.194,rantool2,2021.1.4,MacIntel,59.99880002,60e2d5dcca60e8043355c326,60d9d14f4a8a35a482e0d9bf,60ede75a4bac6e1c3ea11b12,,,,,,,,,,,,
"[""comma""]",0,[0.3523999999985108],45,0,45,0,1,60e2d5dcca60e8043355c326,Mężczyzna,23,2021-07-13_21h22.14.194,rantool2,2021.1.4,MacIntel,59.99880002,60e2d5dcca60e8043355c326,60d9d14f4a8a35a482e0d9bf,60ede75a4bac6e1c3ea11b12,,,,,,,,,,,,
"[""period""]",0,[0.34069999999923084],46,0,46,0,1,60e2d5dcca60e8043355c326,Mężczyzna,23,2021-07-13_21h22.14.194,rantool2,2021.1.4,MacIntel,59.99880002,60e2d5dcca60e8043355c326,60d9d14f4a8a35a482e0d9bf,60ede75a4bac6e1c3ea11b12,,,,,,,,,,,,
"[""comma""]",0,[0.3017000000029668],47,0,47,0,1,60e2d5dcca60e8043355c326,Mężczyzna,23,2021-07-13_21h22.14.194,rantool2,2021.1.4,MacIntel,59.99880002,60e2d5dcca60e8043355c326,60d9d14f4a8a35a482e0d9bf,60ede75a4bac6e1c3ea11b12,,,,,,,,,,,,
"[""comma""]",0,[0.3181000000014649],48,0,48,0,1,60e2d5dcca60e8043355c326,Mężczyzna,23,2021-07-13_21h22.14.194,rantool2,2021.1.4,MacIntel,59.99880002,60e2d5dcca60e8043355c326,60d9d14f4a8a35a482e0d9bf,60ede75a4bac6e1c3ea11b12,,,,,,,,,,,,
"[""period""]",0,[0.34259999999775914],49,0,49,0,1,60e2d5dcca60e8043355c326,Mężczyzna,23,2021-07-13_21h22.14.194,rantool2,2021.1.4,MacIntel,59.99880002,60e2d5dcca60e8043355c326,60d9d14f4a8a35a482e0d9bf,60ede75a4bac6e1c3ea11b12,,,,,,,,,,,,
"[""comma""]",0,[0.11919999999926745],50,0,50,0,1,60e2d5dcca60e8043355c326,Mężczyzna,23,2021-07-13_21h22.14.194,rantool2,2021.1.4,MacIntel,59.99880002,60e2d5dcca60e8043355c326,60d9d14f4a8a35a482e0d9bf,60ede75a4bac6e1c3ea11b12,,,,,,,,,,,,
"[""period""]",0,[0.2911000000015065],51,0,51,0,1,60e2d5dcca60e8043355c326,Mężczyzna,23,2021-07-13_21h22.14.194,rantool2,2021.1.4,MacIntel,59.99880002,60e2d5dcca60e8043355c326,60d9d14f4a8a35a482e0d9bf,60ede75a4bac6e1c3ea11b12,,,,,,,,,,,,
"[""comma""]",0,[0.28700000000000614],52,0,52,0,1,60e2d5dcca60e8043355c326,Mężczyzna,23,2021-07-13_21h22.14.194,rantool2,2021.1.4,MacIntel,59.99880002,60e2d5dcca60e8043355c326,60d9d14f4a8a35a482e0d9bf,60ede75a4bac6e1c3ea11b12,,,,,,,,,,,,
"[""comma""]",0,[0.29940000000223677],53,0,53,0,1,60e2d5dcca60e8043355c326,Mężczyzna,23,2021-07-13_21h22.14.194,rantool2,2021.1.4,MacIntel,59.99880002,60e2d5dcca60e8043355c326,60d9d14f4a8a35a482e0d9bf,60ede75a4bac6e1c3ea11b12,,,,,,,,,,,,
"[""period""]",0,[0.2518999999984999],54,0,54,0,1,60e2d5dcca60e8043355c326,Mężczyzna,23,2021-07-13_21h22.14.194,rantool2,2021.1.4,MacIntel,59.99880002,60e2d5dcca60e8043355c326,60d9d14f4a8a35a482e0d9bf,60ede75a4bac6e1c3ea11b12,,,,,,,,,,,,
"[""comma""]",0,[0.12139999999851625],55,0,55,0,1,60e2d5dcca60e8043355c326,Mężczyzna,23,2021-07-13_21h22.14.194,rantool2,2021.1.4,MacIntel,59.99880002,60e2d5dcca60e8043355c326,60d9d14f4a8a35a482e0d9bf,60ede75a4bac6e1c3ea11b12,,,,,,,,,,,,
"[""period""]",0,[0.3095000000000141],56,0,56,0,1,60e2d5dcca60e8043355c326,Mężczyzna,23,2021-07-13_21h22.14.194,rantool2,2021.1.4,MacIntel,59.99880002,60e2d5dcca60e8043355c326,60d9d14f4a8a35a482e0d9bf,60ede75a4bac6e1c3ea11b12,,,,,,,,,,,,
"[""comma""]",0,[0.27209999999774936],57,0,57,0,1,60e2d5dcca60e8043355c326,Mężczyzna,23,2021-07-13_21h22.14.194,rantool2,2021.1.4,MacIntel,59.99880002,60e2d5dcca60e8043355c326,60d9d14f4a8a35a482e0d9bf,60ede75a4bac6e1c3ea11b12,,,,,,,,,,,,
"[""period""]",0,[0.2691999999992447],58,0,58,0,1,60e2d5dcca60e8043355c326,Mężczyzna,23,2021-07-13_21h22.14.194,rantool2,2021.1.4,MacIntel,59.99880002,60e2d5dcca60e8043355c326,60d9d14f4a8a35a482e0d9bf,60ede75a4bac6e1c3ea11b12,,,,,,,,,,,,
"[""comma""]",0,[0.2211000000014849],59,0,59,0,1,60e2d5dcca60e8043355c326,Mężczyzna,23,2021-07-13_21h22.14.194,rantool2,2021.1.4,MacIntel,59.99880002,60e2d5dcca60e8043355c326,60d9d14f4a8a35a482e0d9bf,60ede75a4bac6e1c3ea11b12,,,,,,,,,,,,
"[""period""]",0,[0.2880999999977689],60,0,60,0,1,60e2d5dcca60e8043355c326,Mężczyzna,23,2021-07-13_21h22.14.194,rantool2,2021.1.4,MacIntel,59.99880002,60e2d5dcca60e8043355c326,60d9d14f4a8a35a482e0d9bf,60ede75a4bac6e1c3ea11b12,,,,,,,,,,,,
"[""comma""]",0,[0.34169999999926404],61,0,61,0,1,60e2d5dcca60e8043355c326,Mężczyzna,23,2021-07-13_21h22.14.194,rantool2,2021.1.4,MacIntel,59.99880002,60e2d5dcca60e8043355c326,60d9d14f4a8a35a482e0d9bf,60ede75a4bac6e1c3ea11b12,,,,,,,,,,,,
"[""period""]",0,[0.28559999999774277],62,0,62,0,1,60e2d5dcca60e8043355c326,Mężczyzna,23,2021-07-13_21h22.14.194,rantool2,2021.1.4,MacIntel,59.99880002,60e2d5dcca60e8043355c326,60d9d14f4a8a35a482e0d9bf,60ede75a4bac6e1c3ea11b12,,,,,,,,,,,,
"[""comma""]",0,[0.22679999999701295],63,0,63,0,1,60e2d5dcca60e8043355c326,Mężczyzna,23,2021-07-13_21h22.14.194,rantool2,2021.1.4,MacIntel,59.99880002,60e2d5dcca60e8043355c326,60d9d14f4a8a35a482e0d9bf,60ede75a4bac6e1c3ea11b12,,,,,,,,,,,,
"[""period""]",0,[0.29430000000076006],64,0,64,0,1,60e2d5dcca60e8043355c326,Mężczyzna,23,2021-07-13_21h22.14.194,rantool2,2021.1.4,MacIntel,59.99880002,60e2d5dcca60e8043355c326,60d9d14f4a8a35a482e0d9bf,60ede75a4bac6e1c3ea11b12,,,,,,,,,,,,
"[""comma""]",0,[0.2849999999999966],65,0,65,0,1,60e2d5dcca60e8043355c326,Mężczyzna,23,2021-07-13_21h22.14.194,rantool2,2021.1.4,MacIntel,59.99880002,60e2d5dcca60e8043355c326,60d9d14f4a8a35a482e0d9bf,60ede75a4bac6e1c3ea11b12,,,,,,,,,,,,
"[""comma""]",0,[0.29039999999849897],66,0,66,0,1,60e2d5dcca60e8043355c326,Mężczyzna,23,2021-07-13_21h22.14.194,rantool2,2021.1.4,MacIntel,59.99880002,60e2d5dcca60e8043355c326,60d9d14f4a8a35a482e0d9bf,60ede75a4bac6e1c3ea11b12,,,,,,,,,,,,
"[""period""]",0,[0.2893000000007362],67,0,67,0,1,60e2d5dcca60e8043355c326,Mężczyzna,23,2021-07-13_21h22.14.194,rantool2,2021.1.4,MacIntel,59.99880002,60e2d5dcca60e8043355c326,60d9d14f4a8a35a482e0d9bf,60ede75a4bac6e1c3ea11b12,,,,,,,,,,,,
"[""period""]",0,[0.302800000000758],68,0,68,0,1,60e2d5dcca60e8043355c326,Mężczyzna,23,2021-07-13_21h22.14.194,rantool2,2021.1.4,MacIntel,59.99880002,60e2d5dcca60e8043355c326,60d9d14f4a8a35a482e0d9bf,60ede75a4bac6e1c3ea11b12,,,,,,,,,,,,
"[""period""]",0,[0.31870000000299115],69,0,69,0,1,60e2d5dcca60e8043355c326,Mężczyzna,23,2021-07-13_21h22.14.194,rantool2,2021.1.4,MacIntel,59.99880002,60e2d5dcca60e8043355c326,60d9d14f4a8a35a482e0d9bf,60ede75a4bac6e1c3ea11b12,,,,,,,,,,,,
"[""comma""]",0,[0.3046999999992579],70,0,70,0,1,60e2d5dcca60e8043355c326,Mężczyzna,23,2021-07-13_21h22.14.194,rantool2,2021.1.4,MacIntel,59.99880002,60e2d5dcca60e8043355c326,60d9d14f4a8a35a482e0d9bf,60ede75a4bac6e1c3ea11b12,,,,,,,,,,,,
"[""comma""]",0,[0.2527000000029602],71,0,71,0,1,60e2d5dcca60e8043355c326,Mężczyzna,23,2021-07-13_21h22.14.194,rantool2,2021.1.4,MacIntel,59.99880002,60e2d5dcca60e8043355c326,60d9d14f4a8a35a482e0d9bf,60ede75a4bac6e1c3ea11b12,,,,,,,,,,,,
"[""period""]",0,[0.3203000000007421],72,0,72,0,1,60e2d5dcca60e8043355c326,Mężczyzna,23,2021-07-13_21h22.14.194,rantool2,2021.1.4,MacIntel,59.99880002,60e2d5dcca60e8043355c326,60d9d14f4a8a35a482e0d9bf,60ede75a4bac6e1c3ea11b12,,,,,,,,,,,,
"[""comma""]",0,[0.32040000000222335],73,0,73,0,1,60e2d5dcca60e8043355c326,Mężczyzna,23,2021-07-13_21h22.14.194,rantool2,2021.1.4,MacIntel,59.99880002,60e2d5dcca60e8043355c326,60d9d14f4a8a35a482e0d9bf,60ede75a4bac6e1c3ea11b12,,,,,,,,,,,,
"[""period""]",0,[0.3190000000000168],74,0,74,0,1,60e2d5dcca60e8043355c326,Mężczyzna,23,2021-07-13_21h22.14.194,rantool2,2021.1.4,MacIntel,59.99880002,60e2d5dcca60e8043355c326,60d9d14f4a8a35a482e0d9bf,60ede75a4bac6e1c3ea11b12,,,,,,,,,,,,
"[""comma""]",0,[0.28869999999926677],75,0,75,0,1,60e2d5dcca60e8043355c326,Mężczyzna,23,2021-07-13_21h22.14.194,rantool2,2021.1.4,MacIntel,59.99880002,60e2d5dcca60e8043355c326,60d9d14f4a8a35a482e0d9bf,60ede75a4bac6e1c3ea11b12,,,,,,,,,,,,
"[""period""]",0,[0.38780000000073755],76,0,76,0,1,60e2d5dcca60e8043355c326,Mężczyzna,23,2021-07-13_21h22.14.194,rantool2,2021.1.4,MacIntel,59.99880002,60e2d5dcca60e8043355c326,60d9d14f4a8a35a482e0d9bf,60ede75a4bac6e1c3ea11b12,,,,,,,,,,,,
"[""comma""]",0,[0.35300000000000864],77,0,77,0,1,60e2d5dcca60e8043355c326,Mężczyzna,23,2021-07-13_21h22.14.194,rantool2,2021.1.4,MacIntel,59.99880002,60e2d5dcca60e8043355c326,60d9d14f4a8a35a482e0d9bf,60ede75a4bac6e1c3ea11b12,,,,,,,,,,,,
"[""period""]",0,[0.6438999999985242],78,0,78,0,1,60e2d5dcca60e8043355c326,Mężczyzna,23,2021-07-13_21h22.14.194,rantool2,2021.1.4,MacIntel,59.99880002,60e2d5dcca60e8043355c326,60d9d14f4a8a35a482e0d9bf,60ede75a4bac6e1c3ea11b12,,,,,,,,,,,,
"[""comma""]",0,[0.375],79,0,79,0,1,60e2d5dcca60e8043355c326,Mężczyzna,23,2021-07-13_21h22.14.194,rantool2,2021.1.4,MacIntel,59.99880002,60e2d5dcca60e8043355c326,60d9d14f4a8a35a482e0d9bf,60ede75a4bac6e1c3ea11b12,,,,,,,,,,,,
"[""period""]",0,[0.3011000000014974],80,0,80,0,1,60e2d5dcca60e8043355c326,Mężczyzna,23,2021-07-13_21h22.14.194,rantool2,2021.1.4,MacIntel,59.99880002,60e2d5dcca60e8043355c326,60d9d14f4a8a35a482e0d9bf,60ede75a4bac6e1c3ea11b12,,,,,,,,,,,,
"[""comma""]",0,[0.322100000001484],81,0,81,0,1,60e2d5dcca60e8043355c326,Mężczyzna,23,2021-07-13_21h22.14.194,rantool2,2021.1.4,MacIntel,59.99880002,60e2d5dcca60e8043355c326,60d9d14f4a8a35a482e0d9bf,60ede75a4bac6e1c3ea11b12,,,,,,,,,,,,
"[""period""]",0,[0.32019999999926085],82,0,82,0,1,60e2d5dcca60e8043355c326,Mężczyzna,23,2021-07-13_21h22.14.194,rantool2,2021.1.4,MacIntel,59.99880002,60e2d5dcca60e8043355c326,60d9d14f4a8a35a482e0d9bf,60ede75a4bac6e1c3ea11b12,,,,,,,,,,,,
"[""comma""]",0,[0.3025999999977671],83,0,83,0,1,60e2d5dcca60e8043355c326,Mężczyzna,23,2021-07-13_21h22.14.194,rantool2,2021.1.4,MacIntel,59.99880002,60e2d5dcca60e8043355c326,60d9d14f4a8a35a482e0d9bf,60ede75a4bac6e1c3ea11b12,,,,,,,,,,,,
"[""period""]",0,[0.30349999999998545],84,0,84,0,1,60e2d5dcca60e8043355c326,Mężczyzna,23,2021-07-13_21h22.14.194,rantool2,2021.1.4,MacIntel,59.99880002,60e2d5dcca60e8043355c326,60d9d14f4a8a35a482e0d9bf,60ede75a4bac6e1c3ea11b12,,,,,,,,,,,,
"[""comma""]",0,[0.32660000000146283],85,0,85,0,1,60e2d5dcca60e8043355c326,Mężczyzna,23,2021-07-13_21h22.14.194,rantool2,2021.1.4,MacIntel,59.99880002,60e2d5dcca60e8043355c326,60d9d14f4a8a35a482e0d9bf,60ede75a4bac6e1c3ea11b12,,,,,,,,,,,,
"[""period""]",0,[0.3026000000014619],86,0,86,0,1,60e2d5dcca60e8043355c326,Mężczyzna,23,2021-07-13_21h22.14.194,rantool2,2021.1.4,MacIntel,59.99880002,60e2d5dcca60e8043355c326,60d9d14f4a8a35a482e0d9bf,60ede75a4bac6e1c3ea11b12,,,,,,,,,,,,
"[""comma""]",0,[0.2419999999999618],87,0,87,0,1,60e2d5dcca60e8043355c326,Mężczyzna,23,2021-07-13_21h22.14.194,rantool2,2021.1.4,MacIntel,59.99880002,60e2d5dcca60e8043355c326,60d9d14f4a8a35a482e0d9bf,60ede75a4bac6e1c3ea11b12,,,,,,,,,,,,
"[""period""]",0,[0.34289999999850806],88,0,88,0,1,60e2d5dcca60e8043355c326,Mężczyzna,23,2021-07-13_21h22.14.194,rantool2,2021.1.4,MacIntel,59.99880002,60e2d5dcca60e8043355c326,60d9d14f4a8a35a482e0d9bf,60ede75a4bac6e1c3ea11b12,,,,,,,,,,,,
"[""comma""]",0,[0.32010000000150285],89,0,89,0,1,60e2d5dcca60e8043355c326,Mężczyzna,23,2021-07-13_21h22.14.194,rantool2,2021.1.4,MacIntel,59.99880002,60e2d5dcca60e8043355c326,60d9d14f4a8a35a482e0d9bf,60ede75a4bac6e1c3ea11b12,,,,,,,,,,,,
"[""period""]",0,[0.2870999999977357],90,0,90,0,1,60e2d5dcca60e8043355c326,Mężczyzna,23,2021-07-13_21h22.14.194,rantool2,2021.1.4,MacIntel,59.99880002,60e2d5dcca60e8043355c326,60d9d14f4a8a35a482e0d9bf,60ede75a4bac6e1c3ea11b12,,,,,,,,,,,,
"[""comma""]",0,[0.3361999999992804],91,0,91,0,1,60e2d5dcca60e8043355c326,Mężczyzna,23,2021-07-13_21h22.14.194,rantool2,2021.1.4,MacIntel,59.99880002,60e2d5dcca60e8043355c326,60d9d14f4a8a35a482e0d9bf,60ede75a4bac6e1c3ea11b12,,,,,,,,,,,,
"[""period""]",0,[0.2589000000021997],92,0,92,0,1,60e2d5dcca60e8043355c326,Mężczyzna,23,2021-07-13_21h22.14.194,rantool2,2021.1.4,MacIntel,59.99880002,60e2d5dcca60e8043355c326,60d9d14f4a8a35a482e0d9bf,60ede75a4bac6e1c3ea11b12,,,,,,,,,,,,
"[""comma""]",0,[0.3710999999977389],93,0,93,0,1,60e2d5dcca60e8043355c326,Mężczyzna,23,2021-07-13_21h22.14.194,rantool2,2021.1.4,MacIntel,59.99880002,60e2d5dcca60e8043355c326,60d9d14f4a8a35a482e0d9bf,60ede75a4bac6e1c3ea11b12,,,,,,,,,,,,
"[""period""]",0,[0.3196999999992727],94,0,94,0,1,60e2d5dcca60e8043355c326,Mężczyzna,23,2021-07-13_21h22.14.194,rantool2,2021.1.4,MacIntel,59.99880002,60e2d5dcca60e8043355c326,60d9d14f4a8a35a482e0d9bf,60ede75a4bac6e1c3ea11b12,,,,,,,,,,,,
"[""comma""]",0,[0.27290000000226655],95,0,95,0,1,60e2d5dcca60e8043355c326,Mężczyzna,23,2021-07-13_21h22.14.194,rantool2,2021.1.4,MacIntel,59.99880002,60e2d5dcca60e8043355c326,60d9d14f4a8a35a482e0d9bf,60ede75a4bac6e1c3ea11b12,,,,,,,,,,,,
"[""period""]",0,[0.2538000000007514],96,0,96,0,1,60e2d5dcca60e8043355c326,Mężczyzna,23,2021-07-13_21h22.14.194,rantool2,2021.1.4,MacIntel,59.99880002,60e2d5dcca60e8043355c326,60d9d14f4a8a35a482e0d9bf,60ede75a4bac6e1c3ea11b12,,,,,,,,,,,,
"[""comma""]",0,[0.23660000000154469],97,0,97,0,1,60e2d5dcca60e8043355c326,Mężczyzna,23,2021-07-13_21h22.14.194,rantool2,2021.1.4,MacIntel,59.99880002,60e2d5dcca60e8043355c326,60d9d14f4a8a35a482e0d9bf,60ede75a4bac6e1c3ea11b12,,,,,,,,,,,,
"[""period""]",0,[0.27089999999850534],98,0,98,0,1,60e2d5dcca60e8043355c326,Mężczyzna,23,2021-07-13_21h22.14.194,rantool2,2021.1.4,MacIntel,59.99880002,60e2d5dcca60e8043355c326,60d9d14f4a8a35a482e0d9bf,60ede75a4bac6e1c3ea11b12,,,,,,,,,,,,
"[""period""]",0,[0.2855000000000132],99,0,99,0,1,60e2d5dcca60e8043355c326,Mężczyzna,23,2021-07-13_21h22.14.194,rantool2,2021.1.4,MacIntel,59.99880002,60e2d5dcca60e8043355c326,60d9d14f4a8a35a482e0d9bf,60ede75a4bac6e1c3ea11b12,,,,,,,,,,,,
"[""comma""]",0,[0.2510000000000332],100,0,100,0,1,60e2d5dcca60e8043355c326,Mężczyzna,23,2021-07-13_21h22.14.194,rantool2,2021.1.4,MacIntel,59.99880002,60e2d5dcca60e8043355c326,60d9d14f4a8a35a482e0d9bf,60ede75a4bac6e1c3ea11b12,,,,,,,,,,,,
"[""period""]",0,[0.5921999999992522],101,0,101,0,1,60e2d5dcca60e8043355c326,Mężczyzna,23,2021-07-13_21h22.14.194,rantool2,2021.1.4,MacIntel,59.99880002,60e2d5dcca60e8043355c326,60d9d14f4a8a35a482e0d9bf,60ede75a4bac6e1c3ea11b12,,,,,,,,,,,,
"[""comma""]",0,[0.28899999999998727],102,0,102,0,1,60e2d5dcca60e8043355c326,Mężczyzna,23,2021-07-13_21h22.14.194,rantool2,2021.1.4,MacIntel,59.99880002,60e2d5dcca60e8043355c326,60d9d14f4a8a35a482e0d9bf,60ede75a4bac6e1c3ea11b12,,,,,,,,,,,,
"[""period""]",0,[0.27190000000223336],103,0,103,0,1,60e2d5dcca60e8043355c326,Mężczyzna,23,2021-07-13_21h22.14.194,rantool2,2021.1.4,MacIntel,59.99880002,60e2d5dcca60e8043355c326,60d9d14f4a8a35a482e0d9bf,60ede75a4bac6e1c3ea11b12,,,,,,,,,,,,
"[""comma""]",0,[0.3176999999992631],104,0,104,0,1,60e2d5dcca60e8043355c326,Mężczyzna,23,2021-07-13_21h22.14.194,rantool2,2021.1.4,MacIntel,59.99880002,60e2d5dcca60e8043355c326,60d9d14f4a8a35a482e0d9bf,60ede75a4bac6e1c3ea11b12,,,,,,,,,,,,
"[""period""]",0,[0.35410000000149466],105,0,105,0,1,60e2d5dcca60e8043355c326,Mężczyzna,23,2021-07-13_21h22.14.194,rantool2,2021.1.4,MacIntel,59.99880002,60e2d5dcca60e8043355c326,60d9d14f4a8a35a482e0d9bf,60ede75a4bac6e1c3ea11b12,,,,,,,,,,,,
"[""comma""]",0,[0.3703999999985399],106,0,106,0,1,60e2d5dcca60e8043355c326,Mężczyzna,23,2021-07-13_21h22.14.194,rantool2,2021.1.4,MacIntel,59.99880002,60e2d5dcca60e8043355c326,60d9d14f4a8a35a482e0d9bf,60ede75a4bac6e1c3ea11b12,,,,,,,,,,,,
"[""period""]",0,[0.30519999999921765],107,0,107,0,1,60e2d5dcca60e8043355c326,Mężczyzna,23,2021-07-13_21h22.14.194,rantool2,2021.1.4,MacIntel,59.99880002,60e2d5dcca60e8043355c326,60d9d14f4a8a35a482e0d9bf,60ede75a4bac6e1c3ea11b12,,,,,,,,,,,,
"[""comma""]",0,[0.4862999999970157],108,0,108,0,1,60e2d5dcca60e8043355c326,Mężczyzna,23,2021-07-13_21h22.14.194,rantool2,2021.1.4,MacIntel,59.99880002,60e2d5dcca60e8043355c326,60d9d14f4a8a35a482e0d9bf,60ede75a4bac6e1c3ea11b12,,,,,,,,,,,,
"[""period""]",0,[0.46889999999854126],109,0,109,0,1,60e2d5dcca60e8043355c326,Mężczyzna,23,2021-07-13_21h22.14.194,rantool2,2021.1.4,MacIntel,59.99880002,60e2d5dcca60e8043355c326,60d9d14f4a8a35a482e0d9bf,60ede75a4bac6e1c3ea11b12,,,,,,,,,,,,
"[""comma""]",0,[0.5374000000022079],110,0,110,0,1,60e2d5dcca60e8043355c326,Mężczyzna,23,2021-07-13_21h22.14.194,rantool2,2021.1.4,MacIntel,59.99880002,60e2d5dcca60e8043355c326,60d9d14f4a8a35a482e0d9bf,60ede75a4bac6e1c3ea11b12,,,,,,,,,,,,
"[""period""]",0,[0.6335000000000264],111,0,111,0,1,60e2d5dcca60e8043355c326,Mężczyzna,23,2021-07-13_21h22.14.194,rantool2,2021.1.4,MacIntel,59.99880002,60e2d5dcca60e8043355c326,60d9d14f4a8a35a482e0d9bf,60ede75a4bac6e1c3ea11b12,,,,,,,,,,,,
"[""comma""]",0,[0.4563999999984958],112,0,112,0,1,60e2d5dcca60e8043355c326,Mężczyzna,23,2021-07-13_21h22.14.194,rantool2,2021.1.4,MacIntel,59.99880002,60e2d5dcca60e8043355c326,60d9d14f4a8a35a482e0d9bf,60ede75a4bac6e1c3ea11b12,,,,,,,,,,,,
"[""period""]",0,[0.28680000000071004],113,0,113,0,1,60e2d5dcca60e8043355c326,Mężczyzna,23,2021-07-13_21h22.14.194,rantool2,2021.1.4,MacIntel,59.99880002,60e2d5dcca60e8043355c326,60d9d14f4a8a35a482e0d9bf,60ede75a4bac6e1c3ea11b12,,,,,,,,,,,,
"[""period""]",0,[0.22000000000002728],114,0,114,0,1,60e2d5dcca60e8043355c326,Mężczyzna,23,2021-07-13_21h22.14.194,rantool2,2021.1.4,MacIntel,59.99880002,60e2d5dcca60e8043355c326,60d9d14f4a8a35a482e0d9bf,60ede75a4bac6e1c3ea11b12,,,,,,,,,,,,
"[""comma"",""comma""]",0,"[-0.013300000000754153,0.7696000000015033]",115,0,115,0,1,60e2d5dcca60e8043355c326,Mężczyzna,23,2021-07-13_21h22.14.194,rantool2,2021.1.4,MacIntel,59.99880002,60e2d5dcca60e8043355c326,60d9d14f4a8a35a482e0d9bf,60ede75a4bac6e1c3ea11b12,,,,,,,,,,,,
"[""period""]",0,[0.5013000000007537],116,0,116,0,1,60e2d5dcca60e8043355c326,Mężczyzna,23,2021-07-13_21h22.14.194,rantool2,2021.1.4,MacIntel,59.99880002,60e2d5dcca60e8043355c326,60d9d14f4a8a35a482e0d9bf,60ede75a4bac6e1c3ea11b12,,,,,,,,,,,,
"[""comma""]",0,[0.33569999999929223],117,0,117,0,1,60e2d5dcca60e8043355c326,Mężczyzna,23,2021-07-13_21h22.14.194,rantool2,2021.1.4,MacIntel,59.99880002,60e2d5dcca60e8043355c326,60d9d14f4a8a35a482e0d9bf,60ede75a4bac6e1c3ea11b12,,,,,,,,,,,,
"[""period""]",0,[0.28619999999926904],118,0,118,0,1,60e2d5dcca60e8043355c326,Mężczyzna,23,2021-07-13_21h22.14.194,rantool2,2021.1.4,MacIntel,59.99880002,60e2d5dcca60e8043355c326,60d9d14f4a8a35a482e0d9bf,60ede75a4bac6e1c3ea11b12,,,,,,,,,,,,
"[""comma""]",0,[0.30349999999998545],119,0,119,0,1,60e2d5dcca60e8043355c326,Mężczyzna,23,2021-07-13_21h22.14.194,rantool2,2021.1.4,MacIntel,59.99880002,60e2d5dcca60e8043355c326,60d9d14f4a8a35a482e0d9bf,60ede75a4bac6e1c3ea11b12,,,,,,,,,,,,
,,,,,,,,60e2d5dcca60e8043355c326,Mężczyzna,23,2021-07-13_21h22.14.194,rantool2,2021.1.4,MacIntel,59.99880002,60e2d5dcca60e8043355c326,60d9d14f4a8a35a482e0d9bf,60ede75a4bac6e1c3ea11b12,j,3.2741,0,0,0,10,1,OOROROO,OOROROR,21.31236711,21.07490964,series_0
,,,,,,,,60e2d5dcca60e8043355c326,Mężczyzna,23,2021-07-13_21h22.14.194,rantool2,2021.1.4,MacIntel,59.99880002,60e2d5dcca60e8043355c326,60d9d14f4a8a35a482e0d9bf,60ede75a4bac6e1c3ea11b12,f,2.569,0,1,1,16,1,OROOOOO,OROOOOR,20.43051175,21.17347734,series_1
,,,,,,,,60e2d5dcca60e8043355c326,Mężczyzna,23,2021-07-13_21h22.14.194,rantool2,2021.1.4,MacIntel,59.99880002,60e2d5dcca60e8043355c326,60d9d14f4a8a35a482e0d9bf,60ede75a4bac6e1c3ea11b12,j,3.4036,0,2,2,46,1,RORRROO,RORRROR,22.00300695,21.24781509,series_0
,,,,,,,,60e2d5dcca60e8043355c326,Mężczyzna,23,2021-07-13_21h22.14.194,rantool2,2021.1.4,MacIntel,59.99880002,60e2d5dcca60e8043355c326,60d9d14f4a8a35a482e0d9bf,60ede75a4bac6e1c3ea11b12,f,2.2498,0,3,3,18,1,OROOROO,OROOROR,20.84860893,21.22513037,series_1
,,,,,,,,60e2d5dcca60e8043355c326,Mężczyzna,23,2021-07-13_21h22.14.194,rantool2,2021.1.4,MacIntel,59.99880002,60e2d5dcca60e8043355c326,60d9d14f4a8a35a482e0d9bf,60ede75a4bac6e1c3ea11b12,j,2.6529,0,4,4,50,1,RROOROO,RROOROR,21.73568164,22.02566557,series_1
,,,,,,,,60e2d5dcca60e8043355c326,Mężczyzna,23,2021-07-13_21h22.14.194,rantool2,2021.1.4,MacIntel,59.99880002,60e2d5dcca60e8043355c326,60d9d14f4a8a35a482e0d9bf,60ede75a4bac6e1c3ea11b12,f,1.1514,0,5,5,25,1,ORROORO,ORROORR,21.79500819,22.61624387,series_1
,,,,,,,,60e2d5dcca60e8043355c326,Mężczyzna,23,2021-07-13_21h22.14.194,rantool2,2021.1.4,MacIntel,59.99880002,60e2d5dcca60e8043355c326,60d9d14f4a8a35a482e0d9bf,60ede75a4bac6e1c3ea11b12,j,1.8683,0,6,6,52,1,RROROOO,RROROOR,22.18365867,22.11097995,series_0
,,,,,,,,60e2d5dcca60e8043355c326,Mężczyzna,23,2021-07-13_21h22.14.194,rantool2,2021.1.4,MacIntel,59.99880002,60e2d5dcca60e8043355c326,60d9d14f4a8a35a482e0d9bf,60ede75a4bac6e1c3ea11b12,f,1.5534,0,7,7,56,1,RRROOOO,RRROOOR,21.6194508,22.31681875,series_1
,,,,,,,,60e2d5dcca60e8043355c326,Mężczyzna,23,2021-07-13_21h22.14.194,rantool2,2021.1.4,MacIntel,59.99880002,60e2d5dcca60e8043355c326,60d9d14f4a8a35a482e0d9bf,60ede75a4bac6e1c3ea11b12,j,1.166,0,8,8,23,1,ORORRRO,ORORRRR,22.1285618,21.9921709,series_0
,,,,,,,,60e2d5dcca60e8043355c326,Mężczyzna,23,2021-07-13_21h22.14.194,rantool2,2021.1.4,MacIntel,59.99880002,60e2d5dcca60e8043355c326,60d9d14f4a8a35a482e0d9bf,60ede75a4bac6e1c3ea11b12,f,0.9851,0,9,9,33,1,ROOOORO,ROOOORR,20.83779602,22.03072203,series_1
,,,,,,,,60e2d5dcca60e8043355c326,Mężczyzna,23,2021-07-13_21h22.14.194,rantool2,2021.1.4,MacIntel,59.99880002,60e2d5dcca60e8043355c326,60d9d14f4a8a35a482e0d9bf,60ede75a4bac6e1c3ea11b12,j,1.5712,0,10,10,54,1,RRORROO,RRORROR,21.55250791,20.9984461,series_0
,,,,,,,,60e2d5dcca60e8043355c326,Mężczyzna,23,2021-07-13_21h22.14.194,rantool2,2021.1.4,MacIntel,59.99880002,60e2d5dcca60e8043355c326,60d9d14f4a8a35a482e0d9bf,60ede75a4bac6e1c3ea11b12,f,1.0423,0,11,11,53,1,RRORORO,RRORORR,20.71309134,21.90565814,series_1
,,,,,,,,60e2d5dcca60e8043355c326,Mężczyzna,23,2021-07-13_21h22.14.194,rantool2,2021.1.4,MacIntel,59.99880002,60e2d5dcca60e8043355c326,60d9d14f4a8a35a482e0d9bf,60ede75a4bac6e1c3ea11b12,j,1.2365,0,12,12,1,1,OOOOORO,OOOOORR,19.92253567,20.74050628,series_1
,,,,,,,,60e2d5dcca60e8043355c326,Mężczyzna,23,2021-07-13_21h22.14.194,rantool2,2021.1.4,MacIntel,59.99880002,60e2d5dcca60e8043355c326,60d9d14f4a8a35a482e0d9bf,60ede75a4bac6e1c3ea11b12,f,0.8519,0,13,13,32,1,ROOOOOO,ROOOOOR,19.92253567,21.27974287,series_1
,,,,,,,,60e2d5dcca60e8043355c326,Mężczyzna,23,2021-07-13_21h22.14.194,rantool2,2021.1.4,MacIntel,59.99880002,60e2d5dcca60e8043355c326,60d9d14f4a8a35a482e0d9bf,60ede75a4bac6e1c3ea11b12,j,0.9714,0,14,14,57,1,RRROORO,RRROORR,21.82425538,22.07102821,series_1
,,,,,,,,60e2d5dcca60e8043355c326,Mężczyzna,23,2021-07-13_21h22.14.194,rantool2,2021.1.4,MacIntel,59.99880002,60e2d5dcca60e8043355c326,60d9d14f4a8a35a482e0d9bf,60ede75a4bac6e1c3ea11b12,f,0.8518,0,15,15,35,1,ROOORRO,ROOORRR,21.76276513,22.16977179,series_1
,,,,,,,,60e2d5dcca60e8043355c326,Mężczyzna,23,2021-07-13_21h22.14.194,rantool2,2021.1.4,MacIntel,59.99880002,60e2d5dcca60e8043355c326,60d9d14f4a8a35a482e0d9bf,60ede75a4bac6e1c3ea11b12,j,1.1588,0,16,16,24,1,ORROOOO,ORROOOR,21.12383932,22.07102821,series_1
,,,,,,,,60e2d5dcca60e8043355c326,Mężczyzna,23,2021-07-13_21h22.14.194,rantool2,2021.1.4,MacIntel,59.99880002,60e2d5dcca60e8043355c326,60d9d14f4a8a35a482e0d9bf,60ede75a4bac6e1c3ea11b12,f,0.6179,0,17,17,58,1,RRROROO,RRROROR,22.1285618,21.37121559,series_0
,,,,,,,,60e2d5dcca60e8043355c326,Mężczyzna,23,2021-07-13_21h22.14.194,rantool2,2021.1.4,MacIntel,59.99880002,60e2d5dcca60e8043355c326,60d9d14f4a8a35a482e0d9bf,60ede75a4bac6e1c3ea11b12,j,0.6705,0,18,18,9,1,OOROORO,OOROORR,21.07991943,22.2428857,series_1
,,,,,,,,60e2d5dcca60e8043355c326,Mężczyzna,23,2021-07-13_21h22.14.194,rantool2,2021.1.4,MacIntel,59.99880002,60e2d5dcca60e8043355c326,60d9d14f4a8a35a482e0d9bf,60ede75a4bac6e1c3ea11b12,f,0.4338,0,19,19,60,1,RRRROOO,RRRROOR,22.10108823,22.15934078,series_1
,,,,,,,,60e2d5dcca60e8043355c326,Mężczyzna,23,2021-07-13_21h22.14.194,rantool2,2021.1.4,MacIntel,59.99880002,60e2d5dcca60e8043355c326,60d9d14f4a8a35a482e0d9bf,60ede75a4bac6e1c3ea11b12,j,0.7671,0,20,20,29,1,ORRRORO,ORRRORR,22.00300695,22.12173012,series_1
,,,,,,,,60e2d5dcca60e8043355c326,Mężczyzna,23,2021-07-13_21h22.14.194,rantool2,2021.1.4,MacIntel,59.99880002,60e2d5dcca60e8043355c326,60d9d14f4a8a35a482e0d9bf,60ede75a4bac6e1c3ea11b12,f,0.4909,0,21,21,51,1,RROORRO,RROORRR,21.89852628,22.02786418,series_1
,,,,,,,,60e2d5dcca60e8043355c326,Mężczyzna,23,2021-07-13_21h22.14.194,rantool2,2021.1.4,MacIntel,59.99880002,60e2d5dcca60e8043355c326,60d9d14f4a8a35a482e0d9bf,60ede75a4bac6e1c3ea11b12,j,0.884,0,22,22,13,1,OORRORO,OORRORR,21.66733484,22.11181017,series_1
,,,,,,,,60e2d5dcca60e8043355c326,Mężczyzna,23,2021-07-13_21h22.14.194,rantool2,2021.1.4,MacIntel,59.99880002,60e2d5dcca60e8043355c326,60d9d14f4a8a35a482e0d9bf,60ede75a4bac6e1c3ea11b12,f,0.6601,0,23,23,28,1,ORRROOO,ORRROOR,22.24142883,22.53364006,series_1
,,,,,,,,60e2d5dcca60e8043355c326,Mężczyzna,23,2021-07-13_21h22.14.194,rantool2,2021.1.4,MacIntel,59.99880002,60e2d5dcca60e8043355c326,60d9d14f4a8a35a482e0d9bf,60ede75a4bac6e1c3ea11b12,j,1.551,0,24,24,62,1,RRRRROO,RRRRROR,22.16413392,21.27974287,series_0
,,,,,,,,60e2d5dcca60e8043355c326,Mężczyzna,23,2021-07-13_21h22.14.194,rantool2,2021.1.4,MacIntel,59.99880002,60e2d5dcca60e8043355c326,60d9d14f4a8a35a482e0d9bf,60ede75a4bac6e1c3ea11b12,f,0.7356,0,25,25,8,1,OOROOOO,OOROOOR,19.91402015,20.89823192,series_1
,,,,,,,,60e2d5dcca60e8043355c326,Mężczyzna,23,2021-07-13_21h22.14.194,rantool2,2021.1.4,MacIntel,59.99880002,60e2d5dcca60e8043355c326,60d9d14f4a8a35a482e0d9bf,60ede75a4bac6e1c3ea11b12,j,0.6353,0,26,26,36,1,ROOROOO,ROOROOR,21.07991943,20.9984461,series_0
,,,,,,,,60e2d5dcca60e8043355c326,Mężczyzna,23,2021-07-13_21h22.14.194,rantool2,2021.1.4,MacIntel,59.99880002,60e2d5dcca60e8043355c326,60d9d14f4a8a35a482e0d9bf,60ede75a4bac6e1c3ea11b12,f,0.6038,0,27,27,43,1,RORORRO,RORORRR,20.71309134,21.07490964,series_1
,,,,,,,,60e2d5dcca60e8043355c326,Mężczyzna,23,2021-07-13_21h22.14.194,rantool2,2021.1.4,MacIntel,59.99880002,60e2d5dcca60e8043355c326,60d9d14f4a8a35a482e0d9bf,60ede75a4bac6e1c3ea11b12,j,0.8671,0,28,28,27,1,ORRORRO,ORRORRR,21.55250791,22.2428857,series_1
,,,,,,,,60e2d5dcca60e8043355c326,Mężczyzna,23,2021-07-13_21h22.14.194,rantool2,2021.1.4,MacIntel,59.99880002,60e2d5dcca60e8043355c326,60d9d14f4a8a35a482e0d9bf,60ede75a4bac6e1c3ea11b12,j,0.7661,0,29,29,0,1,OOOOOOO,OOOOOOR,18.52739004,19.62521613,series_1
,,,,,,,,60e2d5dcca60e8043355c326,Mężczyzna,23,2021-07-13_21h22.14.194,rantool2,2021.1.4,MacIntel,59.99880002,60e2d5dcca60e8043355c326,60d9d14f4a8a35a482e0d9bf,60ede75a4bac6e1c3ea11b12,f,0.6364,0,30,30,26,1,ORROROO,ORROROR,22.02732763,21.71443381,series_0
,,,,,,,,60e2d5dcca60e8043355c326,Mężczyzna,23,2021-07-13_21h22.14.194,rantool2,2021.1.4,MacIntel,59.99880002,60e2d5dcca60e8043355c326,60d9d14f4a8a35a482e0d9bf,60ede75a4bac6e1c3ea11b12,f,0.7691,0,31,31,19,1,OROORRO,OROORRR,21.73568164,22.11181017,series_1
,,,,,,,,60e2d5dcca60e8043355c326,Mężczyzna,23,2021-07-13_21h22.14.194,rantool2,2021.1.4,MacIntel,59.99880002,60e2d5dcca60e8043355c326,60d9d14f4a8a35a482e0d9bf,60ede75a4bac6e1c3ea11b12,j,0.7057,0,32,32,3,1,OOOORRO,OOOORRR,20.90986523,21.74922619,series_1
,,,,,,,,60e2d5dcca60e8043355c326,Mężczyzna,23,2021-07-13_21h22.14.194,rantool2,2021.1.4,MacIntel,59.99880002,60e2d5dcca60e8043355c326,60d9d14f4a8a35a482e0d9bf,60ede75a4bac6e1c3ea11b12,j,0.9162,0,33,33,38,1,ROORROO,ROORROR,21.79500819,21.36812781,series_0
,,,,,,,,60e2d5dcca60e8043355c326,Mężczyzna,23,2021-07-13_21h22.14.194,rantool2,2021.1.4,MacIntel,59.99880002,60e2d5dcca60e8043355c326,60d9d14f4a8a35a482e0d9bf,60ede75a4bac6e1c3ea11b12,f,0.6042,0,34,34,20,1,OROROOO,OROROOR,21.31236711,21.90565814,series_1
,,,,,,,,60e2d5dcca60e8043355c326,Mężczyzna,23,2021-07-13_21h22.14.194,rantool2,2021.1.4,MacIntel,59.99880002,60e2d5dcca60e8043355c326,60d9d14f4a8a35a482e0d9bf,60ede75a4bac6e1c3ea11b12,f,0.9509,0,35,35,6,1,OOORROO,OOORROR,21.12383932,21.38562617,series_1
,,,,,,,,60e2d5dcca60e8043355c326,Mężczyzna,23,2021-07-13_21h22.14.194,rantool2,2021.1.4,MacIntel,59.99880002,60e2d5dcca60e8043355c326,60d9d14f4a8a35a482e0d9bf,60ede75a4bac6e1c3ea11b12,j,0.7021,0,36,36,5,1,OOORORO,OOORORR,20.87963819,21.9921709,series_1
,,,,,,,,60e2d5dcca60e8043355c326,Mężczyzna,23,2021-07-13_21h22.14.194,rantool2,2021.1.4,MacIntel,59.99880002,60e2d5dcca60e8043355c326,60d9d14f4a8a35a482e0d9bf,60ede75a4bac6e1c3ea11b12,j,0.9886,0,37,37,2,1,OOOOROO,OOOOROR,20.43051175,21.02936224,series_1
,,,,,,,,60e2d5dcca60e8043355c326,Mężczyzna,23,2021-07-13_21h22.14.194,rantool2,2021.1.4,MacIntel,59.99880002,60e2d5dcca60e8043355c326,60d9d14f4a8a35a482e0d9bf,60ede75a4bac6e1c3ea11b12,f,0.6583,0,38,38,17,1,OROOORO,OROOORR,21.03750787,22.12173012,series_1
,,,,,,,,60e2d5dcca60e8043355c326,Mężczyzna,23,2021-07-13_21h22.14.194,rantool2,2021.1.4,MacIntel,59.99880002,60e2d5dcca60e8043355c326,60d9d14f4a8a35a482e0d9bf,60ede75a4bac6e1c3ea11b12,f,0.8212,0,39,39,48,1,RROOOOO,RROOOOR,20.90986523,22.15934078,series_1
,,,,,,,,60e2d5dcca60e8043355c326,Mężczyzna,23,2021-07-13_21h22.14.194,rantool2,2021.1.4,MacIntel,59.99880002,60e2d5dcca60e8043355c326,60d9d14f4a8a35a482e0d9bf,60ede75a4bac6e1c3ea11b12,j,0.8334,0,40,40,14,1,OORRROO,OORRROR,22.24142883,22.16977179,series_0
,,,,,,,,60e2d5dcca60e8043355c326,Mężczyzna,23,2021-07-13_21h22.14.194,rantool2,2021.1.4,MacIntel,59.99880002,60e2d5dcca60e8043355c326,60d9d14f4a8a35a482e0d9bf,60ede75a4bac6e1c3ea11b12,j,0.8276,0,41,41,44,1,RORROOO,RORROOR,21.66733484,22.02566557,series_1
,,,,,,,,60e2d5dcca60e8043355c326,Mężczyzna,23,2021-07-13_21h22.14.194,rantool2,2021.1.4,MacIntel,59.99880002,60e2d5dcca60e8043355c326,60d9d14f4a8a35a482e0d9bf,60ede75a4bac6e1c3ea11b12,f,0.6352,0,42,42,21,1,ORORORO,ORORORR,20.39515459,22.06781359,series_1
,,,,,,,,60e2d5dcca60e8043355c326,Mężczyzna,23,2021-07-13_21h22.14.194,rantool2,2021.1.4,MacIntel,59.99880002,60e2d5dcca60e8043355c326,60d9d14f4a8a35a482e0d9bf,60ede75a4bac6e1c3ea11b12,f,0.7256,0,43,43,49,1,RROOORO,RROOORR,21.76276513,22.53364006,series_1
,,,,,,,,60e2d5dcca60e8043355c326,Mężczyzna,23,2021-07-13_21h22.14.194,rantool2,2021.1.4,MacIntel,59.99880002,60e2d5dcca60e8043355c326,60d9d14f4a8a35a482e0d9bf,60ede75a4bac6e1c3ea11b12,j,0.7673,0,44,44,7,1,OOORRRO,OOORRRR,21.6194508,21.899017,series_1
,,,,,,,,60e2d5dcca60e8043355c326,Mężczyzna,23,2021-07-13_21h22.14.194,rantool2,2021.1.4,MacIntel,59.99880002,60e2d5dcca60e8043355c326,60d9d14f4a8a35a482e0d9bf,60ede75a4bac6e1c3ea11b12,j,0.623,0,45,45,61,1,RRRRORO,RRRRORR,21.81333602,21.17347734,series_0
,,,,,,,,60e2d5dcca60e8043355c326,Mężczyzna,23,2021-07-13_21h22.14.194,rantool2,2021.1.4,MacIntel,59.99880002,60e2d5dcca60e8043355c326,60d9d14f4a8a35a482e0d9bf,60ede75a4bac6e1c3ea11b12,f,0.7226,0,46,46,22,1,ORORROO,ORORROR,22.02732763,21.57657071,series_0
,,,,,,,,60e2d5dcca60e8043355c326,Mężczyzna,23,2021-07-13_21h22.14.194,rantool2,2021.1.4,MacIntel,59.99880002,60e2d5dcca60e8043355c326,60d9d14f4a8a35a482e0d9bf,60ede75a4bac6e1c3ea11b12,f,0.636,0,47,47,11,1,OORORRO,OORORRR,22.18365867,22.6797523,series_1
,,,,,,,,60e2d5dcca60e8043355c326,Mężczyzna,23,2021-07-13_21h22.14.194,rantool2,2021.1.4,MacIntel,59.99880002,60e2d5dcca60e8043355c326,60d9d14f4a8a35a482e0d9bf,60ede75a4bac6e1c3ea11b12,j,0.9002,0,48,48,47,1,RORRRRO,RORRRRR,21.81333602,21.02936224,series_0
,,,,,,,,60e2d5dcca60e8043355c326,Mężczyzna,23,2021-07-13_21h22.14.194,rantool2,2021.1.4,MacIntel,59.99880002,60e2d5dcca60e8043355c326,60d9d14f4a8a35a482e0d9bf,60ede75a4bac6e1c3ea11b12,f,0.5834,0,49,49,37,1,ROORORO,ROORORR,20.42602454,21.57657071,series_1
,,,,,,,,60e2d5dcca60e8043355c326,Mężczyzna,23,2021-07-13_21h22.14.194,rantool2,2021.1.4,MacIntel,59.99880002,60e2d5dcca60e8043355c326,60d9d14f4a8a35a482e0d9bf,60ede75a4bac6e1c3ea11b12,j,0.6041,0,50,50,31,1,ORRRRRO,ORRRRRR,22.16413392,20.74050628,series_0
,,,,,,,,60e2d5dcca60e8043355c326,Mężczyzna,23,2021-07-13_21h22.14.194,rantool2,2021.1.4,MacIntel,59.99880002,60e2d5dcca60e8043355c326,60d9d14f4a8a35a482e0d9bf,60ede75a4bac6e1c3ea11b12,j,0.7839,0,51,51,40,1,ROROOOO,ROROOOR,20.87963819,21.37121559,series_1
,,,,,,,,60e2d5dcca60e8043355c326,Mężczyzna,23,2021-07-13_21h22.14.194,rantool2,2021.1.4,MacIntel,59.99880002,60e2d5dcca60e8043355c326,60d9d14f4a8a35a482e0d9bf,60ede75a4bac6e1c3ea11b12,f,0.4832,0,52,52,45,1,RORRORO,RORRORR,20.78182524,21.22513037,series_1
,,,,,,,,60e2d5dcca60e8043355c326,Mężczyzna,23,2021-07-13_21h22.14.194,rantool2,2021.1.4,MacIntel,59.99880002,60e2d5dcca60e8043355c326,60d9d14f4a8a35a482e0d9bf,60ede75a4bac6e1c3ea11b12,f,0.6834,0,53,53,59,1,RRRORRO,RRRORRR,21.56657303,20.89823192,series_0
,,,,,,,,60e2d5dcca60e8043355c326,Mężczyzna,23,2021-07-13_21h22.14.194,rantool2,2021.1.4,MacIntel,59.99880002,60e2d5dcca60e8043355c326,60d9d14f4a8a35a482e0d9bf,60ede75a4bac6e1c3ea11b12,j,0.5997,0,54,54,4,1,OOOROOO,OOOROOR,19.91402015,21.21223021,series_1
,,,,,,,,60e2d5dcca60e8043355c326,Mężczyzna,23,2021-07-13_21h22.14.194,rantool2,2021.1.4,MacIntel,59.99880002,60e2d5dcca60e8043355c326,60d9d14f4a8a35a482e0d9bf,60ede75a4bac6e1c3ea11b12,j,0.6001,0,55,55,34,1,ROOOROO,ROOOROR,21.03750787,21.24781509,series_1
,,,,,,,,60e2d5dcca60e8043355c326,Mężczyzna,23,2021-07-13_21h22.14.194,rantool2,2021.1.4,MacIntel,59.99880002,60e2d5dcca60e8043355c326,60d9d14f4a8a35a482e0d9bf,60ede75a4bac6e1c3ea11b12,f,0.59,0,56,56,42,1,ROROROO,ROROROR,20.39515459,19.8361834,series_0
,,,,,,,,60e2d5dcca60e8043355c326,Mężczyzna,23,2021-07-13_21h22.14.194,rantool2,2021.1.4,MacIntel,59.99880002,60e2d5dcca60e8043355c326,60d9d14f4a8a35a482e0d9bf,60ede75a4bac6e1c3ea11b12,f,0.6576,0,57,57,63,1,RRRRRRO,RRRRRRR,21.35278725,19.62521613,series_0
,,,,,,,,60e2d5dcca60e8043355c326,Mężczyzna,23,2021-07-13_21h22.14.194,rantool2,2021.1.4,MacIntel,59.99880002,60e2d5dcca60e8043355c326,60d9d14f4a8a35a482e0d9bf,60ede75a4bac6e1c3ea11b12,j,0.6667,0,58,58,41,1,ROROORO,ROROORR,20.42602454,21.71443381,series_1
,,,,,,,,60e2d5dcca60e8043355c326,Mężczyzna,23,2021-07-13_21h22.14.194,rantool2,2021.1.4,MacIntel,59.99880002,60e2d5dcca60e8043355c326,60d9d14f4a8a35a482e0d9bf,60ede75a4bac6e1c3ea11b12,j,0.5595,0,59,59,39,1,ROORRRO,ROORRRR,21.82425538,21.38562617,series_0
,,,,,,,,60e2d5dcca60e8043355c326,Mężczyzna,23,2021-07-13_21h22.14.194,rantool2,2021.1.4,MacIntel,59.99880002,60e2d5dcca60e8043355c326,60d9d14f4a8a35a482e0d9bf,60ede75a4bac6e1c3ea11b12,f,0.5673,0,60,60,15,1,OORRRRO,OORRRRR,22.10108823,21.74922619,series_0
,,,,,,,,60e2d5dcca60e8043355c326,Mężczyzna,23,2021-07-13_21h22.14.194,rantool2,2021.1.4,MacIntel,59.99880002,60e2d5dcca60e8043355c326,60d9d14f4a8a35a482e0d9bf,60ede75a4bac6e1c3ea11b12,f,0.671,0,61,61,12,1,OORROOO,OORROOR,21.30250474,22.02786418,series_1
,,,,,,,,60e2d5dcca60e8043355c326,Mężczyzna,23,2021-07-13_21h22.14.194,rantool2,2021.1.4,MacIntel,59.99880002,60e2d5dcca60e8043355c326,60d9d14f4a8a35a482e0d9bf,60ede75a4bac6e1c3ea11b12,j,0.6415,0,62,62,55,1,RRORRRO,RRORRRR,21.56657303,21.21223021,series_0
,,,,,,,,60e2d5dcca60e8043355c326,Mężczyzna,23,2021-07-13_21h22.14.194,rantool2,2021.1.4,MacIntel,59.99880002,60e2d5dcca60e8043355c326,60d9d14f4a8a35a482e0d9bf,60ede75a4bac6e1c3ea11b12,j,0.6178,0,63,63,30,1,ORRRROO,ORRRROR,22.46748491,22.03072203,series_0
