key_resp_5.keys,key_resp_5.corr,key_resp_5.rt,trials.thisRepN,trials.thisTrialN,trials.thisN,trials.thisIndex,trials.ran,id*,Płeć*,Wiek*,date,expName,psychopyVersion,OS,frameRate,id,STUDY_ID,SESSION_ID,key_resp_7.keys,key_resp_7.rt,trials_2.thisRepN,trials_2.thisTrialN,trials_2.thisN,trials_2.thisIndex,trials_2.ran,series_0,series_1,acss_0,acss_1,comparison
"[""comma""]",0,[1.273099999994038],0,0,0,0,1,5f9703fb588a4d05da750510,Mężczyzna,21,2021-07-13_21h59.16.581,rantool2,2021.1.4,Win32,59.88023952,5f9703fb588a4d05da750510,60d9d14f4a8a35a482e0d9bf,60edef9c1c8eacaa4345fe69,,,,,,,,,,,,
"[""comma""]",0,[0.27289999999851133],1,0,1,0,1,5f9703fb588a4d05da750510,Mężczyzna,21,2021-07-13_21h59.16.581,rantool2,2021.1.4,Win32,59.88023952,5f9703fb588a4d05da750510,60d9d14f4a8a35a482e0d9bf,60edef9c1c8eacaa4345fe69,,,,,,,,,,,,
"[""period""]",0,[0.23429999999702034],2,0,2,0,1,5f9703fb588a4d05da750510,Mężczyzna,21,2021-07-13_21h59.16.581,rantool2,2021.1.4,Win32,59.88023952,5f9703fb588a4d05da750510,60d9d14f4a8a35a482e0d9bf,60edef9c1c8eacaa4345fe69,,,,,,,,,,,,
"[""comma""]",0,[0.23420000000298202],3,0,3,0,1,5f9703fb588a4d05da750510,Mężczyzna,21,2021-07-13_21h59.16.581,rantool2,2021.1.4,Win32,59.88023952,5f9703fb588a4d05da750510,60d9d14f4a8a35a482e0d9bf,60edef9c1c8eacaa4345fe69,,,,,,,,,,,,
"[""period""]",0,[0.22370000000297807],4,0,4,0,1,5f9703fb588a4d05da750510,Mężczyzna,21,2021-07-13_21h59.16.581,rantool2,2021.1.4,Win32,59.88023952,5f9703fb588a4d05da750510,60d9d14f4a8a35a482e0d9bf,60edef9c1c8eacaa4345fe69,,,,,,,,,,,,
"[""comma""]",0,[0.25060000000149074],5,0,5,0,1,5f9703fb588a4d05da750510,Mężczyzna,21,2021-07-13_21h59.16.581,rantool2,2021.1.4,Win32,59.88023952,5f9703fb588a4d05da750510,60d9d14f4a8a35a482e0d9bf,60edef9c1c8eacaa4345fe69,,,,,,,,,,,,
"[""comma""]",0,[0.24389999999851142],6,0,6,0,1,5f9703fb588a4d05da750510,Mężczyzna,21,2021-07-13_21h59.16.581,rantool2,2021.1.4,Win32,59.88023952,5f9703fb588a4d05da750510,60d9d14f4a8a35a482e0d9bf,60edef9c1c8eacaa4345fe69,,,,,,,,,,,,
"[""comma""]",0,[0.21180000000447308],7,0,7,0,1,5f9703fb588a4d05da750510,Mężczyzna,21,2021-07-13_21h59.16.581,rantool2,2021.1.4,Win32,59.88023952,5f9703fb588a4d05da750510,60d9d14f4a8a35a482e0d9bf,60edef9c1c8eacaa4345fe69,,,,,,,,,,,,
"[""comma""]",0,[0.21739999999850568],8,0,8,0,1,5f9703fb588a4d05da750510,Mężczyzna,21,2021-07-13_21h59.16.581,rantool2,2021.1.4,Win32,59.88023952,5f9703fb588a4d05da750510,60d9d14f4a8a35a482e0d9bf,60edef9c1c8eacaa4345fe69,,,,,,,,,,,,
"[""period""]",0,[0.1891000000014884],9,0,9,0,1,5f9703fb588a4d05da750510,Mężczyzna,21,2021-07-13_21h59.16.581,rantool2,2021.1.4,Win32,59.88023952,5f9703fb588a4d05da750510,60d9d14f4a8a35a482e0d9bf,60edef9c1c8eacaa4345fe69,,,,,,,,,,,,
"[""comma""]",0,[0.24519999999552766],10,0,10,0,1,5f9703fb588a4d05da750510,Mężczyzna,21,2021-07-13_21h59.16.581,rantool2,2021.1.4,Win32,59.88023952,5f9703fb588a4d05da750510,60d9d14f4a8a35a482e0d9bf,60edef9c1c8eacaa4345fe69,,,,,,,,,,,,
"[""period""]",0,[0.074399999998505],11,0,11,0,1,5f9703fb588a4d05da750510,Mężczyzna,21,2021-07-13_21h59.16.581,rantool2,2021.1.4,Win32,59.88023952,5f9703fb588a4d05da750510,60d9d14f4a8a35a482e0d9bf,60edef9c1c8eacaa4345fe69,,,,,,,,,,,,
"[""period""]",0,[0.20760000000148437],12,0,12,0,1,5f9703fb588a4d05da750510,Mężczyzna,21,2021-07-13_21h59.16.581,rantool2,2021.1.4,Win32,59.88023952,5f9703fb588a4d05da750510,60d9d14f4a8a35a482e0d9bf,60edef9c1c8eacaa4345fe69,,,,,,,,,,,,
"[""comma""]",0,[0.22659999999404334],13,0,13,0,1,5f9703fb588a4d05da750510,Mężczyzna,21,2021-07-13_21h59.16.581,rantool2,2021.1.4,Win32,59.88023952,5f9703fb588a4d05da750510,60d9d14f4a8a35a482e0d9bf,60edef9c1c8eacaa4345fe69,,,,,,,,,,,,
"[""comma""]",0,[0.20670000000298216],14,0,14,0,1,5f9703fb588a4d05da750510,Mężczyzna,21,2021-07-13_21h59.16.581,rantool2,2021.1.4,Win32,59.88023952,5f9703fb588a4d05da750510,60d9d14f4a8a35a482e0d9bf,60edef9c1c8eacaa4345fe69,,,,,,,,,,,,
"[""period""]",0,[0.2183000000044686],15,0,15,0,1,5f9703fb588a4d05da750510,Mężczyzna,21,2021-07-13_21h59.16.581,rantool2,2021.1.4,Win32,59.88023952,5f9703fb588a4d05da750510,60d9d14f4a8a35a482e0d9bf,60edef9c1c8eacaa4345fe69,,,,,,,,,,,,
"[""comma""]",0,[0.029299999997014936],16,0,16,0,1,5f9703fb588a4d05da750510,Mężczyzna,21,2021-07-13_21h59.16.581,rantool2,2021.1.4,Win32,59.88023952,5f9703fb588a4d05da750510,60d9d14f4a8a35a482e0d9bf,60edef9c1c8eacaa4345fe69,,,,,,,,,,,,
"[""comma""]",0,[0.18950000000000244],17,0,17,0,1,5f9703fb588a4d05da750510,Mężczyzna,21,2021-07-13_21h59.16.581,rantool2,2021.1.4,Win32,59.88023952,5f9703fb588a4d05da750510,60d9d14f4a8a35a482e0d9bf,60edef9c1c8eacaa4345fe69,,,,,,,,,,,,
"[""period"",""comma""]",0,"[0.2112999999970171,1.9341999999955277]",18,0,18,0,1,5f9703fb588a4d05da750510,Mężczyzna,21,2021-07-13_21h59.16.581,rantool2,2021.1.4,Win32,59.88023952,5f9703fb588a4d05da750510,60d9d14f4a8a35a482e0d9bf,60edef9c1c8eacaa4345fe69,,,,,,,,,,,,
"[""comma""]",0,[0.6709999999999994],19,0,19,0,1,5f9703fb588a4d05da750510,Mężczyzna,21,2021-07-13_21h59.16.581,rantool2,2021.1.4,Win32,59.88023952,5f9703fb588a4d05da750510,60d9d14f4a8a35a482e0d9bf,60edef9c1c8eacaa4345fe69,,,,,,,,,,,,
"[""period""]",0,[0.2093999999985101],20,0,20,0,1,5f9703fb588a4d05da750510,Mężczyzna,21,2021-07-13_21h59.16.581,rantool2,2021.1.4,Win32,59.88023952,5f9703fb588a4d05da750510,60d9d14f4a8a35a482e0d9bf,60edef9c1c8eacaa4345fe69,,,,,,,,,,,,
"[""comma""]",0,[0.251199999995535],21,0,21,0,1,5f9703fb588a4d05da750510,Mężczyzna,21,2021-07-13_21h59.16.581,rantool2,2021.1.4,Win32,59.88023952,5f9703fb588a4d05da750510,60d9d14f4a8a35a482e0d9bf,60edef9c1c8eacaa4345fe69,,,,,,,,,,,,
"[""comma""]",0,[0.26760000000149375],22,0,22,0,1,5f9703fb588a4d05da750510,Mężczyzna,21,2021-07-13_21h59.16.581,rantool2,2021.1.4,Win32,59.88023952,5f9703fb588a4d05da750510,60d9d14f4a8a35a482e0d9bf,60edef9c1c8eacaa4345fe69,,,,,,,,,,,,
"[""comma""]",0,[0.24330000000446717],23,0,23,0,1,5f9703fb588a4d05da750510,Mężczyzna,21,2021-07-13_21h59.16.581,rantool2,2021.1.4,Win32,59.88023952,5f9703fb588a4d05da750510,60d9d14f4a8a35a482e0d9bf,60edef9c1c8eacaa4345fe69,,,,,,,,,,,,
"[""comma""]",0,[0.16379999999702477],24,0,24,0,1,5f9703fb588a4d05da750510,Mężczyzna,21,2021-07-13_21h59.16.581,rantool2,2021.1.4,Win32,59.88023952,5f9703fb588a4d05da750510,60d9d14f4a8a35a482e0d9bf,60edef9c1c8eacaa4345fe69,,,,,,,,,,,,
"[""comma""]",0,[0.24610000000149057],25,0,25,0,1,5f9703fb588a4d05da750510,Mężczyzna,21,2021-07-13_21h59.16.581,rantool2,2021.1.4,Win32,59.88023952,5f9703fb588a4d05da750510,60d9d14f4a8a35a482e0d9bf,60edef9c1c8eacaa4345fe69,,,,,,,,,,,,
"[""period""]",0,[0.30929999999700897],26,0,26,0,1,5f9703fb588a4d05da750510,Mężczyzna,21,2021-07-13_21h59.16.581,rantool2,2021.1.4,Win32,59.88023952,5f9703fb588a4d05da750510,60d9d14f4a8a35a482e0d9bf,60edef9c1c8eacaa4345fe69,,,,,,,,,,,,
"[""comma""]",0,[0.21819999999551953],27,0,27,0,1,5f9703fb588a4d05da750510,Mężczyzna,21,2021-07-13_21h59.16.581,rantool2,2021.1.4,Win32,59.88023952,5f9703fb588a4d05da750510,60d9d14f4a8a35a482e0d9bf,60edef9c1c8eacaa4345fe69,,,,,,,,,,,,
"[""comma""]",0,[0.15420000000297307],28,0,28,0,1,5f9703fb588a4d05da750510,Mężczyzna,21,2021-07-13_21h59.16.581,rantool2,2021.1.4,Win32,59.88023952,5f9703fb588a4d05da750510,60d9d14f4a8a35a482e0d9bf,60edef9c1c8eacaa4345fe69,,,,,,,,,,,,
"[""period""]",0,[0.2588999999985191],29,0,29,0,1,5f9703fb588a4d05da750510,Mężczyzna,21,2021-07-13_21h59.16.581,rantool2,2021.1.4,Win32,59.88023952,5f9703fb588a4d05da750510,60d9d14f4a8a35a482e0d9bf,60edef9c1c8eacaa4345fe69,,,,,,,,,,,,
"[""comma""]",0,[0.2756000000014893],30,0,30,0,1,5f9703fb588a4d05da750510,Mężczyzna,21,2021-07-13_21h59.16.581,rantool2,2021.1.4,Win32,59.88023952,5f9703fb588a4d05da750510,60d9d14f4a8a35a482e0d9bf,60edef9c1c8eacaa4345fe69,,,,,,,,,,,,
"[""comma""]",0,[0.3340000000000032],31,0,31,0,1,5f9703fb588a4d05da750510,Mężczyzna,21,2021-07-13_21h59.16.581,rantool2,2021.1.4,Win32,59.88023952,5f9703fb588a4d05da750510,60d9d14f4a8a35a482e0d9bf,60edef9c1c8eacaa4345fe69,,,,,,,,,,,,
"[""comma""]",0,[0.27460000000149876],32,0,32,0,1,5f9703fb588a4d05da750510,Mężczyzna,21,2021-07-13_21h59.16.581,rantool2,2021.1.4,Win32,59.88023952,5f9703fb588a4d05da750510,60d9d14f4a8a35a482e0d9bf,60edef9c1c8eacaa4345fe69,,,,,,,,,,,,
"[""comma""]",0,[0.3111000000014883],33,0,33,0,1,5f9703fb588a4d05da750510,Mężczyzna,21,2021-07-13_21h59.16.581,rantool2,2021.1.4,Win32,59.88023952,5f9703fb588a4d05da750510,60d9d14f4a8a35a482e0d9bf,60edef9c1c8eacaa4345fe69,,,,,,,,,,,,
"[""period""]",0,[0.23410000000149012],34,0,34,0,1,5f9703fb588a4d05da750510,Mężczyzna,21,2021-07-13_21h59.16.581,rantool2,2021.1.4,Win32,59.88023952,5f9703fb588a4d05da750510,60d9d14f4a8a35a482e0d9bf,60edef9c1c8eacaa4345fe69,,,,,,,,,,,,
"[""comma""]",0,[0.30450000000000443],35,0,35,0,1,5f9703fb588a4d05da750510,Mężczyzna,21,2021-07-13_21h59.16.581,rantool2,2021.1.4,Win32,59.88023952,5f9703fb588a4d05da750510,60d9d14f4a8a35a482e0d9bf,60edef9c1c8eacaa4345fe69,,,,,,,,,,,,
"[""comma""]",0,[0.35079999999700817],36,0,36,0,1,5f9703fb588a4d05da750510,Mężczyzna,21,2021-07-13_21h59.16.581,rantool2,2021.1.4,Win32,59.88023952,5f9703fb588a4d05da750510,60d9d14f4a8a35a482e0d9bf,60edef9c1c8eacaa4345fe69,,,,,,,,,,,,
"[""period""]",0,[0.4164999999999992],37,0,37,0,1,5f9703fb588a4d05da750510,Mężczyzna,21,2021-07-13_21h59.16.581,rantool2,2021.1.4,Win32,59.88023952,5f9703fb588a4d05da750510,60d9d14f4a8a35a482e0d9bf,60edef9c1c8eacaa4345fe69,,,,,,,,,,,,
"[""comma""]",0,[0.3889999999999958],38,0,38,0,1,5f9703fb588a4d05da750510,Mężczyzna,21,2021-07-13_21h59.16.581,rantool2,2021.1.4,Win32,59.88023952,5f9703fb588a4d05da750510,60d9d14f4a8a35a482e0d9bf,60edef9c1c8eacaa4345fe69,,,,,,,,,,,,
"[""comma""]",0,[0.4466000000014816],39,0,39,0,1,5f9703fb588a4d05da750510,Mężczyzna,21,2021-07-13_21h59.16.581,rantool2,2021.1.4,Win32,59.88023952,5f9703fb588a4d05da750510,60d9d14f4a8a35a482e0d9bf,60edef9c1c8eacaa4345fe69,,,,,,,,,,,,
"[""comma""]",0,[0.5020000000000095],40,0,40,0,1,5f9703fb588a4d05da750510,Mężczyzna,21,2021-07-13_21h59.16.581,rantool2,2021.1.4,Win32,59.88023952,5f9703fb588a4d05da750510,60d9d14f4a8a35a482e0d9bf,60edef9c1c8eacaa4345fe69,,,,,,,,,,,,
"[""comma""]",0,[0.6641000000014969],41,0,41,0,1,5f9703fb588a4d05da750510,Mężczyzna,21,2021-07-13_21h59.16.581,rantool2,2021.1.4,Win32,59.88023952,5f9703fb588a4d05da750510,60d9d14f4a8a35a482e0d9bf,60edef9c1c8eacaa4345fe69,,,,,,,,,,,,
"[""comma""]",0,[0.2839999999999918],42,0,42,0,1,5f9703fb588a4d05da750510,Mężczyzna,21,2021-07-13_21h59.16.581,rantool2,2021.1.4,Win32,59.88023952,5f9703fb588a4d05da750510,60d9d14f4a8a35a482e0d9bf,60edef9c1c8eacaa4345fe69,,,,,,,,,,,,
"[""comma""]",0,[0.3771000000014908],43,0,43,0,1,5f9703fb588a4d05da750510,Mężczyzna,21,2021-07-13_21h59.16.581,rantool2,2021.1.4,Win32,59.88023952,5f9703fb588a4d05da750510,60d9d14f4a8a35a482e0d9bf,60edef9c1c8eacaa4345fe69,,,,,,,,,,,,
"[""comma""]",0,[0.5702999999970189],44,0,44,0,1,5f9703fb588a4d05da750510,Mężczyzna,21,2021-07-13_21h59.16.581,rantool2,2021.1.4,Win32,59.88023952,5f9703fb588a4d05da750510,60d9d14f4a8a35a482e0d9bf,60edef9c1c8eacaa4345fe69,,,,,,,,,,,,
"[""period""]",0,[0.4933999999985019],45,0,45,0,1,5f9703fb588a4d05da750510,Mężczyzna,21,2021-07-13_21h59.16.581,rantool2,2021.1.4,Win32,59.88023952,5f9703fb588a4d05da750510,60d9d14f4a8a35a482e0d9bf,60edef9c1c8eacaa4345fe69,,,,,,,,,,,,
"[""comma""]",0,[0.4713000000044758],46,0,46,0,1,5f9703fb588a4d05da750510,Mężczyzna,21,2021-07-13_21h59.16.581,rantool2,2021.1.4,Win32,59.88023952,5f9703fb588a4d05da750510,60d9d14f4a8a35a482e0d9bf,60edef9c1c8eacaa4345fe69,,,,,,,,,,,,
"[""comma""]",0,[0.29139999999850374],47,0,47,0,1,5f9703fb588a4d05da750510,Mężczyzna,21,2021-07-13_21h59.16.581,rantool2,2021.1.4,Win32,59.88023952,5f9703fb588a4d05da750510,60d9d14f4a8a35a482e0d9bf,60edef9c1c8eacaa4345fe69,,,,,,,,,,,,
0,0,,48,0,48,0,1,5f9703fb588a4d05da750510,Mężczyzna,21,2021-07-13_21h59.16.581,rantool2,2021.1.4,Win32,59.88023952,5f9703fb588a4d05da750510,60d9d14f4a8a35a482e0d9bf,60edef9c1c8eacaa4345fe69,,,,,,,,,,,,
"[""comma""]",0,[0.4140000000000015],49,0,49,0,1,5f9703fb588a4d05da750510,Mężczyzna,21,2021-07-13_21h59.16.581,rantool2,2021.1.4,Win32,59.88023952,5f9703fb588a4d05da750510,60d9d14f4a8a35a482e0d9bf,60edef9c1c8eacaa4345fe69,,,,,,,,,,,,
"[""period""]",0,[0.2798999999985057],50,0,50,0,1,5f9703fb588a4d05da750510,Mężczyzna,21,2021-07-13_21h59.16.581,rantool2,2021.1.4,Win32,59.88023952,5f9703fb588a4d05da750510,60d9d14f4a8a35a482e0d9bf,60edef9c1c8eacaa4345fe69,,,,,,,,,,,,
"[""comma""]",0,[1.883400000005949],51,0,51,0,1,5f9703fb588a4d05da750510,Mężczyzna,21,2021-07-13_21h59.16.581,rantool2,2021.1.4,Win32,59.88023952,5f9703fb588a4d05da750510,60d9d14f4a8a35a482e0d9bf,60edef9c1c8eacaa4345fe69,,,,,,,,,,,,
"[""comma"",""comma""]",0,"[0.3770999999940443,1.8167999999970164]",52,0,52,0,1,5f9703fb588a4d05da750510,Mężczyzna,21,2021-07-13_21h59.16.581,rantool2,2021.1.4,Win32,59.88023952,5f9703fb588a4d05da750510,60d9d14f4a8a35a482e0d9bf,60edef9c1c8eacaa4345fe69,,,,,,,,,,,,
"[""comma""]",0,[0.4187999999970202],53,0,53,0,1,5f9703fb588a4d05da750510,Mężczyzna,21,2021-07-13_21h59.16.581,rantool2,2021.1.4,Win32,59.88023952,5f9703fb588a4d05da750510,60d9d14f4a8a35a482e0d9bf,60edef9c1c8eacaa4345fe69,,,,,,,,,,,,
"[""comma""]",0,[0.28999999999999204],54,0,54,0,1,5f9703fb588a4d05da750510,Mężczyzna,21,2021-07-13_21h59.16.581,rantool2,2021.1.4,Win32,59.88023952,5f9703fb588a4d05da750510,60d9d14f4a8a35a482e0d9bf,60edef9c1c8eacaa4345fe69,,,,,,,,,,,,
"[""period""]",0,[0.33429999999702886],55,0,55,0,1,5f9703fb588a4d05da750510,Mężczyzna,21,2021-07-13_21h59.16.581,rantool2,2021.1.4,Win32,59.88023952,5f9703fb588a4d05da750510,60d9d14f4a8a35a482e0d9bf,60edef9c1c8eacaa4345fe69,,,,,,,,,,,,
"[""comma""]",0,[0.40610000000148716],56,0,56,0,1,5f9703fb588a4d05da750510,Mężczyzna,21,2021-07-13_21h59.16.581,rantool2,2021.1.4,Win32,59.88023952,5f9703fb588a4d05da750510,60d9d14f4a8a35a482e0d9bf,60edef9c1c8eacaa4345fe69,,,,,,,,,,,,
"[""comma""]",0,[0.38390000000595137],57,0,57,0,1,5f9703fb588a4d05da750510,Mężczyzna,21,2021-07-13_21h59.16.581,rantool2,2021.1.4,Win32,59.88023952,5f9703fb588a4d05da750510,60d9d14f4a8a35a482e0d9bf,60edef9c1c8eacaa4345fe69,,,,,,,,,,,,
"[""period""]",0,[0.2933999999985133],58,0,58,0,1,5f9703fb588a4d05da750510,Mężczyzna,21,2021-07-13_21h59.16.581,rantool2,2021.1.4,Win32,59.88023952,5f9703fb588a4d05da750510,60d9d14f4a8a35a482e0d9bf,60edef9c1c8eacaa4345fe69,,,,,,,,,,,,
"[""comma""]",0,[0.25239999999848806],59,0,59,0,1,5f9703fb588a4d05da750510,Mężczyzna,21,2021-07-13_21h59.16.581,rantool2,2021.1.4,Win32,59.88023952,5f9703fb588a4d05da750510,60d9d14f4a8a35a482e0d9bf,60edef9c1c8eacaa4345fe69,,,,,,,,,,,,
"[""period""]",0,[0.24329999999702068],60,0,60,0,1,5f9703fb588a4d05da750510,Mężczyzna,21,2021-07-13_21h59.16.581,rantool2,2021.1.4,Win32,59.88023952,5f9703fb588a4d05da750510,60d9d14f4a8a35a482e0d9bf,60edef9c1c8eacaa4345fe69,,,,,,,,,,,,
"[""period""]",0,[0.26110000000147693],61,0,61,0,1,5f9703fb588a4d05da750510,Mężczyzna,21,2021-07-13_21h59.16.581,rantool2,2021.1.4,Win32,59.88023952,5f9703fb588a4d05da750510,60d9d14f4a8a35a482e0d9bf,60edef9c1c8eacaa4345fe69,,,,,,,,,,,,
"[""period""]",0,[0.28389999999851057],62,0,62,0,1,5f9703fb588a4d05da750510,Mężczyzna,21,2021-07-13_21h59.16.581,rantool2,2021.1.4,Win32,59.88023952,5f9703fb588a4d05da750510,60d9d14f4a8a35a482e0d9bf,60edef9c1c8eacaa4345fe69,,,,,,,,,,,,
"[""comma""]",0,[0.2909999999999968],63,0,63,0,1,5f9703fb588a4d05da750510,Mężczyzna,21,2021-07-13_21h59.16.581,rantool2,2021.1.4,Win32,59.88023952,5f9703fb588a4d05da750510,60d9d14f4a8a35a482e0d9bf,60edef9c1c8eacaa4345fe69,,,,,,,,,,,,
"[""comma""]",0,[0.4011000000014917],64,0,64,0,1,5f9703fb588a4d05da750510,Mężczyzna,21,2021-07-13_21h59.16.581,rantool2,2021.1.4,Win32,59.88023952,5f9703fb588a4d05da750510,60d9d14f4a8a35a482e0d9bf,60edef9c1c8eacaa4345fe69,,,,,,,,,,,,
"[""comma""]",0,[0.41800000000000637],65,0,65,0,1,5f9703fb588a4d05da750510,Mężczyzna,21,2021-07-13_21h59.16.581,rantool2,2021.1.4,Win32,59.88023952,5f9703fb588a4d05da750510,60d9d14f4a8a35a482e0d9bf,60edef9c1c8eacaa4345fe69,,,,,,,,,,,,
"[""comma""]",0,[0.3031999999955417],66,0,66,0,1,5f9703fb588a4d05da750510,Mężczyzna,21,2021-07-13_21h59.16.581,rantool2,2021.1.4,Win32,59.88023952,5f9703fb588a4d05da750510,60d9d14f4a8a35a482e0d9bf,60edef9c1c8eacaa4345fe69,,,,,,,,,,,,
"[""comma""]",0,[0.27789999999851034],67,0,67,0,1,5f9703fb588a4d05da750510,Mężczyzna,21,2021-07-13_21h59.16.581,rantool2,2021.1.4,Win32,59.88023952,5f9703fb588a4d05da750510,60d9d14f4a8a35a482e0d9bf,60edef9c1c8eacaa4345fe69,,,,,,,,,,,,
"[""period""]",0,[0.3682000000029575],68,0,68,0,1,5f9703fb588a4d05da750510,Mężczyzna,21,2021-07-13_21h59.16.581,rantool2,2021.1.4,Win32,59.88023952,5f9703fb588a4d05da750510,60d9d14f4a8a35a482e0d9bf,60edef9c1c8eacaa4345fe69,,,,,,,,,,,,
"[""comma"",""period""]",0,"[0.52800000000002,0.5340000000000202]",69,0,69,0,1,5f9703fb588a4d05da750510,Mężczyzna,21,2021-07-13_21h59.16.581,rantool2,2021.1.4,Win32,59.88023952,5f9703fb588a4d05da750510,60d9d14f4a8a35a482e0d9bf,60edef9c1c8eacaa4345fe69,,,,,,,,,,,,
"[""comma""]",0,[0.3297999999970216],70,0,70,0,1,5f9703fb588a4d05da750510,Mężczyzna,21,2021-07-13_21h59.16.581,rantool2,2021.1.4,Win32,59.88023952,5f9703fb588a4d05da750510,60d9d14f4a8a35a482e0d9bf,60edef9c1c8eacaa4345fe69,,,,,,,,,,,,
"[""comma""]",0,[0.30070000000296204],71,0,71,0,1,5f9703fb588a4d05da750510,Mężczyzna,21,2021-07-13_21h59.16.581,rantool2,2021.1.4,Win32,59.88023952,5f9703fb588a4d05da750510,60d9d14f4a8a35a482e0d9bf,60edef9c1c8eacaa4345fe69,,,,,,,,,,,,
"[""comma""]",0,[0.3618999999985135],72,0,72,0,1,5f9703fb588a4d05da750510,Mężczyzna,21,2021-07-13_21h59.16.581,rantool2,2021.1.4,Win32,59.88023952,5f9703fb588a4d05da750510,60d9d14f4a8a35a482e0d9bf,60edef9c1c8eacaa4345fe69,,,,,,,,,,,,
"[""period""]",0,[0.25920000000297705],73,0,73,0,1,5f9703fb588a4d05da750510,Mężczyzna,21,2021-07-13_21h59.16.581,rantool2,2021.1.4,Win32,59.88023952,5f9703fb588a4d05da750510,60d9d14f4a8a35a482e0d9bf,60edef9c1c8eacaa4345fe69,,,,,,,,,,,,
"[""period""]",0,[0.3172000000029698],74,0,74,0,1,5f9703fb588a4d05da750510,Mężczyzna,21,2021-07-13_21h59.16.581,rantool2,2021.1.4,Win32,59.88023952,5f9703fb588a4d05da750510,60d9d14f4a8a35a482e0d9bf,60edef9c1c8eacaa4345fe69,,,,,,,,,,,,
"[""comma""]",0,[0.3141999999955374],75,0,75,0,1,5f9703fb588a4d05da750510,Mężczyzna,21,2021-07-13_21h59.16.581,rantool2,2021.1.4,Win32,59.88023952,5f9703fb588a4d05da750510,60d9d14f4a8a35a482e0d9bf,60edef9c1c8eacaa4345fe69,,,,,,,,,,,,
"[""period""]",0,[0.2185000000000059],76,0,76,0,1,5f9703fb588a4d05da750510,Mężczyzna,21,2021-07-13_21h59.16.581,rantool2,2021.1.4,Win32,59.88023952,5f9703fb588a4d05da750510,60d9d14f4a8a35a482e0d9bf,60edef9c1c8eacaa4345fe69,,,,,,,,,,,,
"[""period""]",0,[0.30580000000446717],77,0,77,0,1,5f9703fb588a4d05da750510,Mężczyzna,21,2021-07-13_21h59.16.581,rantool2,2021.1.4,Win32,59.88023952,5f9703fb588a4d05da750510,60d9d14f4a8a35a482e0d9bf,60edef9c1c8eacaa4345fe69,,,,,,,,,,,,
"[""period""]",0,[0.30560000000150467],78,0,78,0,1,5f9703fb588a4d05da750510,Mężczyzna,21,2021-07-13_21h59.16.581,rantool2,2021.1.4,Win32,59.88023952,5f9703fb588a4d05da750510,60d9d14f4a8a35a482e0d9bf,60edef9c1c8eacaa4345fe69,,,,,,,,,,,,
"[""comma""]",0,[0.38390000000595137],79,0,79,0,1,5f9703fb588a4d05da750510,Mężczyzna,21,2021-07-13_21h59.16.581,rantool2,2021.1.4,Win32,59.88023952,5f9703fb588a4d05da750510,60d9d14f4a8a35a482e0d9bf,60edef9c1c8eacaa4345fe69,,,,,,,,,,,,
"[""comma""]",0,[0.3510999999940623],80,0,80,0,1,5f9703fb588a4d05da750510,Mężczyzna,21,2021-07-13_21h59.16.581,rantool2,2021.1.4,Win32,59.88023952,5f9703fb588a4d05da750510,60d9d14f4a8a35a482e0d9bf,60edef9c1c8eacaa4345fe69,,,,,,,,,,,,
"[""period""]",0,[0.4274999999999807],81,0,81,0,1,5f9703fb588a4d05da750510,Mężczyzna,21,2021-07-13_21h59.16.581,rantool2,2021.1.4,Win32,59.88023952,5f9703fb588a4d05da750510,60d9d14f4a8a35a482e0d9bf,60edef9c1c8eacaa4345fe69,,,,,,,,,,,,
"[""comma""]",0,[0.27180000000444693],82,0,82,0,1,5f9703fb588a4d05da750510,Mężczyzna,21,2021-07-13_21h59.16.581,rantool2,2021.1.4,Win32,59.88023952,5f9703fb588a4d05da750510,60d9d14f4a8a35a482e0d9bf,60edef9c1c8eacaa4345fe69,,,,,,,,,,,,
"[""period""]",0,[0.3838999999985049],83,0,83,0,1,5f9703fb588a4d05da750510,Mężczyzna,21,2021-07-13_21h59.16.581,rantool2,2021.1.4,Win32,59.88023952,5f9703fb588a4d05da750510,60d9d14f4a8a35a482e0d9bf,60edef9c1c8eacaa4345fe69,,,,,,,,,,,,
"[""comma""]",0,[0.155799999997015],84,0,84,0,1,5f9703fb588a4d05da750510,Mężczyzna,21,2021-07-13_21h59.16.581,rantool2,2021.1.4,Win32,59.88023952,5f9703fb588a4d05da750510,60d9d14f4a8a35a482e0d9bf,60edef9c1c8eacaa4345fe69,,,,,,,,,,,,
"[""comma""]",0,[0.21770000000296363],85,0,85,0,1,5f9703fb588a4d05da750510,Mężczyzna,21,2021-07-13_21h59.16.581,rantool2,2021.1.4,Win32,59.88023952,5f9703fb588a4d05da750510,60d9d14f4a8a35a482e0d9bf,60edef9c1c8eacaa4345fe69,,,,,,,,,,,,
"[""comma""]",0,[0.2727000000029989],86,0,86,0,1,5f9703fb588a4d05da750510,Mężczyzna,21,2021-07-13_21h59.16.581,rantool2,2021.1.4,Win32,59.88023952,5f9703fb588a4d05da750510,60d9d14f4a8a35a482e0d9bf,60edef9c1c8eacaa4345fe69,,,,,,,,,,,,
"[""comma""]",0,[0.28420000000298273],87,0,87,0,1,5f9703fb588a4d05da750510,Mężczyzna,21,2021-07-13_21h59.16.581,rantool2,2021.1.4,Win32,59.88023952,5f9703fb588a4d05da750510,60d9d14f4a8a35a482e0d9bf,60edef9c1c8eacaa4345fe69,,,,,,,,,,,,
"[""comma""]",0,[0.30820000000298364],88,0,88,0,1,5f9703fb588a4d05da750510,Mężczyzna,21,2021-07-13_21h59.16.581,rantool2,2021.1.4,Win32,59.88023952,5f9703fb588a4d05da750510,60d9d14f4a8a35a482e0d9bf,60edef9c1c8eacaa4345fe69,,,,,,,,,,,,
"[""comma""]",0,[0.3064999999999998],89,0,89,0,1,5f9703fb588a4d05da750510,Mężczyzna,21,2021-07-13_21h59.16.581,rantool2,2021.1.4,Win32,59.88023952,5f9703fb588a4d05da750510,60d9d14f4a8a35a482e0d9bf,60edef9c1c8eacaa4345fe69,,,,,,,,,,,,
"[""comma""]",0,[0.3058999999985019],90,0,90,0,1,5f9703fb588a4d05da750510,Mężczyzna,21,2021-07-13_21h59.16.581,rantool2,2021.1.4,Win32,59.88023952,5f9703fb588a4d05da750510,60d9d14f4a8a35a482e0d9bf,60edef9c1c8eacaa4345fe69,,,,,,,,,,,,
"[""comma""]",0,[0.2870999999940409],91,0,91,0,1,5f9703fb588a4d05da750510,Mężczyzna,21,2021-07-13_21h59.16.581,rantool2,2021.1.4,Win32,59.88023952,5f9703fb588a4d05da750510,60d9d14f4a8a35a482e0d9bf,60edef9c1c8eacaa4345fe69,,,,,,,,,,,,
"[""comma""]",0,[0.42709999999402726],92,0,92,0,1,5f9703fb588a4d05da750510,Mężczyzna,21,2021-07-13_21h59.16.581,rantool2,2021.1.4,Win32,59.88023952,5f9703fb588a4d05da750510,60d9d14f4a8a35a482e0d9bf,60edef9c1c8eacaa4345fe69,,,,,,,,,,,,
"[""comma""]",0,[0.2696000000015033],93,0,93,0,1,5f9703fb588a4d05da750510,Mężczyzna,21,2021-07-13_21h59.16.581,rantool2,2021.1.4,Win32,59.88023952,5f9703fb588a4d05da750510,60d9d14f4a8a35a482e0d9bf,60edef9c1c8eacaa4345fe69,,,,,,,,,,,,
"[""comma""]",0,[0.2963999999984992],94,0,94,0,1,5f9703fb588a4d05da750510,Mężczyzna,21,2021-07-13_21h59.16.581,rantool2,2021.1.4,Win32,59.88023952,5f9703fb588a4d05da750510,60d9d14f4a8a35a482e0d9bf,60edef9c1c8eacaa4345fe69,,,,,,,,,,,,
"[""comma""]",0,[0.26319999999552124],95,0,95,0,1,5f9703fb588a4d05da750510,Mężczyzna,21,2021-07-13_21h59.16.581,rantool2,2021.1.4,Win32,59.88023952,5f9703fb588a4d05da750510,60d9d14f4a8a35a482e0d9bf,60edef9c1c8eacaa4345fe69,,,,,,,,,,,,
"[""comma""]",0,[0.2905999999940434],96,0,96,0,1,5f9703fb588a4d05da750510,Mężczyzna,21,2021-07-13_21h59.16.581,rantool2,2021.1.4,Win32,59.88023952,5f9703fb588a4d05da750510,60d9d14f4a8a35a482e0d9bf,60edef9c1c8eacaa4345fe69,,,,,,,,,,,,
"[""period""]",0,[0.717199999995529],97,0,97,0,1,5f9703fb588a4d05da750510,Mężczyzna,21,2021-07-13_21h59.16.581,rantool2,2021.1.4,Win32,59.88023952,5f9703fb588a4d05da750510,60d9d14f4a8a35a482e0d9bf,60edef9c1c8eacaa4345fe69,,,,,,,,,,,,
0,0,,98,0,98,0,1,5f9703fb588a4d05da750510,Mężczyzna,21,2021-07-13_21h59.16.581,rantool2,2021.1.4,Win32,59.88023952,5f9703fb588a4d05da750510,60d9d14f4a8a35a482e0d9bf,60edef9c1c8eacaa4345fe69,,,,,,,,,,,,
"[""comma""]",0,[0.3234000000059609],99,0,99,0,1,5f9703fb588a4d05da750510,Mężczyzna,21,2021-07-13_21h59.16.581,rantool2,2021.1.4,Win32,59.88023952,5f9703fb588a4d05da750510,60d9d14f4a8a35a482e0d9bf,60edef9c1c8eacaa4345fe69,,,,,,,,,,,,
"[""period""]",0,[0.2131000000014751],100,0,100,0,1,5f9703fb588a4d05da750510,Mężczyzna,21,2021-07-13_21h59.16.581,rantool2,2021.1.4,Win32,59.88023952,5f9703fb588a4d05da750510,60d9d14f4a8a35a482e0d9bf,60edef9c1c8eacaa4345fe69,,,,,,,,,,,,
"[""comma""]",0,[0.255899999998519],101,0,101,0,1,5f9703fb588a4d05da750510,Mężczyzna,21,2021-07-13_21h59.16.581,rantool2,2021.1.4,Win32,59.88023952,5f9703fb588a4d05da750510,60d9d14f4a8a35a482e0d9bf,60edef9c1c8eacaa4345fe69,,,,,,,,,,,,
"[""comma""]",0,[0.3010999999940509],102,0,102,0,1,5f9703fb588a4d05da750510,Mężczyzna,21,2021-07-13_21h59.16.581,rantool2,2021.1.4,Win32,59.88023952,5f9703fb588a4d05da750510,60d9d14f4a8a35a482e0d9bf,60edef9c1c8eacaa4345fe69,,,,,,,,,,,,
"[""comma""]",0,[0.3003999999985183],103,0,103,0,1,5f9703fb588a4d05da750510,Mężczyzna,21,2021-07-13_21h59.16.581,rantool2,2021.1.4,Win32,59.88023952,5f9703fb588a4d05da750510,60d9d14f4a8a35a482e0d9bf,60edef9c1c8eacaa4345fe69,,,,,,,,,,,,
"[""comma""]",0,[0.28389999999848214],104,0,104,0,1,5f9703fb588a4d05da750510,Mężczyzna,21,2021-07-13_21h59.16.581,rantool2,2021.1.4,Win32,59.88023952,5f9703fb588a4d05da750510,60d9d14f4a8a35a482e0d9bf,60edef9c1c8eacaa4345fe69,,,,,,,,,,,,
"[""comma""]",0,[0.2865999999940527],105,0,105,0,1,5f9703fb588a4d05da750510,Mężczyzna,21,2021-07-13_21h59.16.581,rantool2,2021.1.4,Win32,59.88023952,5f9703fb588a4d05da750510,60d9d14f4a8a35a482e0d9bf,60edef9c1c8eacaa4345fe69,,,,,,,,,,,,
"[""comma""]",0,[0.30910000000147875],106,0,106,0,1,5f9703fb588a4d05da750510,Mężczyzna,21,2021-07-13_21h59.16.581,rantool2,2021.1.4,Win32,59.88023952,5f9703fb588a4d05da750510,60d9d14f4a8a35a482e0d9bf,60edef9c1c8eacaa4345fe69,,,,,,,,,,,,
"[""comma""]",0,[0.2642000000029725],107,0,107,0,1,5f9703fb588a4d05da750510,Mężczyzna,21,2021-07-13_21h59.16.581,rantool2,2021.1.4,Win32,59.88023952,5f9703fb588a4d05da750510,60d9d14f4a8a35a482e0d9bf,60edef9c1c8eacaa4345fe69,,,,,,,,,,,,
"[""comma""]",0,[0.14099999999999113],108,0,108,0,1,5f9703fb588a4d05da750510,Mężczyzna,21,2021-07-13_21h59.16.581,rantool2,2021.1.4,Win32,59.88023952,5f9703fb588a4d05da750510,60d9d14f4a8a35a482e0d9bf,60edef9c1c8eacaa4345fe69,,,,,,,,,,,,
"[""comma""]",0,[0.21999999999999886],109,0,109,0,1,5f9703fb588a4d05da750510,Mężczyzna,21,2021-07-13_21h59.16.581,rantool2,2021.1.4,Win32,59.88023952,5f9703fb588a4d05da750510,60d9d14f4a8a35a482e0d9bf,60edef9c1c8eacaa4345fe69,,,,,,,,,,,,
"[""comma""]",0,[0.28390000000595705],110,0,110,0,1,5f9703fb588a4d05da750510,Mężczyzna,21,2021-07-13_21h59.16.581,rantool2,2021.1.4,Win32,59.88023952,5f9703fb588a4d05da750510,60d9d14f4a8a35a482e0d9bf,60edef9c1c8eacaa4345fe69,,,,,,,,,,,,
"[""period""]",0,[0.3728999999985092],111,0,111,0,1,5f9703fb588a4d05da750510,Mężczyzna,21,2021-07-13_21h59.16.581,rantool2,2021.1.4,Win32,59.88023952,5f9703fb588a4d05da750510,60d9d14f4a8a35a482e0d9bf,60edef9c1c8eacaa4345fe69,,,,,,,,,,,,
"[""comma""]",0,[0.22229999999700567],112,0,112,0,1,5f9703fb588a4d05da750510,Mężczyzna,21,2021-07-13_21h59.16.581,rantool2,2021.1.4,Win32,59.88023952,5f9703fb588a4d05da750510,60d9d14f4a8a35a482e0d9bf,60edef9c1c8eacaa4345fe69,,,,,,,,,,,,
"[""comma""]",0,[0.10060000000149216],113,0,113,0,1,5f9703fb588a4d05da750510,Mężczyzna,21,2021-07-13_21h59.16.581,rantool2,2021.1.4,Win32,59.88023952,5f9703fb588a4d05da750510,60d9d14f4a8a35a482e0d9bf,60edef9c1c8eacaa4345fe69,,,,,,,,,,,,
"[""comma""]",0,[0.27950000000001296],114,0,114,0,1,5f9703fb588a4d05da750510,Mężczyzna,21,2021-07-13_21h59.16.581,rantool2,2021.1.4,Win32,59.88023952,5f9703fb588a4d05da750510,60d9d14f4a8a35a482e0d9bf,60edef9c1c8eacaa4345fe69,,,,,,,,,,,,
"[""comma""]",0,[0.0619999999999834],115,0,115,0,1,5f9703fb588a4d05da750510,Mężczyzna,21,2021-07-13_21h59.16.581,rantool2,2021.1.4,Win32,59.88023952,5f9703fb588a4d05da750510,60d9d14f4a8a35a482e0d9bf,60edef9c1c8eacaa4345fe69,,,,,,,,,,,,
"[""period""]",0,[0.284300000004464],116,0,116,0,1,5f9703fb588a4d05da750510,Mężczyzna,21,2021-07-13_21h59.16.581,rantool2,2021.1.4,Win32,59.88023952,5f9703fb588a4d05da750510,60d9d14f4a8a35a482e0d9bf,60edef9c1c8eacaa4345fe69,,,,,,,,,,,,
"[""comma""]",0,[0.3199999999999932],117,0,117,0,1,5f9703fb588a4d05da750510,Mężczyzna,21,2021-07-13_21h59.16.581,rantool2,2021.1.4,Win32,59.88023952,5f9703fb588a4d05da750510,60d9d14f4a8a35a482e0d9bf,60edef9c1c8eacaa4345fe69,,,,,,,,,,,,
"[""period""]",0,[0.2671000000015056],118,0,118,0,1,5f9703fb588a4d05da750510,Mężczyzna,21,2021-07-13_21h59.16.581,rantool2,2021.1.4,Win32,59.88023952,5f9703fb588a4d05da750510,60d9d14f4a8a35a482e0d9bf,60edef9c1c8eacaa4345fe69,,,,,,,,,,,,
"[""period""]",0,[0.6838000000044531],119,0,119,0,1,5f9703fb588a4d05da750510,Mężczyzna,21,2021-07-13_21h59.16.581,rantool2,2021.1.4,Win32,59.88023952,5f9703fb588a4d05da750510,60d9d14f4a8a35a482e0d9bf,60edef9c1c8eacaa4345fe69,,,,,,,,,,,,
,,,,,,,,5f9703fb588a4d05da750510,Mężczyzna,21,2021-07-13_21h59.16.581,rantool2,2021.1.4,Win32,59.88023952,5f9703fb588a4d05da750510,60d9d14f4a8a35a482e0d9bf,60edef9c1c8eacaa4345fe69,f,4.0019,0,0,0,15,1,OORRRRO,OORRRRR,22.10108823,21.74922619,series_0
,,,,,,,,5f9703fb588a4d05da750510,Mężczyzna,21,2021-07-13_21h59.16.581,rantool2,2021.1.4,Win32,59.88023952,5f9703fb588a4d05da750510,60d9d14f4a8a35a482e0d9bf,60edef9c1c8eacaa4345fe69,j,3.0513,0,1,1,1,1,OOOOORO,OOOOORR,19.92253567,20.74050628,series_1
,,,,,,,,5f9703fb588a4d05da750510,Mężczyzna,21,2021-07-13_21h59.16.581,rantool2,2021.1.4,Win32,59.88023952,5f9703fb588a4d05da750510,60d9d14f4a8a35a482e0d9bf,60edef9c1c8eacaa4345fe69,j,2.7342,0,2,2,27,1,ORRORRO,ORRORRR,21.55250791,22.2428857,series_1
,,,,,,,,5f9703fb588a4d05da750510,Mężczyzna,21,2021-07-13_21h59.16.581,rantool2,2021.1.4,Win32,59.88023952,5f9703fb588a4d05da750510,60d9d14f4a8a35a482e0d9bf,60edef9c1c8eacaa4345fe69,f,4.0361,0,3,3,52,1,RROROOO,RROROOR,22.18365867,22.11097995,series_0
,,,,,,,,5f9703fb588a4d05da750510,Mężczyzna,21,2021-07-13_21h59.16.581,rantool2,2021.1.4,Win32,59.88023952,5f9703fb588a4d05da750510,60d9d14f4a8a35a482e0d9bf,60edef9c1c8eacaa4345fe69,j,3.9172,0,4,4,49,1,RROOORO,RROOORR,21.76276513,22.53364006,series_1
,,,,,,,,5f9703fb588a4d05da750510,Mężczyzna,21,2021-07-13_21h59.16.581,rantool2,2021.1.4,Win32,59.88023952,5f9703fb588a4d05da750510,60d9d14f4a8a35a482e0d9bf,60edef9c1c8eacaa4345fe69,f,2.0512,0,5,5,4,1,OOOROOO,OOOROOR,19.91402015,21.21223021,series_1
,,,,,,,,5f9703fb588a4d05da750510,Mężczyzna,21,2021-07-13_21h59.16.581,rantool2,2021.1.4,Win32,59.88023952,5f9703fb588a4d05da750510,60d9d14f4a8a35a482e0d9bf,60edef9c1c8eacaa4345fe69,f,3.3203,0,6,6,25,1,ORROORO,ORROORR,21.79500819,22.61624387,series_1
,,,,,,,,5f9703fb588a4d05da750510,Mężczyzna,21,2021-07-13_21h59.16.581,rantool2,2021.1.4,Win32,59.88023952,5f9703fb588a4d05da750510,60d9d14f4a8a35a482e0d9bf,60edef9c1c8eacaa4345fe69,f,2.3307,0,7,7,59,1,RRRORRO,RRRORRR,21.56657303,20.89823192,series_0
,,,,,,,,5f9703fb588a4d05da750510,Mężczyzna,21,2021-07-13_21h59.16.581,rantool2,2021.1.4,Win32,59.88023952,5f9703fb588a4d05da750510,60d9d14f4a8a35a482e0d9bf,60edef9c1c8eacaa4345fe69,j,1.3873,0,8,8,20,1,OROROOO,OROROOR,21.31236711,21.90565814,series_1
,,,,,,,,5f9703fb588a4d05da750510,Mężczyzna,21,2021-07-13_21h59.16.581,rantool2,2021.1.4,Win32,59.88023952,5f9703fb588a4d05da750510,60d9d14f4a8a35a482e0d9bf,60edef9c1c8eacaa4345fe69,f,2.1847,0,9,9,18,1,OROOROO,OROOROR,20.84860893,21.22513037,series_1
,,,,,,,,5f9703fb588a4d05da750510,Mężczyzna,21,2021-07-13_21h59.16.581,rantool2,2021.1.4,Win32,59.88023952,5f9703fb588a4d05da750510,60d9d14f4a8a35a482e0d9bf,60edef9c1c8eacaa4345fe69,f,1.8254,0,10,10,61,1,RRRRORO,RRRRORR,21.81333602,21.17347734,series_0
,,,,,,,,5f9703fb588a4d05da750510,Mężczyzna,21,2021-07-13_21h59.16.581,rantool2,2021.1.4,Win32,59.88023952,5f9703fb588a4d05da750510,60d9d14f4a8a35a482e0d9bf,60edef9c1c8eacaa4345fe69,f,1.6975,0,11,11,51,1,RROORRO,RROORRR,21.89852628,22.02786418,series_1
,,,,,,,,5f9703fb588a4d05da750510,Mężczyzna,21,2021-07-13_21h59.16.581,rantool2,2021.1.4,Win32,59.88023952,5f9703fb588a4d05da750510,60d9d14f4a8a35a482e0d9bf,60edef9c1c8eacaa4345fe69,j,1.2725,0,12,12,10,1,OOROROO,OOROROR,21.31236711,21.07490964,series_0
,,,,,,,,5f9703fb588a4d05da750510,Mężczyzna,21,2021-07-13_21h59.16.581,rantool2,2021.1.4,Win32,59.88023952,5f9703fb588a4d05da750510,60d9d14f4a8a35a482e0d9bf,60edef9c1c8eacaa4345fe69,f,2.2848,0,13,13,7,1,OOORRRO,OOORRRR,21.6194508,21.899017,series_1
,,,,,,,,5f9703fb588a4d05da750510,Mężczyzna,21,2021-07-13_21h59.16.581,rantool2,2021.1.4,Win32,59.88023952,5f9703fb588a4d05da750510,60d9d14f4a8a35a482e0d9bf,60edef9c1c8eacaa4345fe69,j,1.7895,0,14,14,47,1,RORRRRO,RORRRRR,21.81333602,21.02936224,series_0
,,,,,,,,5f9703fb588a4d05da750510,Mężczyzna,21,2021-07-13_21h59.16.581,rantool2,2021.1.4,Win32,59.88023952,5f9703fb588a4d05da750510,60d9d14f4a8a35a482e0d9bf,60edef9c1c8eacaa4345fe69,j,2.1311,0,15,15,30,1,ORRRROO,ORRRROR,22.46748491,22.03072203,series_0
,,,,,,,,5f9703fb588a4d05da750510,Mężczyzna,21,2021-07-13_21h59.16.581,rantool2,2021.1.4,Win32,59.88023952,5f9703fb588a4d05da750510,60d9d14f4a8a35a482e0d9bf,60edef9c1c8eacaa4345fe69,j,1.0189,0,16,16,2,1,OOOOROO,OOOOROR,20.43051175,21.02936224,series_1
,,,,,,,,5f9703fb588a4d05da750510,Mężczyzna,21,2021-07-13_21h59.16.581,rantool2,2021.1.4,Win32,59.88023952,5f9703fb588a4d05da750510,60d9d14f4a8a35a482e0d9bf,60edef9c1c8eacaa4345fe69,j,1.4834,0,17,17,9,1,OOROORO,OOROORR,21.07991943,22.2428857,series_1
,,,,,,,,5f9703fb588a4d05da750510,Mężczyzna,21,2021-07-13_21h59.16.581,rantool2,2021.1.4,Win32,59.88023952,5f9703fb588a4d05da750510,60d9d14f4a8a35a482e0d9bf,60edef9c1c8eacaa4345fe69,j,1.2687,0,18,18,40,1,ROROOOO,ROROOOR,20.87963819,21.37121559,series_1
,,,,,,,,5f9703fb588a4d05da750510,Mężczyzna,21,2021-07-13_21h59.16.581,rantool2,2021.1.4,Win32,59.88023952,5f9703fb588a4d05da750510,60d9d14f4a8a35a482e0d9bf,60edef9c1c8eacaa4345fe69,f,1.4478,0,19,19,16,1,OROOOOO,OROOOOR,20.43051175,21.17347734,series_1
,,,,,,,,5f9703fb588a4d05da750510,Mężczyzna,21,2021-07-13_21h59.16.581,rantool2,2021.1.4,Win32,59.88023952,5f9703fb588a4d05da750510,60d9d14f4a8a35a482e0d9bf,60edef9c1c8eacaa4345fe69,j,1.457,0,20,20,19,1,OROORRO,OROORRR,21.73568164,22.11181017,series_1
,,,,,,,,5f9703fb588a4d05da750510,Mężczyzna,21,2021-07-13_21h59.16.581,rantool2,2021.1.4,Win32,59.88023952,5f9703fb588a4d05da750510,60d9d14f4a8a35a482e0d9bf,60edef9c1c8eacaa4345fe69,f,1.3535,0,21,21,53,1,RRORORO,RRORORR,20.71309134,21.90565814,series_1
,,,,,,,,5f9703fb588a4d05da750510,Mężczyzna,21,2021-07-13_21h59.16.581,rantool2,2021.1.4,Win32,59.88023952,5f9703fb588a4d05da750510,60d9d14f4a8a35a482e0d9bf,60edef9c1c8eacaa4345fe69,f,3.0904,0,22,22,54,1,RRORROO,RRORROR,21.55250791,20.9984461,series_0
,,,,,,,,5f9703fb588a4d05da750510,Mężczyzna,21,2021-07-13_21h59.16.581,rantool2,2021.1.4,Win32,59.88023952,5f9703fb588a4d05da750510,60d9d14f4a8a35a482e0d9bf,60edef9c1c8eacaa4345fe69,j,1.7478,0,23,23,46,1,RORRROO,RORRROR,22.00300695,21.24781509,series_0
,,,,,,,,5f9703fb588a4d05da750510,Mężczyzna,21,2021-07-13_21h59.16.581,rantool2,2021.1.4,Win32,59.88023952,5f9703fb588a4d05da750510,60d9d14f4a8a35a482e0d9bf,60edef9c1c8eacaa4345fe69,j,1.487,0,24,24,58,1,RRROROO,RRROROR,22.1285618,21.37121559,series_0
,,,,,,,,5f9703fb588a4d05da750510,Mężczyzna,21,2021-07-13_21h59.16.581,rantool2,2021.1.4,Win32,59.88023952,5f9703fb588a4d05da750510,60d9d14f4a8a35a482e0d9bf,60edef9c1c8eacaa4345fe69,f,1.7486,0,25,25,21,1,ORORORO,ORORORR,20.39515459,22.06781359,series_1
,,,,,,,,5f9703fb588a4d05da750510,Mężczyzna,21,2021-07-13_21h59.16.581,rantool2,2021.1.4,Win32,59.88023952,5f9703fb588a4d05da750510,60d9d14f4a8a35a482e0d9bf,60edef9c1c8eacaa4345fe69,j,1.7073,0,26,26,31,1,ORRRRRO,ORRRRRR,22.16413392,20.74050628,series_0
,,,,,,,,5f9703fb588a4d05da750510,Mężczyzna,21,2021-07-13_21h59.16.581,rantool2,2021.1.4,Win32,59.88023952,5f9703fb588a4d05da750510,60d9d14f4a8a35a482e0d9bf,60edef9c1c8eacaa4345fe69,j,2.8806,0,27,27,3,1,OOOORRO,OOOORRR,20.90986523,21.74922619,series_1
,,,,,,,,5f9703fb588a4d05da750510,Mężczyzna,21,2021-07-13_21h59.16.581,rantool2,2021.1.4,Win32,59.88023952,5f9703fb588a4d05da750510,60d9d14f4a8a35a482e0d9bf,60edef9c1c8eacaa4345fe69,f,1.357,0,28,28,62,1,RRRRROO,RRRRROR,22.16413392,21.27974287,series_0
,,,,,,,,5f9703fb588a4d05da750510,Mężczyzna,21,2021-07-13_21h59.16.581,rantool2,2021.1.4,Win32,59.88023952,5f9703fb588a4d05da750510,60d9d14f4a8a35a482e0d9bf,60edef9c1c8eacaa4345fe69,j,1.5708,0,29,29,42,1,ROROROO,ROROROR,20.39515459,19.8361834,series_0
,,,,,,,,5f9703fb588a4d05da750510,Mężczyzna,21,2021-07-13_21h59.16.581,rantool2,2021.1.4,Win32,59.88023952,5f9703fb588a4d05da750510,60d9d14f4a8a35a482e0d9bf,60edef9c1c8eacaa4345fe69,j,1.5651,0,30,30,36,1,ROOROOO,ROOROOR,21.07991943,20.9984461,series_0
,,,,,,,,5f9703fb588a4d05da750510,Mężczyzna,21,2021-07-13_21h59.16.581,rantool2,2021.1.4,Win32,59.88023952,5f9703fb588a4d05da750510,60d9d14f4a8a35a482e0d9bf,60edef9c1c8eacaa4345fe69,f,1.1748,0,31,31,6,1,OOORROO,OOORROR,21.12383932,21.38562617,series_1
,,,,,,,,5f9703fb588a4d05da750510,Mężczyzna,21,2021-07-13_21h59.16.581,rantool2,2021.1.4,Win32,59.88023952,5f9703fb588a4d05da750510,60d9d14f4a8a35a482e0d9bf,60edef9c1c8eacaa4345fe69,f,1.6164,0,32,32,41,1,ROROORO,ROROORR,20.42602454,21.71443381,series_1
,,,,,,,,5f9703fb588a4d05da750510,Mężczyzna,21,2021-07-13_21h59.16.581,rantool2,2021.1.4,Win32,59.88023952,5f9703fb588a4d05da750510,60d9d14f4a8a35a482e0d9bf,60edef9c1c8eacaa4345fe69,f,1.4146,0,33,33,29,1,ORRRORO,ORRRORR,22.00300695,22.12173012,series_1
,,,,,,,,5f9703fb588a4d05da750510,Mężczyzna,21,2021-07-13_21h59.16.581,rantool2,2021.1.4,Win32,59.88023952,5f9703fb588a4d05da750510,60d9d14f4a8a35a482e0d9bf,60edef9c1c8eacaa4345fe69,f,2.0773,0,34,34,56,1,RRROOOO,RRROOOR,21.6194508,22.31681875,series_1
,,,,,,,,5f9703fb588a4d05da750510,Mężczyzna,21,2021-07-13_21h59.16.581,rantool2,2021.1.4,Win32,59.88023952,5f9703fb588a4d05da750510,60d9d14f4a8a35a482e0d9bf,60edef9c1c8eacaa4345fe69,f,1.072,0,35,35,48,1,RROOOOO,RROOOOR,20.90986523,22.15934078,series_1
,,,,,,,,5f9703fb588a4d05da750510,Mężczyzna,21,2021-07-13_21h59.16.581,rantool2,2021.1.4,Win32,59.88023952,5f9703fb588a4d05da750510,60d9d14f4a8a35a482e0d9bf,60edef9c1c8eacaa4345fe69,j,1.1031,0,36,36,45,1,RORRORO,RORRORR,20.78182524,21.22513037,series_1
,,,,,,,,5f9703fb588a4d05da750510,Mężczyzna,21,2021-07-13_21h59.16.581,rantool2,2021.1.4,Win32,59.88023952,5f9703fb588a4d05da750510,60d9d14f4a8a35a482e0d9bf,60edef9c1c8eacaa4345fe69,j,1.4277,0,37,37,5,1,OOORORO,OOORORR,20.87963819,21.9921709,series_1
,,,,,,,,5f9703fb588a4d05da750510,Mężczyzna,21,2021-07-13_21h59.16.581,rantool2,2021.1.4,Win32,59.88023952,5f9703fb588a4d05da750510,60d9d14f4a8a35a482e0d9bf,60edef9c1c8eacaa4345fe69,f,1.2833,0,38,38,26,1,ORROROO,ORROROR,22.02732763,21.71443381,series_0
,,,,,,,,5f9703fb588a4d05da750510,Mężczyzna,21,2021-07-13_21h59.16.581,rantool2,2021.1.4,Win32,59.88023952,5f9703fb588a4d05da750510,60d9d14f4a8a35a482e0d9bf,60edef9c1c8eacaa4345fe69,f,1.0333,0,39,39,13,1,OORRORO,OORRORR,21.66733484,22.11181017,series_1
,,,,,,,,5f9703fb588a4d05da750510,Mężczyzna,21,2021-07-13_21h59.16.581,rantool2,2021.1.4,Win32,59.88023952,5f9703fb588a4d05da750510,60d9d14f4a8a35a482e0d9bf,60edef9c1c8eacaa4345fe69,j,1.2091,0,40,40,24,1,ORROOOO,ORROOOR,21.12383932,22.07102821,series_1
,,,,,,,,5f9703fb588a4d05da750510,Mężczyzna,21,2021-07-13_21h59.16.581,rantool2,2021.1.4,Win32,59.88023952,5f9703fb588a4d05da750510,60d9d14f4a8a35a482e0d9bf,60edef9c1c8eacaa4345fe69,f,1.1344,0,41,41,23,1,ORORRRO,ORORRRR,22.1285618,21.9921709,series_0
,,,,,,,,5f9703fb588a4d05da750510,Mężczyzna,21,2021-07-13_21h59.16.581,rantool2,2021.1.4,Win32,59.88023952,5f9703fb588a4d05da750510,60d9d14f4a8a35a482e0d9bf,60edef9c1c8eacaa4345fe69,f,0.9441,0,42,42,60,1,RRRROOO,RRRROOR,22.10108823,22.15934078,series_1
,,,,,,,,5f9703fb588a4d05da750510,Mężczyzna,21,2021-07-13_21h59.16.581,rantool2,2021.1.4,Win32,59.88023952,5f9703fb588a4d05da750510,60d9d14f4a8a35a482e0d9bf,60edef9c1c8eacaa4345fe69,f,1.4739,0,43,43,11,1,OORORRO,OORORRR,22.18365867,22.6797523,series_1
,,,,,,,,5f9703fb588a4d05da750510,Mężczyzna,21,2021-07-13_21h59.16.581,rantool2,2021.1.4,Win32,59.88023952,5f9703fb588a4d05da750510,60d9d14f4a8a35a482e0d9bf,60edef9c1c8eacaa4345fe69,j,1.9589,0,44,44,22,1,ORORROO,ORORROR,22.02732763,21.57657071,series_0
,,,,,,,,5f9703fb588a4d05da750510,Mężczyzna,21,2021-07-13_21h59.16.581,rantool2,2021.1.4,Win32,59.88023952,5f9703fb588a4d05da750510,60d9d14f4a8a35a482e0d9bf,60edef9c1c8eacaa4345fe69,f,1.0085,0,45,45,55,1,RRORRRO,RRORRRR,21.56657303,21.21223021,series_0
,,,,,,,,5f9703fb588a4d05da750510,Mężczyzna,21,2021-07-13_21h59.16.581,rantool2,2021.1.4,Win32,59.88023952,5f9703fb588a4d05da750510,60d9d14f4a8a35a482e0d9bf,60edef9c1c8eacaa4345fe69,j,1.3499,0,46,46,39,1,ROORRRO,ROORRRR,21.82425538,21.38562617,series_0
,,,,,,,,5f9703fb588a4d05da750510,Mężczyzna,21,2021-07-13_21h59.16.581,rantool2,2021.1.4,Win32,59.88023952,5f9703fb588a4d05da750510,60d9d14f4a8a35a482e0d9bf,60edef9c1c8eacaa4345fe69,j,1.6143,0,47,47,35,1,ROOORRO,ROOORRR,21.76276513,22.16977179,series_1
,,,,,,,,5f9703fb588a4d05da750510,Mężczyzna,21,2021-07-13_21h59.16.581,rantool2,2021.1.4,Win32,59.88023952,5f9703fb588a4d05da750510,60d9d14f4a8a35a482e0d9bf,60edef9c1c8eacaa4345fe69,f,1.4814,0,48,48,28,1,ORRROOO,ORRROOR,22.24142883,22.53364006,series_1
,,,,,,,,5f9703fb588a4d05da750510,Mężczyzna,21,2021-07-13_21h59.16.581,rantool2,2021.1.4,Win32,59.88023952,5f9703fb588a4d05da750510,60d9d14f4a8a35a482e0d9bf,60edef9c1c8eacaa4345fe69,f,1.2844,0,49,49,0,1,OOOOOOO,OOOOOOR,18.52739004,19.62521613,series_1
,,,,,,,,5f9703fb588a4d05da750510,Mężczyzna,21,2021-07-13_21h59.16.581,rantool2,2021.1.4,Win32,59.88023952,5f9703fb588a4d05da750510,60d9d14f4a8a35a482e0d9bf,60edef9c1c8eacaa4345fe69,j,1.3264,0,50,50,12,1,OORROOO,OORROOR,21.30250474,22.02786418,series_1
,,,,,,,,5f9703fb588a4d05da750510,Mężczyzna,21,2021-07-13_21h59.16.581,rantool2,2021.1.4,Win32,59.88023952,5f9703fb588a4d05da750510,60d9d14f4a8a35a482e0d9bf,60edef9c1c8eacaa4345fe69,f,1.6584,0,51,51,14,1,OORRROO,OORRROR,22.24142883,22.16977179,series_0
,,,,,,,,5f9703fb588a4d05da750510,Mężczyzna,21,2021-07-13_21h59.16.581,rantool2,2021.1.4,Win32,59.88023952,5f9703fb588a4d05da750510,60d9d14f4a8a35a482e0d9bf,60edef9c1c8eacaa4345fe69,j,0.921,0,52,52,32,1,ROOOOOO,ROOOOOR,19.92253567,21.27974287,series_1
,,,,,,,,5f9703fb588a4d05da750510,Mężczyzna,21,2021-07-13_21h59.16.581,rantool2,2021.1.4,Win32,59.88023952,5f9703fb588a4d05da750510,60d9d14f4a8a35a482e0d9bf,60edef9c1c8eacaa4345fe69,j,0.9772,0,53,53,50,1,RROOROO,RROOROR,21.73568164,22.02566557,series_1
,,,,,,,,5f9703fb588a4d05da750510,Mężczyzna,21,2021-07-13_21h59.16.581,rantool2,2021.1.4,Win32,59.88023952,5f9703fb588a4d05da750510,60d9d14f4a8a35a482e0d9bf,60edef9c1c8eacaa4345fe69,j,1.1943,0,54,54,34,1,ROOOROO,ROOOROR,21.03750787,21.24781509,series_1
,,,,,,,,5f9703fb588a4d05da750510,Mężczyzna,21,2021-07-13_21h59.16.581,rantool2,2021.1.4,Win32,59.88023952,5f9703fb588a4d05da750510,60d9d14f4a8a35a482e0d9bf,60edef9c1c8eacaa4345fe69,j,2.3341,0,55,55,17,1,OROOORO,OROOORR,21.03750787,22.12173012,series_1
,,,,,,,,5f9703fb588a4d05da750510,Mężczyzna,21,2021-07-13_21h59.16.581,rantool2,2021.1.4,Win32,59.88023952,5f9703fb588a4d05da750510,60d9d14f4a8a35a482e0d9bf,60edef9c1c8eacaa4345fe69,j,1.0581,0,56,56,33,1,ROOOORO,ROOOORR,20.83779602,22.03072203,series_1
,,,,,,,,5f9703fb588a4d05da750510,Mężczyzna,21,2021-07-13_21h59.16.581,rantool2,2021.1.4,Win32,59.88023952,5f9703fb588a4d05da750510,60d9d14f4a8a35a482e0d9bf,60edef9c1c8eacaa4345fe69,f,1.2675,0,57,57,57,1,RRROORO,RRROORR,21.82425538,22.07102821,series_1
,,,,,,,,5f9703fb588a4d05da750510,Mężczyzna,21,2021-07-13_21h59.16.581,rantool2,2021.1.4,Win32,59.88023952,5f9703fb588a4d05da750510,60d9d14f4a8a35a482e0d9bf,60edef9c1c8eacaa4345fe69,j,2.0275,0,58,58,37,1,ROORORO,ROORORR,20.42602454,21.57657071,series_1
,,,,,,,,5f9703fb588a4d05da750510,Mężczyzna,21,2021-07-13_21h59.16.581,rantool2,2021.1.4,Win32,59.88023952,5f9703fb588a4d05da750510,60d9d14f4a8a35a482e0d9bf,60edef9c1c8eacaa4345fe69,f,1.2588,0,59,59,43,1,RORORRO,RORORRR,20.71309134,21.07490964,series_1
,,,,,,,,5f9703fb588a4d05da750510,Mężczyzna,21,2021-07-13_21h59.16.581,rantool2,2021.1.4,Win32,59.88023952,5f9703fb588a4d05da750510,60d9d14f4a8a35a482e0d9bf,60edef9c1c8eacaa4345fe69,j,0.9196,0,60,60,63,1,RRRRRRO,RRRRRRR,21.35278725,19.62521613,series_0
,,,,,,,,5f9703fb588a4d05da750510,Mężczyzna,21,2021-07-13_21h59.16.581,rantool2,2021.1.4,Win32,59.88023952,5f9703fb588a4d05da750510,60d9d14f4a8a35a482e0d9bf,60edef9c1c8eacaa4345fe69,f,0.9948,0,61,61,8,1,OOROOOO,OOROOOR,19.91402015,20.89823192,series_1
,,,,,,,,5f9703fb588a4d05da750510,Mężczyzna,21,2021-07-13_21h59.16.581,rantool2,2021.1.4,Win32,59.88023952,5f9703fb588a4d05da750510,60d9d14f4a8a35a482e0d9bf,60edef9c1c8eacaa4345fe69,j,1.5145,0,62,62,38,1,ROORROO,ROORROR,21.79500819,21.36812781,series_0
,,,,,,,,5f9703fb588a4d05da750510,Mężczyzna,21,2021-07-13_21h59.16.581,rantool2,2021.1.4,Win32,59.88023952,5f9703fb588a4d05da750510,60d9d14f4a8a35a482e0d9bf,60edef9c1c8eacaa4345fe69,f,1.086,0,63,63,44,1,RORROOO,RORROOR,21.66733484,22.02566557,series_1
