key_resp_7.keys,key_resp_7.rt,trials_2.thisRepN,trials_2.thisTrialN,trials_2.thisN,trials_2.thisIndex,trials_2.ran,id,series_0,series_1,acss_0,acss_1,comparison,id*,Płeć*,Wiek*,date,expName,psychopyVersion,OS,frameRate,STUDY_ID,SESSION_ID,key_resp_5.keys,key_resp_5.corr,key_resp_5.rt,trials.thisRepN,trials.thisTrialN,trials.thisN,trials.thisIndex,trials.ran
f,4.68,0,0,0,3,1,61322d6921be02effc0d15ca,OOOORRO,OOOORRR,20.90986523,21.74922619,series_1,61322d6921be02effc0d15ca,Mężczyzna,19,2021-09-06_18h35.30.751,rantool2,2021.1.4,Win32,59.88741167,6135e006383e6ea6c3d06a28,61364344eafbd2b5e64dc57f,,,,,,,,
j,3.1005,0,1,1,35,1,61322d6921be02effc0d15ca,ROOORRO,ROOORRR,21.76276513,22.16977179,series_1,61322d6921be02effc0d15ca,Mężczyzna,19,2021-09-06_18h35.30.751,rantool2,2021.1.4,Win32,59.88741167,6135e006383e6ea6c3d06a28,61364344eafbd2b5e64dc57f,,,,,,,,
f,3.2671,0,2,2,45,1,61322d6921be02effc0d15ca,RORRORO,RORRORR,20.78182524,21.22513037,series_1,61322d6921be02effc0d15ca,Mężczyzna,19,2021-09-06_18h35.30.751,rantool2,2021.1.4,Win32,59.88741167,6135e006383e6ea6c3d06a28,61364344eafbd2b5e64dc57f,,,,,,,,
j,2.0143,0,3,3,13,1,61322d6921be02effc0d15ca,OORRORO,OORRORR,21.66733484,22.11181017,series_1,61322d6921be02effc0d15ca,Mężczyzna,19,2021-09-06_18h35.30.751,rantool2,2021.1.4,Win32,59.88741167,6135e006383e6ea6c3d06a28,61364344eafbd2b5e64dc57f,,,,,,,,
f,1.8292,0,4,4,20,1,61322d6921be02effc0d15ca,OROROOO,OROROOR,21.31236711,21.90565814,series_1,61322d6921be02effc0d15ca,Mężczyzna,19,2021-09-06_18h35.30.751,rantool2,2021.1.4,Win32,59.88741167,6135e006383e6ea6c3d06a28,61364344eafbd2b5e64dc57f,,,,,,,,
j,4.0787,0,5,5,46,1,61322d6921be02effc0d15ca,RORRROO,RORRROR,22.00300695,21.24781509,series_0,61322d6921be02effc0d15ca,Mężczyzna,19,2021-09-06_18h35.30.751,rantool2,2021.1.4,Win32,59.88741167,6135e006383e6ea6c3d06a28,61364344eafbd2b5e64dc57f,,,,,,,,
j,4.0004,0,6,6,22,1,61322d6921be02effc0d15ca,ORORROO,ORORROR,22.02732763,21.57657071,series_0,61322d6921be02effc0d15ca,Mężczyzna,19,2021-09-06_18h35.30.751,rantool2,2021.1.4,Win32,59.88741167,6135e006383e6ea6c3d06a28,61364344eafbd2b5e64dc57f,,,,,,,,
j,3.0512,0,7,7,42,1,61322d6921be02effc0d15ca,ROROROO,ROROROR,20.39515459,19.8361834,series_0,61322d6921be02effc0d15ca,Mężczyzna,19,2021-09-06_18h35.30.751,rantool2,2021.1.4,Win32,59.88741167,6135e006383e6ea6c3d06a28,61364344eafbd2b5e64dc57f,,,,,,,,
f,1.2061,0,8,8,59,1,61322d6921be02effc0d15ca,RRRORRO,RRRORRR,21.56657303,20.89823192,series_0,61322d6921be02effc0d15ca,Mężczyzna,19,2021-09-06_18h35.30.751,rantool2,2021.1.4,Win32,59.88741167,6135e006383e6ea6c3d06a28,61364344eafbd2b5e64dc57f,,,,,,,,
j,2.0649,0,9,9,39,1,61322d6921be02effc0d15ca,ROORRRO,ROORRRR,21.82425538,21.38562617,series_0,61322d6921be02effc0d15ca,Mężczyzna,19,2021-09-06_18h35.30.751,rantool2,2021.1.4,Win32,59.88741167,6135e006383e6ea6c3d06a28,61364344eafbd2b5e64dc57f,,,,,,,,
f,2.9649,0,10,10,41,1,61322d6921be02effc0d15ca,ROROORO,ROROORR,20.42602454,21.71443381,series_1,61322d6921be02effc0d15ca,Mężczyzna,19,2021-09-06_18h35.30.751,rantool2,2021.1.4,Win32,59.88741167,6135e006383e6ea6c3d06a28,61364344eafbd2b5e64dc57f,,,,,,,,
f,1.2302,0,11,11,1,1,61322d6921be02effc0d15ca,OOOOORO,OOOOORR,19.92253567,20.74050628,series_1,61322d6921be02effc0d15ca,Mężczyzna,19,2021-09-06_18h35.30.751,rantool2,2021.1.4,Win32,59.88741167,6135e006383e6ea6c3d06a28,61364344eafbd2b5e64dc57f,,,,,,,,
f,2.4271,0,12,12,36,1,61322d6921be02effc0d15ca,ROOROOO,ROOROOR,21.07991943,20.9984461,series_0,61322d6921be02effc0d15ca,Mężczyzna,19,2021-09-06_18h35.30.751,rantool2,2021.1.4,Win32,59.88741167,6135e006383e6ea6c3d06a28,61364344eafbd2b5e64dc57f,,,,,,,,
j,1.8931,0,13,13,31,1,61322d6921be02effc0d15ca,ORRRRRO,ORRRRRR,22.16413392,20.74050628,series_0,61322d6921be02effc0d15ca,Mężczyzna,19,2021-09-06_18h35.30.751,rantool2,2021.1.4,Win32,59.88741167,6135e006383e6ea6c3d06a28,61364344eafbd2b5e64dc57f,,,,,,,,
f,1.7337,0,14,14,11,1,61322d6921be02effc0d15ca,OORORRO,OORORRR,22.18365867,22.6797523,series_1,61322d6921be02effc0d15ca,Mężczyzna,19,2021-09-06_18h35.30.751,rantool2,2021.1.4,Win32,59.88741167,6135e006383e6ea6c3d06a28,61364344eafbd2b5e64dc57f,,,,,,,,
j,2.1504,0,15,15,17,1,61322d6921be02effc0d15ca,OROOORO,OROOORR,21.03750787,22.12173012,series_1,61322d6921be02effc0d15ca,Mężczyzna,19,2021-09-06_18h35.30.751,rantool2,2021.1.4,Win32,59.88741167,6135e006383e6ea6c3d06a28,61364344eafbd2b5e64dc57f,,,,,,,,
f,2.1686,0,16,16,15,1,61322d6921be02effc0d15ca,OORRRRO,OORRRRR,22.10108823,21.74922619,series_0,61322d6921be02effc0d15ca,Mężczyzna,19,2021-09-06_18h35.30.751,rantool2,2021.1.4,Win32,59.88741167,6135e006383e6ea6c3d06a28,61364344eafbd2b5e64dc57f,,,,,,,,
j,2.8706,0,17,17,49,1,61322d6921be02effc0d15ca,RROOORO,RROOORR,21.76276513,22.53364006,series_1,61322d6921be02effc0d15ca,Mężczyzna,19,2021-09-06_18h35.30.751,rantool2,2021.1.4,Win32,59.88741167,6135e006383e6ea6c3d06a28,61364344eafbd2b5e64dc57f,,,,,,,,
f,2.1337,0,18,18,43,1,61322d6921be02effc0d15ca,RORORRO,RORORRR,20.71309134,21.07490964,series_1,61322d6921be02effc0d15ca,Mężczyzna,19,2021-09-06_18h35.30.751,rantool2,2021.1.4,Win32,59.88741167,6135e006383e6ea6c3d06a28,61364344eafbd2b5e64dc57f,,,,,,,,
j,2.1896,0,19,19,53,1,61322d6921be02effc0d15ca,RRORORO,RRORORR,20.71309134,21.90565814,series_1,61322d6921be02effc0d15ca,Mężczyzna,19,2021-09-06_18h35.30.751,rantool2,2021.1.4,Win32,59.88741167,6135e006383e6ea6c3d06a28,61364344eafbd2b5e64dc57f,,,,,,,,
f,1.5011,0,20,20,0,1,61322d6921be02effc0d15ca,OOOOOOO,OOOOOOR,18.52739004,19.62521613,series_1,61322d6921be02effc0d15ca,Mężczyzna,19,2021-09-06_18h35.30.751,rantool2,2021.1.4,Win32,59.88741167,6135e006383e6ea6c3d06a28,61364344eafbd2b5e64dc57f,,,,,,,,
j,3.4692,0,21,21,44,1,61322d6921be02effc0d15ca,RORROOO,RORROOR,21.66733484,22.02566557,series_1,61322d6921be02effc0d15ca,Mężczyzna,19,2021-09-06_18h35.30.751,rantool2,2021.1.4,Win32,59.88741167,6135e006383e6ea6c3d06a28,61364344eafbd2b5e64dc57f,,,,,,,,
j,2.4952,0,22,22,24,1,61322d6921be02effc0d15ca,ORROOOO,ORROOOR,21.12383932,22.07102821,series_1,61322d6921be02effc0d15ca,Mężczyzna,19,2021-09-06_18h35.30.751,rantool2,2021.1.4,Win32,59.88741167,6135e006383e6ea6c3d06a28,61364344eafbd2b5e64dc57f,,,,,,,,
j,1.1938,0,23,23,55,1,61322d6921be02effc0d15ca,RRORRRO,RRORRRR,21.56657303,21.21223021,series_0,61322d6921be02effc0d15ca,Mężczyzna,19,2021-09-06_18h35.30.751,rantool2,2021.1.4,Win32,59.88741167,6135e006383e6ea6c3d06a28,61364344eafbd2b5e64dc57f,,,,,,,,
j,2.1096,0,24,24,38,1,61322d6921be02effc0d15ca,ROORROO,ROORROR,21.79500819,21.36812781,series_0,61322d6921be02effc0d15ca,Mężczyzna,19,2021-09-06_18h35.30.751,rantool2,2021.1.4,Win32,59.88741167,6135e006383e6ea6c3d06a28,61364344eafbd2b5e64dc57f,,,,,,,,
j,1.1683,0,25,25,47,1,61322d6921be02effc0d15ca,RORRRRO,RORRRRR,21.81333602,21.02936224,series_0,61322d6921be02effc0d15ca,Mężczyzna,19,2021-09-06_18h35.30.751,rantool2,2021.1.4,Win32,59.88741167,6135e006383e6ea6c3d06a28,61364344eafbd2b5e64dc57f,,,,,,,,
f,1.5137,0,26,26,7,1,61322d6921be02effc0d15ca,OOORRRO,OOORRRR,21.6194508,21.899017,series_1,61322d6921be02effc0d15ca,Mężczyzna,19,2021-09-06_18h35.30.751,rantool2,2021.1.4,Win32,59.88741167,6135e006383e6ea6c3d06a28,61364344eafbd2b5e64dc57f,,,,,,,,
j,1.9598,0,27,27,52,1,61322d6921be02effc0d15ca,RROROOO,RROROOR,22.18365867,22.11097995,series_0,61322d6921be02effc0d15ca,Mężczyzna,19,2021-09-06_18h35.30.751,rantool2,2021.1.4,Win32,59.88741167,6135e006383e6ea6c3d06a28,61364344eafbd2b5e64dc57f,,,,,,,,
j,2.2853,0,28,28,9,1,61322d6921be02effc0d15ca,OOROORO,OOROORR,21.07991943,22.2428857,series_1,61322d6921be02effc0d15ca,Mężczyzna,19,2021-09-06_18h35.30.751,rantool2,2021.1.4,Win32,59.88741167,6135e006383e6ea6c3d06a28,61364344eafbd2b5e64dc57f,,,,,,,,
f,3.4541,0,29,29,26,1,61322d6921be02effc0d15ca,ORROROO,ORROROR,22.02732763,21.71443381,series_0,61322d6921be02effc0d15ca,Mężczyzna,19,2021-09-06_18h35.30.751,rantool2,2021.1.4,Win32,59.88741167,6135e006383e6ea6c3d06a28,61364344eafbd2b5e64dc57f,,,,,,,,
f,1.476,0,30,30,27,1,61322d6921be02effc0d15ca,ORRORRO,ORRORRR,21.55250791,22.2428857,series_1,61322d6921be02effc0d15ca,Mężczyzna,19,2021-09-06_18h35.30.751,rantool2,2021.1.4,Win32,59.88741167,6135e006383e6ea6c3d06a28,61364344eafbd2b5e64dc57f,,,,,,,,
j,1.6291,0,31,31,30,1,61322d6921be02effc0d15ca,ORRRROO,ORRRROR,22.46748491,22.03072203,series_0,61322d6921be02effc0d15ca,Mężczyzna,19,2021-09-06_18h35.30.751,rantool2,2021.1.4,Win32,59.88741167,6135e006383e6ea6c3d06a28,61364344eafbd2b5e64dc57f,,,,,,,,
f,3.5887,0,32,32,32,1,61322d6921be02effc0d15ca,ROOOOOO,ROOOOOR,19.92253567,21.27974287,series_1,61322d6921be02effc0d15ca,Mężczyzna,19,2021-09-06_18h35.30.751,rantool2,2021.1.4,Win32,59.88741167,6135e006383e6ea6c3d06a28,61364344eafbd2b5e64dc57f,,,,,,,,
j,2.2702,0,33,33,16,1,61322d6921be02effc0d15ca,OROOOOO,OROOOOR,20.43051175,21.17347734,series_1,61322d6921be02effc0d15ca,Mężczyzna,19,2021-09-06_18h35.30.751,rantool2,2021.1.4,Win32,59.88741167,6135e006383e6ea6c3d06a28,61364344eafbd2b5e64dc57f,,,,,,,,
f,3.0095,0,34,34,29,1,61322d6921be02effc0d15ca,ORRRORO,ORRRORR,22.00300695,22.12173012,series_1,61322d6921be02effc0d15ca,Mężczyzna,19,2021-09-06_18h35.30.751,rantool2,2021.1.4,Win32,59.88741167,6135e006383e6ea6c3d06a28,61364344eafbd2b5e64dc57f,,,,,,,,
f,0.9963,0,35,35,62,1,61322d6921be02effc0d15ca,RRRRROO,RRRRROR,22.16413392,21.27974287,series_0,61322d6921be02effc0d15ca,Mężczyzna,19,2021-09-06_18h35.30.751,rantool2,2021.1.4,Win32,59.88741167,6135e006383e6ea6c3d06a28,61364344eafbd2b5e64dc57f,,,,,,,,
f,2.0902,0,36,36,57,1,61322d6921be02effc0d15ca,RRROORO,RRROORR,21.82425538,22.07102821,series_1,61322d6921be02effc0d15ca,Mężczyzna,19,2021-09-06_18h35.30.751,rantool2,2021.1.4,Win32,59.88741167,6135e006383e6ea6c3d06a28,61364344eafbd2b5e64dc57f,,,,,,,,
f,1.2905,0,37,37,2,1,61322d6921be02effc0d15ca,OOOOROO,OOOOROR,20.43051175,21.02936224,series_1,61322d6921be02effc0d15ca,Mężczyzna,19,2021-09-06_18h35.30.751,rantool2,2021.1.4,Win32,59.88741167,6135e006383e6ea6c3d06a28,61364344eafbd2b5e64dc57f,,,,,,,,
f,1.411,0,38,38,51,1,61322d6921be02effc0d15ca,RROORRO,RROORRR,21.89852628,22.02786418,series_1,61322d6921be02effc0d15ca,Mężczyzna,19,2021-09-06_18h35.30.751,rantool2,2021.1.4,Win32,59.88741167,6135e006383e6ea6c3d06a28,61364344eafbd2b5e64dc57f,,,,,,,,
j,1.3067,0,39,39,23,1,61322d6921be02effc0d15ca,ORORRRO,ORORRRR,22.1285618,21.9921709,series_0,61322d6921be02effc0d15ca,Mężczyzna,19,2021-09-06_18h35.30.751,rantool2,2021.1.4,Win32,59.88741167,6135e006383e6ea6c3d06a28,61364344eafbd2b5e64dc57f,,,,,,,,
f,1.1076,0,40,40,37,1,61322d6921be02effc0d15ca,ROORORO,ROORORR,20.42602454,21.57657071,series_1,61322d6921be02effc0d15ca,Mężczyzna,19,2021-09-06_18h35.30.751,rantool2,2021.1.4,Win32,59.88741167,6135e006383e6ea6c3d06a28,61364344eafbd2b5e64dc57f,,,,,,,,
j,1.1675,0,41,41,8,1,61322d6921be02effc0d15ca,OOROOOO,OOROOOR,19.91402015,20.89823192,series_1,61322d6921be02effc0d15ca,Mężczyzna,19,2021-09-06_18h35.30.751,rantool2,2021.1.4,Win32,59.88741167,6135e006383e6ea6c3d06a28,61364344eafbd2b5e64dc57f,,,,,,,,
j,1.6316,0,42,42,18,1,61322d6921be02effc0d15ca,OROOROO,OROOROR,20.84860893,21.22513037,series_1,61322d6921be02effc0d15ca,Mężczyzna,19,2021-09-06_18h35.30.751,rantool2,2021.1.4,Win32,59.88741167,6135e006383e6ea6c3d06a28,61364344eafbd2b5e64dc57f,,,,,,,,
j,1.2532,0,43,43,4,1,61322d6921be02effc0d15ca,OOOROOO,OOOROOR,19.91402015,21.21223021,series_1,61322d6921be02effc0d15ca,Mężczyzna,19,2021-09-06_18h35.30.751,rantool2,2021.1.4,Win32,59.88741167,6135e006383e6ea6c3d06a28,61364344eafbd2b5e64dc57f,,,,,,,,
f,1.5605,0,44,44,63,1,61322d6921be02effc0d15ca,RRRRRRO,RRRRRRR,21.35278725,19.62521613,series_0,61322d6921be02effc0d15ca,Mężczyzna,19,2021-09-06_18h35.30.751,rantool2,2021.1.4,Win32,59.88741167,6135e006383e6ea6c3d06a28,61364344eafbd2b5e64dc57f,,,,,,,,
j,1.7105,0,45,45,60,1,61322d6921be02effc0d15ca,RRRROOO,RRRROOR,22.10108823,22.15934078,series_1,61322d6921be02effc0d15ca,Mężczyzna,19,2021-09-06_18h35.30.751,rantool2,2021.1.4,Win32,59.88741167,6135e006383e6ea6c3d06a28,61364344eafbd2b5e64dc57f,,,,,,,,
f,1.2206,0,46,46,48,1,61322d6921be02effc0d15ca,RROOOOO,RROOOOR,20.90986523,22.15934078,series_1,61322d6921be02effc0d15ca,Mężczyzna,19,2021-09-06_18h35.30.751,rantool2,2021.1.4,Win32,59.88741167,6135e006383e6ea6c3d06a28,61364344eafbd2b5e64dc57f,,,,,,,,
f,1.4134,0,47,47,14,1,61322d6921be02effc0d15ca,OORRROO,OORRROR,22.24142883,22.16977179,series_0,61322d6921be02effc0d15ca,Mężczyzna,19,2021-09-06_18h35.30.751,rantool2,2021.1.4,Win32,59.88741167,6135e006383e6ea6c3d06a28,61364344eafbd2b5e64dc57f,,,,,,,,
f,1.8964,0,48,48,6,1,61322d6921be02effc0d15ca,OOORROO,OOORROR,21.12383932,21.38562617,series_1,61322d6921be02effc0d15ca,Mężczyzna,19,2021-09-06_18h35.30.751,rantool2,2021.1.4,Win32,59.88741167,6135e006383e6ea6c3d06a28,61364344eafbd2b5e64dc57f,,,,,,,,
j,2.728,0,49,49,58,1,61322d6921be02effc0d15ca,RRROROO,RRROROR,22.1285618,21.37121559,series_0,61322d6921be02effc0d15ca,Mężczyzna,19,2021-09-06_18h35.30.751,rantool2,2021.1.4,Win32,59.88741167,6135e006383e6ea6c3d06a28,61364344eafbd2b5e64dc57f,,,,,,,,
f,2.5845,0,50,50,10,1,61322d6921be02effc0d15ca,OOROROO,OOROROR,21.31236711,21.07490964,series_0,61322d6921be02effc0d15ca,Mężczyzna,19,2021-09-06_18h35.30.751,rantool2,2021.1.4,Win32,59.88741167,6135e006383e6ea6c3d06a28,61364344eafbd2b5e64dc57f,,,,,,,,
j,1.8889,0,51,51,5,1,61322d6921be02effc0d15ca,OOORORO,OOORORR,20.87963819,21.9921709,series_1,61322d6921be02effc0d15ca,Mężczyzna,19,2021-09-06_18h35.30.751,rantool2,2021.1.4,Win32,59.88741167,6135e006383e6ea6c3d06a28,61364344eafbd2b5e64dc57f,,,,,,,,
f,1.8034,0,52,52,40,1,61322d6921be02effc0d15ca,ROROOOO,ROROOOR,20.87963819,21.37121559,series_1,61322d6921be02effc0d15ca,Mężczyzna,19,2021-09-06_18h35.30.751,rantool2,2021.1.4,Win32,59.88741167,6135e006383e6ea6c3d06a28,61364344eafbd2b5e64dc57f,,,,,,,,
f,1.2698,0,53,53,33,1,61322d6921be02effc0d15ca,ROOOORO,ROOOORR,20.83779602,22.03072203,series_1,61322d6921be02effc0d15ca,Mężczyzna,19,2021-09-06_18h35.30.751,rantool2,2021.1.4,Win32,59.88741167,6135e006383e6ea6c3d06a28,61364344eafbd2b5e64dc57f,,,,,,,,
f,1.4415,0,54,54,12,1,61322d6921be02effc0d15ca,OORROOO,OORROOR,21.30250474,22.02786418,series_1,61322d6921be02effc0d15ca,Mężczyzna,19,2021-09-06_18h35.30.751,rantool2,2021.1.4,Win32,59.88741167,6135e006383e6ea6c3d06a28,61364344eafbd2b5e64dc57f,,,,,,,,
j,1.5602,0,55,55,56,1,61322d6921be02effc0d15ca,RRROOOO,RRROOOR,21.6194508,22.31681875,series_1,61322d6921be02effc0d15ca,Mężczyzna,19,2021-09-06_18h35.30.751,rantool2,2021.1.4,Win32,59.88741167,6135e006383e6ea6c3d06a28,61364344eafbd2b5e64dc57f,,,,,,,,
f,1.5344,0,56,56,34,1,61322d6921be02effc0d15ca,ROOOROO,ROOOROR,21.03750787,21.24781509,series_1,61322d6921be02effc0d15ca,Mężczyzna,19,2021-09-06_18h35.30.751,rantool2,2021.1.4,Win32,59.88741167,6135e006383e6ea6c3d06a28,61364344eafbd2b5e64dc57f,,,,,,,,
j,1.4169,0,57,57,28,1,61322d6921be02effc0d15ca,ORRROOO,ORRROOR,22.24142883,22.53364006,series_1,61322d6921be02effc0d15ca,Mężczyzna,19,2021-09-06_18h35.30.751,rantool2,2021.1.4,Win32,59.88741167,6135e006383e6ea6c3d06a28,61364344eafbd2b5e64dc57f,,,,,,,,
f,2.1436,0,58,58,50,1,61322d6921be02effc0d15ca,RROOROO,RROOROR,21.73568164,22.02566557,series_1,61322d6921be02effc0d15ca,Mężczyzna,19,2021-09-06_18h35.30.751,rantool2,2021.1.4,Win32,59.88741167,6135e006383e6ea6c3d06a28,61364344eafbd2b5e64dc57f,,,,,,,,
j,2.1089,0,59,59,21,1,61322d6921be02effc0d15ca,ORORORO,ORORORR,20.39515459,22.06781359,series_1,61322d6921be02effc0d15ca,Mężczyzna,19,2021-09-06_18h35.30.751,rantool2,2021.1.4,Win32,59.88741167,6135e006383e6ea6c3d06a28,61364344eafbd2b5e64dc57f,,,,,,,,
j,1.7777,0,60,60,54,1,61322d6921be02effc0d15ca,RRORROO,RRORROR,21.55250791,20.9984461,series_0,61322d6921be02effc0d15ca,Mężczyzna,19,2021-09-06_18h35.30.751,rantool2,2021.1.4,Win32,59.88741167,6135e006383e6ea6c3d06a28,61364344eafbd2b5e64dc57f,,,,,,,,
j,1.5919,0,61,61,19,1,61322d6921be02effc0d15ca,OROORRO,OROORRR,21.73568164,22.11181017,series_1,61322d6921be02effc0d15ca,Mężczyzna,19,2021-09-06_18h35.30.751,rantool2,2021.1.4,Win32,59.88741167,6135e006383e6ea6c3d06a28,61364344eafbd2b5e64dc57f,,,,,,,,
f,1.9935,0,62,62,25,1,61322d6921be02effc0d15ca,ORROORO,ORROORR,21.79500819,22.61624387,series_1,61322d6921be02effc0d15ca,Mężczyzna,19,2021-09-06_18h35.30.751,rantool2,2021.1.4,Win32,59.88741167,6135e006383e6ea6c3d06a28,61364344eafbd2b5e64dc57f,,,,,,,,
f,0.9411,0,63,63,61,1,61322d6921be02effc0d15ca,RRRRORO,RRRRORR,21.81333602,21.17347734,series_0,61322d6921be02effc0d15ca,Mężczyzna,19,2021-09-06_18h35.30.751,rantool2,2021.1.4,Win32,59.88741167,6135e006383e6ea6c3d06a28,61364344eafbd2b5e64dc57f,,,,,,,,
,,,,,,,61322d6921be02effc0d15ca,,,,,,61322d6921be02effc0d15ca,Mężczyzna,19,2021-09-06_18h35.30.751,rantool2,2021.1.4,Win32,59.88741167,6135e006383e6ea6c3d06a28,61364344eafbd2b5e64dc57f,"[""comma""]",0,[1.3456000001430368],0,0,0,0,1
,,,,,,,61322d6921be02effc0d15ca,,,,,,61322d6921be02effc0d15ca,Mężczyzna,19,2021-09-06_18h35.30.751,rantool2,2021.1.4,Win32,59.88741167,6135e006383e6ea6c3d06a28,61364344eafbd2b5e64dc57f,"[""comma""]",0,[0.6696999998092679],1,0,1,0,1
,,,,,,,61322d6921be02effc0d15ca,,,,,,61322d6921be02effc0d15ca,Mężczyzna,19,2021-09-06_18h35.30.751,rantool2,2021.1.4,Win32,59.88741167,6135e006383e6ea6c3d06a28,61364344eafbd2b5e64dc57f,"[""period""]",0,[0.3797000000476771],2,0,2,0,1
,,,,,,,61322d6921be02effc0d15ca,,,,,,61322d6921be02effc0d15ca,Mężczyzna,19,2021-09-06_18h35.30.751,rantool2,2021.1.4,Win32,59.88741167,6135e006383e6ea6c3d06a28,61364344eafbd2b5e64dc57f,"[""period""]",0,[0.2561999998092688],3,0,3,0,1
,,,,,,,61322d6921be02effc0d15ca,,,,,,61322d6921be02effc0d15ca,Mężczyzna,19,2021-09-06_18h35.30.751,rantool2,2021.1.4,Win32,59.88741167,6135e006383e6ea6c3d06a28,61364344eafbd2b5e64dc57f,"[""comma""]",0,[0.28040000009536925],4,0,4,0,1
,,,,,,,61322d6921be02effc0d15ca,,,,,,61322d6921be02effc0d15ca,Mężczyzna,19,2021-09-06_18h35.30.751,rantool2,2021.1.4,Win32,59.88741167,6135e006383e6ea6c3d06a28,61364344eafbd2b5e64dc57f,"[""comma""]",0,[0.28790000009539085],5,0,5,0,1
,,,,,,,61322d6921be02effc0d15ca,,,,,,61322d6921be02effc0d15ca,Mężczyzna,19,2021-09-06_18h35.30.751,rantool2,2021.1.4,Win32,59.88741167,6135e006383e6ea6c3d06a28,61364344eafbd2b5e64dc57f,"[""comma""]",0,[0.36990000009535606],6,0,6,0,1
,,,,,,,61322d6921be02effc0d15ca,,,,,,61322d6921be02effc0d15ca,Mężczyzna,19,2021-09-06_18h35.30.751,rantool2,2021.1.4,Win32,59.88741167,6135e006383e6ea6c3d06a28,61364344eafbd2b5e64dc57f,"[""period""]",0,[0.2740000000000009],7,0,7,0,1
,,,,,,,61322d6921be02effc0d15ca,,,,,,61322d6921be02effc0d15ca,Mężczyzna,19,2021-09-06_18h35.30.751,rantool2,2021.1.4,Win32,59.88741167,6135e006383e6ea6c3d06a28,61364344eafbd2b5e64dc57f,"[""comma""]",0,[0.2994000000953747],8,0,8,0,1
,,,,,,,61322d6921be02effc0d15ca,,,,,,61322d6921be02effc0d15ca,Mężczyzna,19,2021-09-06_18h35.30.751,rantool2,2021.1.4,Win32,59.88741167,6135e006383e6ea6c3d06a28,61364344eafbd2b5e64dc57f,"[""period""]",0,[0.6827999999523229],9,0,9,0,1
,,,,,,,61322d6921be02effc0d15ca,,,,,,61322d6921be02effc0d15ca,Mężczyzna,19,2021-09-06_18h35.30.751,rantool2,2021.1.4,Win32,59.88741167,6135e006383e6ea6c3d06a28,61364344eafbd2b5e64dc57f,"[""comma""]",0,[0.820999999999998],10,0,10,0,1
,,,,,,,61322d6921be02effc0d15ca,,,,,,61322d6921be02effc0d15ca,Mężczyzna,19,2021-09-06_18h35.30.751,rantool2,2021.1.4,Win32,59.88741167,6135e006383e6ea6c3d06a28,61364344eafbd2b5e64dc57f,"[""period""]",0,[0.28700000000000614],11,0,11,0,1
,,,,,,,61322d6921be02effc0d15ca,,,,,,61322d6921be02effc0d15ca,Mężczyzna,19,2021-09-06_18h35.30.751,rantool2,2021.1.4,Win32,59.88741167,6135e006383e6ea6c3d06a28,61364344eafbd2b5e64dc57f,"[""comma""]",0,[0.2600000000000193],12,0,12,0,1
,,,,,,,61322d6921be02effc0d15ca,,,,,,61322d6921be02effc0d15ca,Mężczyzna,19,2021-09-06_18h35.30.751,rantool2,2021.1.4,Win32,59.88741167,6135e006383e6ea6c3d06a28,61364344eafbd2b5e64dc57f,"[""period""]",0,[0.29039999985695886],13,0,13,0,1
,,,,,,,61322d6921be02effc0d15ca,,,,,,61322d6921be02effc0d15ca,Mężczyzna,19,2021-09-06_18h35.30.751,rantool2,2021.1.4,Win32,59.88741167,6135e006383e6ea6c3d06a28,61364344eafbd2b5e64dc57f,"[""period""]",0,[0.2695999999046421],14,0,14,0,1
,,,,,,,61322d6921be02effc0d15ca,,,,,,61322d6921be02effc0d15ca,Mężczyzna,19,2021-09-06_18h35.30.751,rantool2,2021.1.4,Win32,59.88741167,6135e006383e6ea6c3d06a28,61364344eafbd2b5e64dc57f,"[""period""]",0,[0.26600000000001955],15,0,15,0,1
,,,,,,,61322d6921be02effc0d15ca,,,,,,61322d6921be02effc0d15ca,Mężczyzna,19,2021-09-06_18h35.30.751,rantool2,2021.1.4,Win32,59.88741167,6135e006383e6ea6c3d06a28,61364344eafbd2b5e64dc57f,"[""comma""]",0,[0.3762999999523231],16,0,16,0,1
,,,,,,,61322d6921be02effc0d15ca,,,,,,61322d6921be02effc0d15ca,Mężczyzna,19,2021-09-06_18h35.30.751,rantool2,2021.1.4,Win32,59.88741167,6135e006383e6ea6c3d06a28,61364344eafbd2b5e64dc57f,"[""period""]",0,[0.3893999998569484],17,0,17,0,1
,,,,,,,61322d6921be02effc0d15ca,,,,,,61322d6921be02effc0d15ca,Mężczyzna,19,2021-09-06_18h35.30.751,rantool2,2021.1.4,Win32,59.88741167,6135e006383e6ea6c3d06a28,61364344eafbd2b5e64dc57f,"[""comma""]",0,[0.48759999990463143],18,0,18,0,1
,,,,,,,61322d6921be02effc0d15ca,,,,,,61322d6921be02effc0d15ca,Mężczyzna,19,2021-09-06_18h35.30.751,rantool2,2021.1.4,Win32,59.88741167,6135e006383e6ea6c3d06a28,61364344eafbd2b5e64dc57f,"[""comma""]",0,[0.5007999999523065],19,0,19,0,1
,,,,,,,61322d6921be02effc0d15ca,,,,,,61322d6921be02effc0d15ca,Mężczyzna,19,2021-09-06_18h35.30.751,rantool2,2021.1.4,Win32,59.88741167,6135e006383e6ea6c3d06a28,61364344eafbd2b5e64dc57f,"[""comma""]",0,[0.5200999999046303],20,0,20,0,1
,,,,,,,61322d6921be02effc0d15ca,,,,,,61322d6921be02effc0d15ca,Mężczyzna,19,2021-09-06_18h35.30.751,rantool2,2021.1.4,Win32,59.88741167,6135e006383e6ea6c3d06a28,61364344eafbd2b5e64dc57f,"[""period""]",0,[0.44739999985696954],21,0,21,0,1
,,,,,,,61322d6921be02effc0d15ca,,,,,,61322d6921be02effc0d15ca,Mężczyzna,19,2021-09-06_18h35.30.751,rantool2,2021.1.4,Win32,59.88741167,6135e006383e6ea6c3d06a28,61364344eafbd2b5e64dc57f,"[""comma""]",0,[0.43770000004766985],22,0,22,0,1
,,,,,,,61322d6921be02effc0d15ca,,,,,,61322d6921be02effc0d15ca,Mężczyzna,19,2021-09-06_18h35.30.751,rantool2,2021.1.4,Win32,59.88741167,6135e006383e6ea6c3d06a28,61364344eafbd2b5e64dc57f,"[""period""]",0,[0.4387999999523231],23,0,23,0,1
,,,,,,,61322d6921be02effc0d15ca,,,,,,61322d6921be02effc0d15ca,Mężczyzna,19,2021-09-06_18h35.30.751,rantool2,2021.1.4,Win32,59.88741167,6135e006383e6ea6c3d06a28,61364344eafbd2b5e64dc57f,"[""comma""]",0,[0.29200000000003],24,0,24,0,1
,,,,,,,61322d6921be02effc0d15ca,,,,,,61322d6921be02effc0d15ca,Mężczyzna,19,2021-09-06_18h35.30.751,rantool2,2021.1.4,Win32,59.88741167,6135e006383e6ea6c3d06a28,61364344eafbd2b5e64dc57f,"[""comma""]",0,[0.35639999985693294],25,0,25,0,1
,,,,,,,61322d6921be02effc0d15ca,,,,,,61322d6921be02effc0d15ca,Mężczyzna,19,2021-09-06_18h35.30.751,rantool2,2021.1.4,Win32,59.88741167,6135e006383e6ea6c3d06a28,61364344eafbd2b5e64dc57f,"[""comma""]",0,[0.3065000000000282],26,0,26,0,1
,,,,,,,61322d6921be02effc0d15ca,,,,,,61322d6921be02effc0d15ca,Mężczyzna,19,2021-09-06_18h35.30.751,rantool2,2021.1.4,Win32,59.88741167,6135e006383e6ea6c3d06a28,61364344eafbd2b5e64dc57f,"[""comma""]",0,[0.32629999995231174],27,0,27,0,1
,,,,,,,61322d6921be02effc0d15ca,,,,,,61322d6921be02effc0d15ca,Mężczyzna,19,2021-09-06_18h35.30.751,rantool2,2021.1.4,Win32,59.88741167,6135e006383e6ea6c3d06a28,61364344eafbd2b5e64dc57f,"[""comma""]",0,[0.3611000001430398],28,0,28,0,1
,,,,,,,61322d6921be02effc0d15ca,,,,,,61322d6921be02effc0d15ca,Mężczyzna,19,2021-09-06_18h35.30.751,rantool2,2021.1.4,Win32,59.88741167,6135e006383e6ea6c3d06a28,61364344eafbd2b5e64dc57f,"[""period""]",0,[0.33929999995228854],29,0,29,0,1
,,,,,,,61322d6921be02effc0d15ca,,,,,,61322d6921be02effc0d15ca,Mężczyzna,19,2021-09-06_18h35.30.751,rantool2,2021.1.4,Win32,59.88741167,6135e006383e6ea6c3d06a28,61364344eafbd2b5e64dc57f,"[""comma""]",0,[0.2955000000000041],30,0,30,0,1
,,,,,,,61322d6921be02effc0d15ca,,,,,,61322d6921be02effc0d15ca,Mężczyzna,19,2021-09-06_18h35.30.751,rantool2,2021.1.4,Win32,59.88741167,6135e006383e6ea6c3d06a28,61364344eafbd2b5e64dc57f,"[""period""]",0,[0.2859000000953529],31,0,31,0,1
,,,,,,,61322d6921be02effc0d15ca,,,,,,61322d6921be02effc0d15ca,Mężczyzna,19,2021-09-06_18h35.30.751,rantool2,2021.1.4,Win32,59.88741167,6135e006383e6ea6c3d06a28,61364344eafbd2b5e64dc57f,"[""period""]",0,[0.2992999999523249],32,0,32,0,1
,,,,,,,61322d6921be02effc0d15ca,,,,,,61322d6921be02effc0d15ca,Mężczyzna,19,2021-09-06_18h35.30.751,rantool2,2021.1.4,Win32,59.88741167,6135e006383e6ea6c3d06a28,61364344eafbd2b5e64dc57f,"[""comma""]",0,[0.4033999998569584],33,0,33,0,1
,,,,,,,61322d6921be02effc0d15ca,,,,,,61322d6921be02effc0d15ca,Mężczyzna,19,2021-09-06_18h35.30.751,rantool2,2021.1.4,Win32,59.88741167,6135e006383e6ea6c3d06a28,61364344eafbd2b5e64dc57f,"[""period""]",0,[0.6042999999523317],34,0,34,0,1
,,,,,,,61322d6921be02effc0d15ca,,,,,,61322d6921be02effc0d15ca,Mężczyzna,19,2021-09-06_18h35.30.751,rantool2,2021.1.4,Win32,59.88741167,6135e006383e6ea6c3d06a28,61364344eafbd2b5e64dc57f,"[""comma""]",0,[0.3727000000476437],35,0,35,0,1
,,,,,,,61322d6921be02effc0d15ca,,,,,,61322d6921be02effc0d15ca,Mężczyzna,19,2021-09-06_18h35.30.751,rantool2,2021.1.4,Win32,59.88741167,6135e006383e6ea6c3d06a28,61364344eafbd2b5e64dc57f,"[""comma""]",0,[0.3568999998569211],36,0,36,0,1
,,,,,,,61322d6921be02effc0d15ca,,,,,,61322d6921be02effc0d15ca,Mężczyzna,19,2021-09-06_18h35.30.751,rantool2,2021.1.4,Win32,59.88741167,6135e006383e6ea6c3d06a28,61364344eafbd2b5e64dc57f,"[""period""]",0,[0.19300000000004047],37,0,37,0,1
,,,,,,,61322d6921be02effc0d15ca,,,,,,61322d6921be02effc0d15ca,Mężczyzna,19,2021-09-06_18h35.30.751,rantool2,2021.1.4,Win32,59.88741167,6135e006383e6ea6c3d06a28,61364344eafbd2b5e64dc57f,"[""period"",""period""]",0,"[0.4577999999522717,0.5885999999046021]",38,0,38,0,1
,,,,,,,61322d6921be02effc0d15ca,,,,,,61322d6921be02effc0d15ca,Mężczyzna,19,2021-09-06_18h35.30.751,rantool2,2021.1.4,Win32,59.88741167,6135e006383e6ea6c3d06a28,61364344eafbd2b5e64dc57f,"[""comma""]",0,[0.45379999995230946],39,0,39,0,1
,,,,,,,61322d6921be02effc0d15ca,,,,,,61322d6921be02effc0d15ca,Mężczyzna,19,2021-09-06_18h35.30.751,rantool2,2021.1.4,Win32,59.88741167,6135e006383e6ea6c3d06a28,61364344eafbd2b5e64dc57f,"[""comma""]",0,[0.4839000000953888],40,0,40,0,1
,,,,,,,61322d6921be02effc0d15ca,,,,,,61322d6921be02effc0d15ca,Mężczyzna,19,2021-09-06_18h35.30.751,rantool2,2021.1.4,Win32,59.88741167,6135e006383e6ea6c3d06a28,61364344eafbd2b5e64dc57f,"[""period""]",0,[0.5712000000477246],41,0,41,0,1
,,,,,,,61322d6921be02effc0d15ca,,,,,,61322d6921be02effc0d15ca,Mężczyzna,19,2021-09-06_18h35.30.751,rantool2,2021.1.4,Win32,59.88741167,6135e006383e6ea6c3d06a28,61364344eafbd2b5e64dc57f,"[""comma""]",0,[0.5325999999046758],42,0,42,0,1
,,,,,,,61322d6921be02effc0d15ca,,,,,,61322d6921be02effc0d15ca,Mężczyzna,19,2021-09-06_18h35.30.751,rantool2,2021.1.4,Win32,59.88741167,6135e006383e6ea6c3d06a28,61364344eafbd2b5e64dc57f,"[""comma""]",0,[0.511799999952359],43,0,43,0,1
,,,,,,,61322d6921be02effc0d15ca,,,,,,61322d6921be02effc0d15ca,Mężczyzna,19,2021-09-06_18h35.30.751,rantool2,2021.1.4,Win32,59.88741167,6135e006383e6ea6c3d06a28,61364344eafbd2b5e64dc57f,"[""period""]",0,[0.3928999998569793],44,0,44,0,1
,,,,,,,61322d6921be02effc0d15ca,,,,,,61322d6921be02effc0d15ca,Mężczyzna,19,2021-09-06_18h35.30.751,rantool2,2021.1.4,Win32,59.88741167,6135e006383e6ea6c3d06a28,61364344eafbd2b5e64dc57f,"[""comma""]",0,[0.4340999999046744],45,0,45,0,1
,,,,,,,61322d6921be02effc0d15ca,,,,,,61322d6921be02effc0d15ca,Mężczyzna,19,2021-09-06_18h35.30.751,rantool2,2021.1.4,Win32,59.88741167,6135e006383e6ea6c3d06a28,61364344eafbd2b5e64dc57f,"[""period""]",0,[0.45350000000001955],46,0,46,0,1
,,,,,,,61322d6921be02effc0d15ca,,,,,,61322d6921be02effc0d15ca,Mężczyzna,19,2021-09-06_18h35.30.751,rantool2,2021.1.4,Win32,59.88741167,6135e006383e6ea6c3d06a28,61364344eafbd2b5e64dc57f,"[""comma""]",0,[0.4376000001430498],47,0,47,0,1
,,,,,,,61322d6921be02effc0d15ca,,,,,,61322d6921be02effc0d15ca,Mężczyzna,19,2021-09-06_18h35.30.751,rantool2,2021.1.4,Win32,59.88741167,6135e006383e6ea6c3d06a28,61364344eafbd2b5e64dc57f,"[""period""]",0,[0.4279000000953488],48,0,48,0,1
,,,,,,,61322d6921be02effc0d15ca,,,,,,61322d6921be02effc0d15ca,Mężczyzna,19,2021-09-06_18h35.30.751,rantool2,2021.1.4,Win32,59.88741167,6135e006383e6ea6c3d06a28,61364344eafbd2b5e64dc57f,"[""period""]",0,[0.49229999995230855],49,0,49,0,1
,,,,,,,61322d6921be02effc0d15ca,,,,,,61322d6921be02effc0d15ca,Mężczyzna,19,2021-09-06_18h35.30.751,rantool2,2021.1.4,Win32,59.88741167,6135e006383e6ea6c3d06a28,61364344eafbd2b5e64dc57f,"[""comma""]",0,[0.47629999995234584],50,0,50,0,1
,,,,,,,61322d6921be02effc0d15ca,,,,,,61322d6921be02effc0d15ca,Mężczyzna,19,2021-09-06_18h35.30.751,rantool2,2021.1.4,Win32,59.88741167,6135e006383e6ea6c3d06a28,61364344eafbd2b5e64dc57f,"[""period""]",0,[0.5355999999046617],51,0,51,0,1
,,,,,,,61322d6921be02effc0d15ca,,,,,,61322d6921be02effc0d15ca,Mężczyzna,19,2021-09-06_18h35.30.751,rantool2,2021.1.4,Win32,59.88741167,6135e006383e6ea6c3d06a28,61364344eafbd2b5e64dc57f,"[""comma""]",0,[0.439700000047651],52,0,52,0,1
,,,,,,,61322d6921be02effc0d15ca,,,,,,61322d6921be02effc0d15ca,Mężczyzna,19,2021-09-06_18h35.30.751,rantool2,2021.1.4,Win32,59.88741167,6135e006383e6ea6c3d06a28,61364344eafbd2b5e64dc57f,"[""period""]",0,[0.40699999999998226],53,0,53,0,1
,,,,,,,61322d6921be02effc0d15ca,,,,,,61322d6921be02effc0d15ca,Mężczyzna,19,2021-09-06_18h35.30.751,rantool2,2021.1.4,Win32,59.88741167,6135e006383e6ea6c3d06a28,61364344eafbd2b5e64dc57f,"[""period""]",0,[0.4093999998569302],54,0,54,0,1
,,,,,,,61322d6921be02effc0d15ca,,,,,,61322d6921be02effc0d15ca,Mężczyzna,19,2021-09-06_18h35.30.751,rantool2,2021.1.4,Win32,59.88741167,6135e006383e6ea6c3d06a28,61364344eafbd2b5e64dc57f,"[""comma""]",0,[0.3768000001907126],55,0,55,0,1
,,,,,,,61322d6921be02effc0d15ca,,,,,,61322d6921be02effc0d15ca,Mężczyzna,19,2021-09-06_18h35.30.751,rantool2,2021.1.4,Win32,59.88741167,6135e006383e6ea6c3d06a28,61364344eafbd2b5e64dc57f,"[""comma""]",0,[0.4067000000476355],56,0,56,0,1
,,,,,,,61322d6921be02effc0d15ca,,,,,,61322d6921be02effc0d15ca,Mężczyzna,19,2021-09-06_18h35.30.751,rantool2,2021.1.4,Win32,59.88741167,6135e006383e6ea6c3d06a28,61364344eafbd2b5e64dc57f,"[""comma""]",0,[0.3569999999999709],57,0,57,0,1
,,,,,,,61322d6921be02effc0d15ca,,,,,,61322d6921be02effc0d15ca,Mężczyzna,19,2021-09-06_18h35.30.751,rantool2,2021.1.4,Win32,59.88741167,6135e006383e6ea6c3d06a28,61364344eafbd2b5e64dc57f,"[""comma""]",0,[0.37020000004764597],58,0,58,0,1
,,,,,,,61322d6921be02effc0d15ca,,,,,,61322d6921be02effc0d15ca,Mężczyzna,19,2021-09-06_18h35.30.751,rantool2,2021.1.4,Win32,59.88741167,6135e006383e6ea6c3d06a28,61364344eafbd2b5e64dc57f,"[""comma""]",0,[0.3837000000476678],59,0,59,0,1
,,,,,,,61322d6921be02effc0d15ca,,,,,,61322d6921be02effc0d15ca,Mężczyzna,19,2021-09-06_18h35.30.751,rantool2,2021.1.4,Win32,59.88741167,6135e006383e6ea6c3d06a28,61364344eafbd2b5e64dc57f,"[""period""]",0,[0.5052000000476369],60,0,60,0,1
,,,,,,,61322d6921be02effc0d15ca,,,,,,61322d6921be02effc0d15ca,Mężczyzna,19,2021-09-06_18h35.30.751,rantool2,2021.1.4,Win32,59.88741167,6135e006383e6ea6c3d06a28,61364344eafbd2b5e64dc57f,"[""comma""]",0,[0.3919999999999959],61,0,61,0,1
,,,,,,,61322d6921be02effc0d15ca,,,,,,61322d6921be02effc0d15ca,Mężczyzna,19,2021-09-06_18h35.30.751,rantool2,2021.1.4,Win32,59.88741167,6135e006383e6ea6c3d06a28,61364344eafbd2b5e64dc57f,"[""comma""]",0,[0.47420000004763097],62,0,62,0,1
,,,,,,,61322d6921be02effc0d15ca,,,,,,61322d6921be02effc0d15ca,Mężczyzna,19,2021-09-06_18h35.30.751,rantool2,2021.1.4,Win32,59.88741167,6135e006383e6ea6c3d06a28,61364344eafbd2b5e64dc57f,"[""period""]",0,[0.39549999999997],63,0,63,0,1
,,,,,,,61322d6921be02effc0d15ca,,,,,,61322d6921be02effc0d15ca,Mężczyzna,19,2021-09-06_18h35.30.751,rantool2,2021.1.4,Win32,59.88741167,6135e006383e6ea6c3d06a28,61364344eafbd2b5e64dc57f,"[""period""]",0,[0.42610000014309435],64,0,64,0,1
,,,,,,,61322d6921be02effc0d15ca,,,,,,61322d6921be02effc0d15ca,Mężczyzna,19,2021-09-06_18h35.30.751,rantool2,2021.1.4,Win32,59.88741167,6135e006383e6ea6c3d06a28,61364344eafbd2b5e64dc57f,"[""comma""]",0,[0.4899000000953606],65,0,65,0,1
,,,,,,,61322d6921be02effc0d15ca,,,,,,61322d6921be02effc0d15ca,Mężczyzna,19,2021-09-06_18h35.30.751,rantool2,2021.1.4,Win32,59.88741167,6135e006383e6ea6c3d06a28,61364344eafbd2b5e64dc57f,"[""period""]",0,[0.5882999999523122],66,0,66,0,1
,,,,,,,61322d6921be02effc0d15ca,,,,,,61322d6921be02effc0d15ca,Mężczyzna,19,2021-09-06_18h35.30.751,rantool2,2021.1.4,Win32,59.88741167,6135e006383e6ea6c3d06a28,61364344eafbd2b5e64dc57f,"[""comma""]",0,[0.43639999985697386],67,0,67,0,1
,,,,,,,61322d6921be02effc0d15ca,,,,,,61322d6921be02effc0d15ca,Mężczyzna,19,2021-09-06_18h35.30.751,rantool2,2021.1.4,Win32,59.88741167,6135e006383e6ea6c3d06a28,61364344eafbd2b5e64dc57f,"[""period""]",0,[0.35289999985695886],68,0,68,0,1
,,,,,,,61322d6921be02effc0d15ca,,,,,,61322d6921be02effc0d15ca,Mężczyzna,19,2021-09-06_18h35.30.751,rantool2,2021.1.4,Win32,59.88741167,6135e006383e6ea6c3d06a28,61364344eafbd2b5e64dc57f,"[""period""]",0,[0.35389999985699205],69,0,69,0,1
,,,,,,,61322d6921be02effc0d15ca,,,,,,61322d6921be02effc0d15ca,Mężczyzna,19,2021-09-06_18h35.30.751,rantool2,2021.1.4,Win32,59.88741167,6135e006383e6ea6c3d06a28,61364344eafbd2b5e64dc57f,"[""period""]",0,[0.5260999999046589],70,0,70,0,1
,,,,,,,61322d6921be02effc0d15ca,,,,,,61322d6921be02effc0d15ca,Mężczyzna,19,2021-09-06_18h35.30.751,rantool2,2021.1.4,Win32,59.88741167,6135e006383e6ea6c3d06a28,61364344eafbd2b5e64dc57f,"[""period""]",0,[0.5794000000953474],71,0,71,0,1
,,,,,,,61322d6921be02effc0d15ca,,,,,,61322d6921be02effc0d15ca,Mężczyzna,19,2021-09-06_18h35.30.751,rantool2,2021.1.4,Win32,59.88741167,6135e006383e6ea6c3d06a28,61364344eafbd2b5e64dc57f,"[""comma""]",0,[0.370700000047691],72,0,72,0,1
,,,,,,,61322d6921be02effc0d15ca,,,,,,61322d6921be02effc0d15ca,Mężczyzna,19,2021-09-06_18h35.30.751,rantool2,2021.1.4,Win32,59.88741167,6135e006383e6ea6c3d06a28,61364344eafbd2b5e64dc57f,"[""comma""]",0,[0.3037000000476837],73,0,73,0,1
,,,,,,,61322d6921be02effc0d15ca,,,,,,61322d6921be02effc0d15ca,Mężczyzna,19,2021-09-06_18h35.30.751,rantool2,2021.1.4,Win32,59.88741167,6135e006383e6ea6c3d06a28,61364344eafbd2b5e64dc57f,"[""period""]",0,[0.3282999999523213],74,0,74,0,1
,,,,,,,61322d6921be02effc0d15ca,,,,,,61322d6921be02effc0d15ca,Mężczyzna,19,2021-09-06_18h35.30.751,rantool2,2021.1.4,Win32,59.88741167,6135e006383e6ea6c3d06a28,61364344eafbd2b5e64dc57f,"[""comma""]",0,[0.2893000001907353],75,0,75,0,1
,,,,,,,61322d6921be02effc0d15ca,,,,,,61322d6921be02effc0d15ca,Mężczyzna,19,2021-09-06_18h35.30.751,rantool2,2021.1.4,Win32,59.88741167,6135e006383e6ea6c3d06a28,61364344eafbd2b5e64dc57f,"[""period""]",0,[0.3086000001430307],76,0,76,0,1
,,,,,,,61322d6921be02effc0d15ca,,,,,,61322d6921be02effc0d15ca,Mężczyzna,19,2021-09-06_18h35.30.751,rantool2,2021.1.4,Win32,59.88741167,6135e006383e6ea6c3d06a28,61364344eafbd2b5e64dc57f,"[""comma""]",0,[0.37299999999999045],77,0,77,0,1
,,,,,,,61322d6921be02effc0d15ca,,,,,,61322d6921be02effc0d15ca,Mężczyzna,19,2021-09-06_18h35.30.751,rantool2,2021.1.4,Win32,59.88741167,6135e006383e6ea6c3d06a28,61364344eafbd2b5e64dc57f,"[""period""]",0,[0.37420000004766507],78,0,78,0,1
,,,,,,,61322d6921be02effc0d15ca,,,,,,61322d6921be02effc0d15ca,Mężczyzna,19,2021-09-06_18h35.30.751,rantool2,2021.1.4,Win32,59.88741167,6135e006383e6ea6c3d06a28,61364344eafbd2b5e64dc57f,"[""comma""]",0,[0.3122000000477101],79,0,79,0,1
,,,,,,,61322d6921be02effc0d15ca,,,,,,61322d6921be02effc0d15ca,Mężczyzna,19,2021-09-06_18h35.30.751,rantool2,2021.1.4,Win32,59.88741167,6135e006383e6ea6c3d06a28,61364344eafbd2b5e64dc57f,"[""period""]",0,[0.3026000001430589],80,0,80,0,1
,,,,,,,61322d6921be02effc0d15ca,,,,,,61322d6921be02effc0d15ca,Mężczyzna,19,2021-09-06_18h35.30.751,rantool2,2021.1.4,Win32,59.88741167,6135e006383e6ea6c3d06a28,61364344eafbd2b5e64dc57f,"[""comma""]",0,[0.29949999999996635],81,0,81,0,1
,,,,,,,61322d6921be02effc0d15ca,,,,,,61322d6921be02effc0d15ca,Mężczyzna,19,2021-09-06_18h35.30.751,rantool2,2021.1.4,Win32,59.88741167,6135e006383e6ea6c3d06a28,61364344eafbd2b5e64dc57f,"[""period""]",0,[0.36299999999999955],82,0,82,0,1
,,,,,,,61322d6921be02effc0d15ca,,,,,,61322d6921be02effc0d15ca,Mężczyzna,19,2021-09-06_18h35.30.751,rantool2,2021.1.4,Win32,59.88741167,6135e006383e6ea6c3d06a28,61364344eafbd2b5e64dc57f,"[""comma""]",0,[0.32950000000005275],83,0,83,0,1
,,,,,,,61322d6921be02effc0d15ca,,,,,,61322d6921be02effc0d15ca,Mężczyzna,19,2021-09-06_18h35.30.751,rantool2,2021.1.4,Win32,59.88741167,6135e006383e6ea6c3d06a28,61364344eafbd2b5e64dc57f,"[""period""]",0,[0.11610000014309207],84,0,84,0,1
,,,,,,,61322d6921be02effc0d15ca,,,,,,61322d6921be02effc0d15ca,Mężczyzna,19,2021-09-06_18h35.30.751,rantool2,2021.1.4,Win32,59.88741167,6135e006383e6ea6c3d06a28,61364344eafbd2b5e64dc57f,"[""period""]",0,[0.28689999985692793],85,0,85,0,1
,,,,,,,61322d6921be02effc0d15ca,,,,,,61322d6921be02effc0d15ca,Mężczyzna,19,2021-09-06_18h35.30.751,rantool2,2021.1.4,Win32,59.88741167,6135e006383e6ea6c3d06a28,61364344eafbd2b5e64dc57f,"[""period""]",0,[0.37999999999999545],86,0,86,0,1
,,,,,,,61322d6921be02effc0d15ca,,,,,,61322d6921be02effc0d15ca,Mężczyzna,19,2021-09-06_18h35.30.751,rantool2,2021.1.4,Win32,59.88741167,6135e006383e6ea6c3d06a28,61364344eafbd2b5e64dc57f,"[""period""]",0,[0.4032999999523099],87,0,87,0,1
,,,,,,,61322d6921be02effc0d15ca,,,,,,61322d6921be02effc0d15ca,Mężczyzna,19,2021-09-06_18h35.30.751,rantool2,2021.1.4,Win32,59.88741167,6135e006383e6ea6c3d06a28,61364344eafbd2b5e64dc57f,"[""period""]",0,[0.4107999999523031],88,0,88,0,1
,,,,,,,61322d6921be02effc0d15ca,,,,,,61322d6921be02effc0d15ca,Mężczyzna,19,2021-09-06_18h35.30.751,rantool2,2021.1.4,Win32,59.88741167,6135e006383e6ea6c3d06a28,61364344eafbd2b5e64dc57f,"[""period""]",0,[0.497799999952349],89,0,89,0,1
,,,,,,,61322d6921be02effc0d15ca,,,,,,61322d6921be02effc0d15ca,Mężczyzna,19,2021-09-06_18h35.30.751,rantool2,2021.1.4,Win32,59.88741167,6135e006383e6ea6c3d06a28,61364344eafbd2b5e64dc57f,"[""comma""]",0,[0.6419999999999959],90,0,90,0,1
,,,,,,,61322d6921be02effc0d15ca,,,,,,61322d6921be02effc0d15ca,Mężczyzna,19,2021-09-06_18h35.30.751,rantool2,2021.1.4,Win32,59.88741167,6135e006383e6ea6c3d06a28,61364344eafbd2b5e64dc57f,"[""period""]",0,[0.4554000000953806],91,0,91,0,1
,,,,,,,61322d6921be02effc0d15ca,,,,,,61322d6921be02effc0d15ca,Mężczyzna,19,2021-09-06_18h35.30.751,rantool2,2021.1.4,Win32,59.88741167,6135e006383e6ea6c3d06a28,61364344eafbd2b5e64dc57f,"[""comma""]",0,[0.42240000009536516],92,0,92,0,1
,,,,,,,61322d6921be02effc0d15ca,,,,,,61322d6921be02effc0d15ca,Mężczyzna,19,2021-09-06_18h35.30.751,rantool2,2021.1.4,Win32,59.88741167,6135e006383e6ea6c3d06a28,61364344eafbd2b5e64dc57f,"[""comma""]",0,[0.3959000000953665],93,0,93,0,1
,,,,,,,61322d6921be02effc0d15ca,,,,,,61322d6921be02effc0d15ca,Mężczyzna,19,2021-09-06_18h35.30.751,rantool2,2021.1.4,Win32,59.88741167,6135e006383e6ea6c3d06a28,61364344eafbd2b5e64dc57f,"[""period""]",0,[0.4080999999046071],94,0,94,0,1
,,,,,,,61322d6921be02effc0d15ca,,,,,,61322d6921be02effc0d15ca,Mężczyzna,19,2021-09-06_18h35.30.751,rantool2,2021.1.4,Win32,59.88741167,6135e006383e6ea6c3d06a28,61364344eafbd2b5e64dc57f,"[""comma""]",0,[0.6549000000953811],95,0,95,0,1
,,,,,,,61322d6921be02effc0d15ca,,,,,,61322d6921be02effc0d15ca,Mężczyzna,19,2021-09-06_18h35.30.751,rantool2,2021.1.4,Win32,59.88741167,6135e006383e6ea6c3d06a28,61364344eafbd2b5e64dc57f,"[""period""]",0,[0.5827000000476801],96,0,96,0,1
,,,,,,,61322d6921be02effc0d15ca,,,,,,61322d6921be02effc0d15ca,Mężczyzna,19,2021-09-06_18h35.30.751,rantool2,2021.1.4,Win32,59.88741167,6135e006383e6ea6c3d06a28,61364344eafbd2b5e64dc57f,"[""period""]",0,[0.43549999999999045],97,0,97,0,1
,,,,,,,61322d6921be02effc0d15ca,,,,,,61322d6921be02effc0d15ca,Mężczyzna,19,2021-09-06_18h35.30.751,rantool2,2021.1.4,Win32,59.88741167,6135e006383e6ea6c3d06a28,61364344eafbd2b5e64dc57f,"[""comma""]",0,[0.316799999952309],98,0,98,0,1
,,,,,,,61322d6921be02effc0d15ca,,,,,,61322d6921be02effc0d15ca,Mężczyzna,19,2021-09-06_18h35.30.751,rantool2,2021.1.4,Win32,59.88741167,6135e006383e6ea6c3d06a28,61364344eafbd2b5e64dc57f,"[""period""]",0,[0.8374000000953288],99,0,99,0,1
,,,,,,,61322d6921be02effc0d15ca,,,,,,61322d6921be02effc0d15ca,Mężczyzna,19,2021-09-06_18h35.30.751,rantool2,2021.1.4,Win32,59.88741167,6135e006383e6ea6c3d06a28,61364344eafbd2b5e64dc57f,"[""comma""]",0,[0.39439999985694385],100,0,100,0,1
,,,,,,,61322d6921be02effc0d15ca,,,,,,61322d6921be02effc0d15ca,Mężczyzna,19,2021-09-06_18h35.30.751,rantool2,2021.1.4,Win32,59.88741167,6135e006383e6ea6c3d06a28,61364344eafbd2b5e64dc57f,"[""comma""]",0,[0.3836000001430193],101,0,101,0,1
,,,,,,,61322d6921be02effc0d15ca,,,,,,61322d6921be02effc0d15ca,Mężczyzna,19,2021-09-06_18h35.30.751,rantool2,2021.1.4,Win32,59.88741167,6135e006383e6ea6c3d06a28,61364344eafbd2b5e64dc57f,"[""period""]",0,[0.3797999999522972],102,0,102,0,1
,,,,,,,61322d6921be02effc0d15ca,,,,,,61322d6921be02effc0d15ca,Mężczyzna,19,2021-09-06_18h35.30.751,rantool2,2021.1.4,Win32,59.88741167,6135e006383e6ea6c3d06a28,61364344eafbd2b5e64dc57f,"[""period""]",0,[0.31290000009539654],103,0,103,0,1
,,,,,,,61322d6921be02effc0d15ca,,,,,,61322d6921be02effc0d15ca,Mężczyzna,19,2021-09-06_18h35.30.751,rantool2,2021.1.4,Win32,59.88741167,6135e006383e6ea6c3d06a28,61364344eafbd2b5e64dc57f,"[""comma""]",0,[0.4112999999522913],104,0,104,0,1
,,,,,,,61322d6921be02effc0d15ca,,,,,,61322d6921be02effc0d15ca,Mężczyzna,19,2021-09-06_18h35.30.751,rantool2,2021.1.4,Win32,59.88741167,6135e006383e6ea6c3d06a28,61364344eafbd2b5e64dc57f,"[""period""]",0,[0.37270000004770054],105,0,105,0,1
,,,,,,,61322d6921be02effc0d15ca,,,,,,61322d6921be02effc0d15ca,Mężczyzna,19,2021-09-06_18h35.30.751,rantool2,2021.1.4,Win32,59.88741167,6135e006383e6ea6c3d06a28,61364344eafbd2b5e64dc57f,"[""comma""]",0,[0.4537999999523663],106,0,106,0,1
,,,,,,,61322d6921be02effc0d15ca,,,,,,61322d6921be02effc0d15ca,Mężczyzna,19,2021-09-06_18h35.30.751,rantool2,2021.1.4,Win32,59.88741167,6135e006383e6ea6c3d06a28,61364344eafbd2b5e64dc57f,"[""period""]",0,[0.25],107,0,107,0,1
,,,,,,,61322d6921be02effc0d15ca,,,,,,61322d6921be02effc0d15ca,Mężczyzna,19,2021-09-06_18h35.30.751,rantool2,2021.1.4,Win32,59.88741167,6135e006383e6ea6c3d06a28,61364344eafbd2b5e64dc57f,"[""comma""]",0,[0.400299999952324],108,0,108,0,1
,,,,,,,61322d6921be02effc0d15ca,,,,,,61322d6921be02effc0d15ca,Mężczyzna,19,2021-09-06_18h35.30.751,rantool2,2021.1.4,Win32,59.88741167,6135e006383e6ea6c3d06a28,61364344eafbd2b5e64dc57f,"[""comma""]",0,[0.3846000001430525],109,0,109,0,1
,,,,,,,61322d6921be02effc0d15ca,,,,,,61322d6921be02effc0d15ca,Mężczyzna,19,2021-09-06_18h35.30.751,rantool2,2021.1.4,Win32,59.88741167,6135e006383e6ea6c3d06a28,61364344eafbd2b5e64dc57f,"[""period""]",0,[0.3237000000476655],110,0,110,0,1
,,,,,,,61322d6921be02effc0d15ca,,,,,,61322d6921be02effc0d15ca,Mężczyzna,19,2021-09-06_18h35.30.751,rantool2,2021.1.4,Win32,59.88741167,6135e006383e6ea6c3d06a28,61364344eafbd2b5e64dc57f,"[""period""]",0,[0.38810000014308343],111,0,111,0,1
,,,,,,,61322d6921be02effc0d15ca,,,,,,61322d6921be02effc0d15ca,Mężczyzna,19,2021-09-06_18h35.30.751,rantool2,2021.1.4,Win32,59.88741167,6135e006383e6ea6c3d06a28,61364344eafbd2b5e64dc57f,"[""period""]",0,[0.287200000047676],112,0,112,0,1
,,,,,,,61322d6921be02effc0d15ca,,,,,,61322d6921be02effc0d15ca,Mężczyzna,19,2021-09-06_18h35.30.751,rantool2,2021.1.4,Win32,59.88741167,6135e006383e6ea6c3d06a28,61364344eafbd2b5e64dc57f,"[""period"",""comma""]",0,"[0.04329999995235312,1.7945999999046194]",113,0,113,0,1
,,,,,,,61322d6921be02effc0d15ca,,,,,,61322d6921be02effc0d15ca,Mężczyzna,19,2021-09-06_18h35.30.751,rantool2,2021.1.4,Win32,59.88741167,6135e006383e6ea6c3d06a28,61364344eafbd2b5e64dc57f,"[""period""]",0,[1.7270000000000323],114,0,114,0,1
,,,,,,,61322d6921be02effc0d15ca,,,,,,61322d6921be02effc0d15ca,Mężczyzna,19,2021-09-06_18h35.30.751,rantool2,2021.1.4,Win32,59.88741167,6135e006383e6ea6c3d06a28,61364344eafbd2b5e64dc57f,"[""period""]",0,[0.4060999999046544],115,0,115,0,1
,,,,,,,61322d6921be02effc0d15ca,,,,,,61322d6921be02effc0d15ca,Mężczyzna,19,2021-09-06_18h35.30.751,rantool2,2021.1.4,Win32,59.88741167,6135e006383e6ea6c3d06a28,61364344eafbd2b5e64dc57f,"[""comma""]",0,[0.3501000001430725],116,0,116,0,1
,,,,,,,61322d6921be02effc0d15ca,,,,,,61322d6921be02effc0d15ca,Mężczyzna,19,2021-09-06_18h35.30.751,rantool2,2021.1.4,Win32,59.88741167,6135e006383e6ea6c3d06a28,61364344eafbd2b5e64dc57f,"[""period""]",0,[0.42070000004770236],117,0,117,0,1
,,,,,,,61322d6921be02effc0d15ca,,,,,,61322d6921be02effc0d15ca,Mężczyzna,19,2021-09-06_18h35.30.751,rantool2,2021.1.4,Win32,59.88741167,6135e006383e6ea6c3d06a28,61364344eafbd2b5e64dc57f,"[""comma""]",0,[0.4336000001430307],118,0,118,0,1
,,,,,,,61322d6921be02effc0d15ca,,,,,,61322d6921be02effc0d15ca,Mężczyzna,19,2021-09-06_18h35.30.751,rantool2,2021.1.4,Win32,59.88741167,6135e006383e6ea6c3d06a28,61364344eafbd2b5e64dc57f,"[""period""]",0,[0.5327999999523172],119,0,119,0,1
