key_resp_5.keys,key_resp_5.corr,key_resp_5.rt,trials.thisRepN,trials.thisTrialN,trials.thisN,trials.thisIndex,trials.ran,id*,Płeć*,Wiek*,date,expName,psychopyVersion,OS,frameRate,id,STUDY_ID,SESSION_ID,key_resp_7.keys,key_resp_7.rt,trials_2.thisRepN,trials_2.thisTrialN,trials_2.thisN,trials_2.thisIndex,trials_2.ran,series_0,series_1,acss_0,acss_1,comparison
"[""comma""]",0,[0.5597000000029837],0,0,0,0,1,5f4e7c5027d2a00631b19618,Mężczyzna,24,2021-07-13_21h48.54.254,rantool2,2021.1.4,Win32,74.96251874,5f4e7c5027d2a00631b19618,60d9d14f4a8a35a482e0d9bf,60ededf3cfb52379262775f0,,,,,,,,,,,,
0,0,,1,0,1,0,1,5f4e7c5027d2a00631b19618,Mężczyzna,24,2021-07-13_21h48.54.254,rantool2,2021.1.4,Win32,74.96251874,5f4e7c5027d2a00631b19618,60d9d14f4a8a35a482e0d9bf,60ededf3cfb52379262775f0,,,,,,,,,,,,
"[""period""]",0,[0.226900000005962],2,0,2,0,1,5f4e7c5027d2a00631b19618,Mężczyzna,24,2021-07-13_21h48.54.254,rantool2,2021.1.4,Win32,74.96251874,5f4e7c5027d2a00631b19618,60d9d14f4a8a35a482e0d9bf,60ededf3cfb52379262775f0,,,,,,,,,,,,
"[""period""]",0,[0.24269999998808345],3,0,3,0,1,5f4e7c5027d2a00631b19618,Mężczyzna,24,2021-07-13_21h48.54.254,rantool2,2021.1.4,Win32,74.96251874,5f4e7c5027d2a00631b19618,60d9d14f4a8a35a482e0d9bf,60ededf3cfb52379262775f0,,,,,,,,,,,,
"[""period""]",0,[0.3144000000059606],4,0,4,0,1,5f4e7c5027d2a00631b19618,Mężczyzna,24,2021-07-13_21h48.54.254,rantool2,2021.1.4,Win32,74.96251874,5f4e7c5027d2a00631b19618,60d9d14f4a8a35a482e0d9bf,60ededf3cfb52379262775f0,,,,,,,,,,,,
"[""comma""]",0,[0.2891999999880781],5,0,5,0,1,5f4e7c5027d2a00631b19618,Mężczyzna,24,2021-07-13_21h48.54.254,rantool2,2021.1.4,Win32,74.96251874,5f4e7c5027d2a00631b19618,60d9d14f4a8a35a482e0d9bf,60ededf3cfb52379262775f0,,,,,,,,,,,,
"[""period""]",0,[0.2802999999970197],6,0,6,0,1,5f4e7c5027d2a00631b19618,Mężczyzna,24,2021-07-13_21h48.54.254,rantool2,2021.1.4,Win32,74.96251874,5f4e7c5027d2a00631b19618,60d9d14f4a8a35a482e0d9bf,60ededf3cfb52379262775f0,,,,,,,,,,,,
"[""period""]",0,[0.2154999999999987],7,0,7,0,1,5f4e7c5027d2a00631b19618,Mężczyzna,24,2021-07-13_21h48.54.254,rantool2,2021.1.4,Win32,74.96251874,5f4e7c5027d2a00631b19618,60d9d14f4a8a35a482e0d9bf,60ededf3cfb52379262775f0,,,,,,,,,,,,
"[""period""]",0,[0.0002999999970256795],8,0,8,0,1,5f4e7c5027d2a00631b19618,Mężczyzna,24,2021-07-13_21h48.54.254,rantool2,2021.1.4,Win32,74.96251874,5f4e7c5027d2a00631b19618,60d9d14f4a8a35a482e0d9bf,60ededf3cfb52379262775f0,,,,,,,,,,,,
"[""comma""]",0,[0.58720000000298],9,0,9,0,1,5f4e7c5027d2a00631b19618,Mężczyzna,24,2021-07-13_21h48.54.254,rantool2,2021.1.4,Win32,74.96251874,5f4e7c5027d2a00631b19618,60d9d14f4a8a35a482e0d9bf,60ededf3cfb52379262775f0,,,,,,,,,,,,
"[""comma""]",0,[0.46090000000596376],10,0,10,0,1,5f4e7c5027d2a00631b19618,Mężczyzna,24,2021-07-13_21h48.54.254,rantool2,2021.1.4,Win32,74.96251874,5f4e7c5027d2a00631b19618,60d9d14f4a8a35a482e0d9bf,60ededf3cfb52379262775f0,,,,,,,,,,,,
"[""comma""]",0,[0.4087999999970151],11,0,11,0,1,5f4e7c5027d2a00631b19618,Mężczyzna,24,2021-07-13_21h48.54.254,rantool2,2021.1.4,Win32,74.96251874,5f4e7c5027d2a00631b19618,60d9d14f4a8a35a482e0d9bf,60ededf3cfb52379262775f0,,,,,,,,,,,,
"[""comma""]",0,[0.27110000000894274],12,0,12,0,1,5f4e7c5027d2a00631b19618,Mężczyzna,24,2021-07-13_21h48.54.254,rantool2,2021.1.4,Win32,74.96251874,5f4e7c5027d2a00631b19618,60d9d14f4a8a35a482e0d9bf,60ededf3cfb52379262775f0,,,,,,,,,,,,
"[""period""]",0,[0.2227000000029875],13,0,13,0,1,5f4e7c5027d2a00631b19618,Mężczyzna,24,2021-07-13_21h48.54.254,rantool2,2021.1.4,Win32,74.96251874,5f4e7c5027d2a00631b19618,60d9d14f4a8a35a482e0d9bf,60ededf3cfb52379262775f0,,,,,,,,,,,,
"[""comma"",""period""]",0,"[0.2937999999970202,1.9097000000029851]",14,0,14,0,1,5f4e7c5027d2a00631b19618,Mężczyzna,24,2021-07-13_21h48.54.254,rantool2,2021.1.4,Win32,74.96251874,5f4e7c5027d2a00631b19618,60d9d14f4a8a35a482e0d9bf,60ededf3cfb52379262775f0,,,,,,,,,,,,
"[""period""]",0,[0.797099999994046],15,0,15,0,1,5f4e7c5027d2a00631b19618,Mężczyzna,24,2021-07-13_21h48.54.254,rantool2,2021.1.4,Win32,74.96251874,5f4e7c5027d2a00631b19618,60d9d14f4a8a35a482e0d9bf,60ededf3cfb52379262775f0,,,,,,,,,,,,
"[""comma""]",0,[0.32379999999702136],16,0,16,0,1,5f4e7c5027d2a00631b19618,Mężczyzna,24,2021-07-13_21h48.54.254,rantool2,2021.1.4,Win32,74.96251874,5f4e7c5027d2a00631b19618,60d9d14f4a8a35a482e0d9bf,60ededf3cfb52379262775f0,,,,,,,,,,,,
"[""comma""]",0,[0.3236000000089376],17,0,17,0,1,5f4e7c5027d2a00631b19618,Mężczyzna,24,2021-07-13_21h48.54.254,rantool2,2021.1.4,Win32,74.96251874,5f4e7c5027d2a00631b19618,60d9d14f4a8a35a482e0d9bf,60ededf3cfb52379262775f0,,,,,,,,,,,,
"[""period""]",0,[0.23489999999105748],18,0,18,0,1,5f4e7c5027d2a00631b19618,Mężczyzna,24,2021-07-13_21h48.54.254,rantool2,2021.1.4,Win32,74.96251874,5f4e7c5027d2a00631b19618,60d9d14f4a8a35a482e0d9bf,60ededf3cfb52379262775f0,,,,,,,,,,,,
"[""period""]",0,[0.23170000000298785],19,0,19,0,1,5f4e7c5027d2a00631b19618,Mężczyzna,24,2021-07-13_21h48.54.254,rantool2,2021.1.4,Win32,74.96251874,5f4e7c5027d2a00631b19618,60d9d14f4a8a35a482e0d9bf,60ededf3cfb52379262775f0,,,,,,,,,,,,
"[""comma""]",0,[0.29559999999403885],20,0,20,0,1,5f4e7c5027d2a00631b19618,Mężczyzna,24,2021-07-13_21h48.54.254,rantool2,2021.1.4,Win32,74.96251874,5f4e7c5027d2a00631b19618,60d9d14f4a8a35a482e0d9bf,60ededf3cfb52379262775f0,,,,,,,,,,,,
"[""period""]",0,[0.26220000000297716],21,0,21,0,1,5f4e7c5027d2a00631b19618,Mężczyzna,24,2021-07-13_21h48.54.254,rantool2,2021.1.4,Win32,74.96251874,5f4e7c5027d2a00631b19618,60d9d14f4a8a35a482e0d9bf,60ededf3cfb52379262775f0,,,,,,,,,,,,
"[""period""]",0,[0.5087999999970236],22,0,22,0,1,5f4e7c5027d2a00631b19618,Mężczyzna,24,2021-07-13_21h48.54.254,rantool2,2021.1.4,Win32,74.96251874,5f4e7c5027d2a00631b19618,60d9d14f4a8a35a482e0d9bf,60ededf3cfb52379262775f0,,,,,,,,,,,,
"[""comma""]",0,[0.6138999999910482],23,0,23,0,1,5f4e7c5027d2a00631b19618,Mężczyzna,24,2021-07-13_21h48.54.254,rantool2,2021.1.4,Win32,74.96251874,5f4e7c5027d2a00631b19618,60d9d14f4a8a35a482e0d9bf,60ededf3cfb52379262775f0,,,,,,,,,,,,
"[""comma""]",0,[0.5232999999970076],24,0,24,0,1,5f4e7c5027d2a00631b19618,Mężczyzna,24,2021-07-13_21h48.54.254,rantool2,2021.1.4,Win32,74.96251874,5f4e7c5027d2a00631b19618,60d9d14f4a8a35a482e0d9bf,60ededf3cfb52379262775f0,,,,,,,,,,,,
"[""period""]",0,[0.8592999999970203],25,0,25,0,1,5f4e7c5027d2a00631b19618,Mężczyzna,24,2021-07-13_21h48.54.254,rantool2,2021.1.4,Win32,74.96251874,5f4e7c5027d2a00631b19618,60d9d14f4a8a35a482e0d9bf,60ededf3cfb52379262775f0,,,,,,,,,,,,
"[""comma""]",0,[1.2342999999970203],26,0,26,0,1,5f4e7c5027d2a00631b19618,Mężczyzna,24,2021-07-13_21h48.54.254,rantool2,2021.1.4,Win32,74.96251874,5f4e7c5027d2a00631b19618,60d9d14f4a8a35a482e0d9bf,60ededf3cfb52379262775f0,,,,,,,,,,,,
"[""period""]",0,[0.24150000000000205],27,0,27,0,1,5f4e7c5027d2a00631b19618,Mężczyzna,24,2021-07-13_21h48.54.254,rantool2,2021.1.4,Win32,74.96251874,5f4e7c5027d2a00631b19618,60d9d14f4a8a35a482e0d9bf,60ededf3cfb52379262775f0,,,,,,,,,,,,
"[""comma""]",0,[0.3129000000059534],28,0,28,0,1,5f4e7c5027d2a00631b19618,Mężczyzna,24,2021-07-13_21h48.54.254,rantool2,2021.1.4,Win32,74.96251874,5f4e7c5027d2a00631b19618,60d9d14f4a8a35a482e0d9bf,60ededf3cfb52379262775f0,,,,,,,,,,,,
"[""period""]",0,[0.7115999999940357],29,0,29,0,1,5f4e7c5027d2a00631b19618,Mężczyzna,24,2021-07-13_21h48.54.254,rantool2,2021.1.4,Win32,74.96251874,5f4e7c5027d2a00631b19618,60d9d14f4a8a35a482e0d9bf,60ededf3cfb52379262775f0,,,,,,,,,,,,
"[""comma""]",0,[0.2874999999999943],30,0,30,0,1,5f4e7c5027d2a00631b19618,Mężczyzna,24,2021-07-13_21h48.54.254,rantool2,2021.1.4,Win32,74.96251874,5f4e7c5027d2a00631b19618,60d9d14f4a8a35a482e0d9bf,60ededf3cfb52379262775f0,,,,,,,,,,,,
"[""comma""]",0,[0.3341000000089309],31,0,31,0,1,5f4e7c5027d2a00631b19618,Mężczyzna,24,2021-07-13_21h48.54.254,rantool2,2021.1.4,Win32,74.96251874,5f4e7c5027d2a00631b19618,60d9d14f4a8a35a482e0d9bf,60ededf3cfb52379262775f0,,,,,,,,,,,,
"[""period""]",0,[1.1650000000000063],32,0,32,0,1,5f4e7c5027d2a00631b19618,Mężczyzna,24,2021-07-13_21h48.54.254,rantool2,2021.1.4,Win32,74.96251874,5f4e7c5027d2a00631b19618,60d9d14f4a8a35a482e0d9bf,60ededf3cfb52379262775f0,,,,,,,,,,,,
"[""comma""]",0,[0.3015999999940391],33,0,33,0,1,5f4e7c5027d2a00631b19618,Mężczyzna,24,2021-07-13_21h48.54.254,rantool2,2021.1.4,Win32,74.96251874,5f4e7c5027d2a00631b19618,60d9d14f4a8a35a482e0d9bf,60ededf3cfb52379262775f0,,,,,,,,,,,,
"[""comma""]",0,[0.24450000000000216],34,0,34,0,1,5f4e7c5027d2a00631b19618,Mężczyzna,24,2021-07-13_21h48.54.254,rantool2,2021.1.4,Win32,74.96251874,5f4e7c5027d2a00631b19618,60d9d14f4a8a35a482e0d9bf,60ededf3cfb52379262775f0,,,,,,,,,,,,
"[""period""]",0,[0.40359999999404295],35,0,35,0,1,5f4e7c5027d2a00631b19618,Mężczyzna,24,2021-07-13_21h48.54.254,rantool2,2021.1.4,Win32,74.96251874,5f4e7c5027d2a00631b19618,60d9d14f4a8a35a482e0d9bf,60ededf3cfb52379262775f0,,,,,,,,,,,,
"[""period""]",0,[0.6110000000000042],36,0,36,0,1,5f4e7c5027d2a00631b19618,Mężczyzna,24,2021-07-13_21h48.54.254,rantool2,2021.1.4,Win32,74.96251874,5f4e7c5027d2a00631b19618,60d9d14f4a8a35a482e0d9bf,60ededf3cfb52379262775f0,,,,,,,,,,,,
"[""comma""]",0,[1.1604000000059642],37,0,37,0,1,5f4e7c5027d2a00631b19618,Mężczyzna,24,2021-07-13_21h48.54.254,rantool2,2021.1.4,Win32,74.96251874,5f4e7c5027d2a00631b19618,60d9d14f4a8a35a482e0d9bf,60ededf3cfb52379262775f0,,,,,,,,,,,,
"[""comma""]",0,[0.2147999999970125],38,0,38,0,1,5f4e7c5027d2a00631b19618,Mężczyzna,24,2021-07-13_21h48.54.254,rantool2,2021.1.4,Win32,74.96251874,5f4e7c5027d2a00631b19618,60d9d14f4a8a35a482e0d9bf,60ededf3cfb52379262775f0,,,,,,,,,,,,
"[""period""]",0,[0.3073999999910484],39,0,39,0,1,5f4e7c5027d2a00631b19618,Mężczyzna,24,2021-07-13_21h48.54.254,rantool2,2021.1.4,Win32,74.96251874,5f4e7c5027d2a00631b19618,60d9d14f4a8a35a482e0d9bf,60ededf3cfb52379262775f0,,,,,,,,,,,,
"[""comma""]",0,[0.3647999999970182],40,0,40,0,1,5f4e7c5027d2a00631b19618,Mężczyzna,24,2021-07-13_21h48.54.254,rantool2,2021.1.4,Win32,74.96251874,5f4e7c5027d2a00631b19618,60d9d14f4a8a35a482e0d9bf,60ededf3cfb52379262775f0,,,,,,,,,,,,
"[""comma""]",0,[0.38839999999106567],41,0,41,0,1,5f4e7c5027d2a00631b19618,Mężczyzna,24,2021-07-13_21h48.54.254,rantool2,2021.1.4,Win32,74.96251874,5f4e7c5027d2a00631b19618,60d9d14f4a8a35a482e0d9bf,60ededf3cfb52379262775f0,,,,,,,,,,,,
"[""comma""]",0,[1.0187000000029798],42,0,42,0,1,5f4e7c5027d2a00631b19618,Mężczyzna,24,2021-07-13_21h48.54.254,rantool2,2021.1.4,Win32,74.96251874,5f4e7c5027d2a00631b19618,60d9d14f4a8a35a482e0d9bf,60ededf3cfb52379262775f0,,,,,,,,,,,,
"[""comma""]",0,[0.3149999999999977],43,0,43,0,1,5f4e7c5027d2a00631b19618,Mężczyzna,24,2021-07-13_21h48.54.254,rantool2,2021.1.4,Win32,74.96251874,5f4e7c5027d2a00631b19618,60d9d14f4a8a35a482e0d9bf,60ededf3cfb52379262775f0,,,,,,,,,,,,
"[""period""]",0,[0.2578999999910536],44,0,44,0,1,5f4e7c5027d2a00631b19618,Mężczyzna,24,2021-07-13_21h48.54.254,rantool2,2021.1.4,Win32,74.96251874,5f4e7c5027d2a00631b19618,60d9d14f4a8a35a482e0d9bf,60ededf3cfb52379262775f0,,,,,,,,,,,,
"[""period""]",0,[0.2669999999999959],45,0,45,0,1,5f4e7c5027d2a00631b19618,Mężczyzna,24,2021-07-13_21h48.54.254,rantool2,2021.1.4,Win32,74.96251874,5f4e7c5027d2a00631b19618,60d9d14f4a8a35a482e0d9bf,60ededf3cfb52379262775f0,,,,,,,,,,,,
"[""comma""]",0,[0.2967999999970061],46,0,46,0,1,5f4e7c5027d2a00631b19618,Mężczyzna,24,2021-07-13_21h48.54.254,rantool2,2021.1.4,Win32,74.96251874,5f4e7c5027d2a00631b19618,60d9d14f4a8a35a482e0d9bf,60ededf3cfb52379262775f0,,,,,,,,,,,,
"[""comma""]",0,[0.2939999999999827],47,0,47,0,1,5f4e7c5027d2a00631b19618,Mężczyzna,24,2021-07-13_21h48.54.254,rantool2,2021.1.4,Win32,74.96251874,5f4e7c5027d2a00631b19618,60d9d14f4a8a35a482e0d9bf,60ededf3cfb52379262775f0,,,,,,,,,,,,
"[""period""]",0,[0.35139999999105953],48,0,48,0,1,5f4e7c5027d2a00631b19618,Mężczyzna,24,2021-07-13_21h48.54.254,rantool2,2021.1.4,Win32,74.96251874,5f4e7c5027d2a00631b19618,60d9d14f4a8a35a482e0d9bf,60ededf3cfb52379262775f0,,,,,,,,,,,,
"[""period""]",0,[0.3344000000059566],49,0,49,0,1,5f4e7c5027d2a00631b19618,Mężczyzna,24,2021-07-13_21h48.54.254,rantool2,2021.1.4,Win32,74.96251874,5f4e7c5027d2a00631b19618,60d9d14f4a8a35a482e0d9bf,60ededf3cfb52379262775f0,,,,,,,,,,,,
"[""comma""]",0,[0.3632999999970252],50,0,50,0,1,5f4e7c5027d2a00631b19618,Mężczyzna,24,2021-07-13_21h48.54.254,rantool2,2021.1.4,Win32,74.96251874,5f4e7c5027d2a00631b19618,60d9d14f4a8a35a482e0d9bf,60ededf3cfb52379262775f0,,,,,,,,,,,,
"[""period""]",0,[0.35710000000892705],51,0,51,0,1,5f4e7c5027d2a00631b19618,Mężczyzna,24,2021-07-13_21h48.54.254,rantool2,2021.1.4,Win32,74.96251874,5f4e7c5027d2a00631b19618,60d9d14f4a8a35a482e0d9bf,60ededf3cfb52379262775f0,,,,,,,,,,,,
"[""comma""]",0,[0.6601000000089243],52,0,52,0,1,5f4e7c5027d2a00631b19618,Mężczyzna,24,2021-07-13_21h48.54.254,rantool2,2021.1.4,Win32,74.96251874,5f4e7c5027d2a00631b19618,60d9d14f4a8a35a482e0d9bf,60ededf3cfb52379262775f0,,,,,,,,,,,,
"[""period""]",0,[0.37279999999702795],53,0,53,0,1,5f4e7c5027d2a00631b19618,Mężczyzna,24,2021-07-13_21h48.54.254,rantool2,2021.1.4,Win32,74.96251874,5f4e7c5027d2a00631b19618,60d9d14f4a8a35a482e0d9bf,60ededf3cfb52379262775f0,,,,,,,,,,,,
"[""period""]",0,[0.25619999998806975],54,0,54,0,1,5f4e7c5027d2a00631b19618,Mężczyzna,24,2021-07-13_21h48.54.254,rantool2,2021.1.4,Win32,74.96251874,5f4e7c5027d2a00631b19618,60d9d14f4a8a35a482e0d9bf,60ededf3cfb52379262775f0,,,,,,,,,,,,
"[""comma""]",0,[0.20020000000297955],55,0,55,0,1,5f4e7c5027d2a00631b19618,Mężczyzna,24,2021-07-13_21h48.54.254,rantool2,2021.1.4,Win32,74.96251874,5f4e7c5027d2a00631b19618,60d9d14f4a8a35a482e0d9bf,60ededf3cfb52379262775f0,,,,,,,,,,,,
"[""period""]",0,[0.24659999999406068],56,0,56,0,1,5f4e7c5027d2a00631b19618,Mężczyzna,24,2021-07-13_21h48.54.254,rantool2,2021.1.4,Win32,74.96251874,5f4e7c5027d2a00631b19618,60d9d14f4a8a35a482e0d9bf,60ededf3cfb52379262775f0,,,,,,,,,,,,
"[""period""]",0,[0.27720000000297773],57,0,57,0,1,5f4e7c5027d2a00631b19618,Mężczyzna,24,2021-07-13_21h48.54.254,rantool2,2021.1.4,Win32,74.96251874,5f4e7c5027d2a00631b19618,60d9d14f4a8a35a482e0d9bf,60ededf3cfb52379262775f0,,,,,,,,,,,,
"[""comma""]",0,[0.3014999999999759],58,0,58,0,1,5f4e7c5027d2a00631b19618,Mężczyzna,24,2021-07-13_21h48.54.254,rantool2,2021.1.4,Win32,74.96251874,5f4e7c5027d2a00631b19618,60d9d14f4a8a35a482e0d9bf,60ededf3cfb52379262775f0,,,,,,,,,,,,
"[""period""]",0,[0.30840000000597456],59,0,59,0,1,5f4e7c5027d2a00631b19618,Mężczyzna,24,2021-07-13_21h48.54.254,rantool2,2021.1.4,Win32,74.96251874,5f4e7c5027d2a00631b19618,60d9d14f4a8a35a482e0d9bf,60ededf3cfb52379262775f0,,,,,,,,,,,,
"[""period""]",0,[0.31569999998808385],60,0,60,0,1,5f4e7c5027d2a00631b19618,Mężczyzna,24,2021-07-13_21h48.54.254,rantool2,2021.1.4,Win32,74.96251874,5f4e7c5027d2a00631b19618,60d9d14f4a8a35a482e0d9bf,60ededf3cfb52379262775f0,,,,,,,,,,,,
"[""period""]",0,[0.3470000000000084],61,0,61,0,1,5f4e7c5027d2a00631b19618,Mężczyzna,24,2021-07-13_21h48.54.254,rantool2,2021.1.4,Win32,74.96251874,5f4e7c5027d2a00631b19618,60d9d14f4a8a35a482e0d9bf,60ededf3cfb52379262775f0,,,,,,,,,,,,
"[""comma""]",0,[0.32170000000297705],62,0,62,0,1,5f4e7c5027d2a00631b19618,Mężczyzna,24,2021-07-13_21h48.54.254,rantool2,2021.1.4,Win32,74.96251874,5f4e7c5027d2a00631b19618,60d9d14f4a8a35a482e0d9bf,60ededf3cfb52379262775f0,,,,,,,,,,,,
"[""comma""]",0,[0.32140000000595137],63,0,63,0,1,5f4e7c5027d2a00631b19618,Mężczyzna,24,2021-07-13_21h48.54.254,rantool2,2021.1.4,Win32,74.96251874,5f4e7c5027d2a00631b19618,60d9d14f4a8a35a482e0d9bf,60ededf3cfb52379262775f0,,,,,,,,,,,,
"[""comma""]",0,[0.32870000000298205],64,0,64,0,1,5f4e7c5027d2a00631b19618,Mężczyzna,24,2021-07-13_21h48.54.254,rantool2,2021.1.4,Win32,74.96251874,5f4e7c5027d2a00631b19618,60d9d14f4a8a35a482e0d9bf,60ededf3cfb52379262775f0,,,,,,,,,,,,
"[""period""]",0,[0.31169999998806475],65,0,65,0,1,5f4e7c5027d2a00631b19618,Mężczyzna,24,2021-07-13_21h48.54.254,rantool2,2021.1.4,Win32,74.96251874,5f4e7c5027d2a00631b19618,60d9d14f4a8a35a482e0d9bf,60ededf3cfb52379262775f0,,,,,,,,,,,,
"[""period""]",0,[0.3155000000000143],66,0,66,0,1,5f4e7c5027d2a00631b19618,Mężczyzna,24,2021-07-13_21h48.54.254,rantool2,2021.1.4,Win32,74.96251874,5f4e7c5027d2a00631b19618,60d9d14f4a8a35a482e0d9bf,60ededf3cfb52379262775f0,,,,,,,,,,,,
"[""comma""]",0,[0.26179999999700954],67,0,67,0,1,5f4e7c5027d2a00631b19618,Mężczyzna,24,2021-07-13_21h48.54.254,rantool2,2021.1.4,Win32,74.96251874,5f4e7c5027d2a00631b19618,60d9d14f4a8a35a482e0d9bf,60ededf3cfb52379262775f0,,,,,,,,,,,,
"[""period""]",0,[0.4064999999999941],68,0,68,0,1,5f4e7c5027d2a00631b19618,Mężczyzna,24,2021-07-13_21h48.54.254,rantool2,2021.1.4,Win32,74.96251874,5f4e7c5027d2a00631b19618,60d9d14f4a8a35a482e0d9bf,60ededf3cfb52379262775f0,,,,,,,,,,,,
"[""comma""]",0,[0.4674000000059664],69,0,69,0,1,5f4e7c5027d2a00631b19618,Mężczyzna,24,2021-07-13_21h48.54.254,rantool2,2021.1.4,Win32,74.96251874,5f4e7c5027d2a00631b19618,60d9d14f4a8a35a482e0d9bf,60ededf3cfb52379262775f0,,,,,,,,,,,,
"[""period""]",0,[0.2444000000059532],70,0,70,0,1,5f4e7c5027d2a00631b19618,Mężczyzna,24,2021-07-13_21h48.54.254,rantool2,2021.1.4,Win32,74.96251874,5f4e7c5027d2a00631b19618,60d9d14f4a8a35a482e0d9bf,60ededf3cfb52379262775f0,,,,,,,,,,,,
"[""comma""]",0,[0.3474999999999966],71,0,71,0,1,5f4e7c5027d2a00631b19618,Mężczyzna,24,2021-07-13_21h48.54.254,rantool2,2021.1.4,Win32,74.96251874,5f4e7c5027d2a00631b19618,60d9d14f4a8a35a482e0d9bf,60ededf3cfb52379262775f0,,,,,,,,,,,,
"[""period""]",0,[0.4222999999970227],72,0,72,0,1,5f4e7c5027d2a00631b19618,Mężczyzna,24,2021-07-13_21h48.54.254,rantool2,2021.1.4,Win32,74.96251874,5f4e7c5027d2a00631b19618,60d9d14f4a8a35a482e0d9bf,60ededf3cfb52379262775f0,,,,,,,,,,,,
"[""comma""]",0,[0.26710000000895207],73,0,73,0,1,5f4e7c5027d2a00631b19618,Mężczyzna,24,2021-07-13_21h48.54.254,rantool2,2021.1.4,Win32,74.96251874,5f4e7c5027d2a00631b19618,60d9d14f4a8a35a482e0d9bf,60ededf3cfb52379262775f0,,,,,,,,,,,,
"[""comma""]",0,[0.5026999999880957],74,0,74,0,1,5f4e7c5027d2a00631b19618,Mężczyzna,24,2021-07-13_21h48.54.254,rantool2,2021.1.4,Win32,74.96251874,5f4e7c5027d2a00631b19618,60d9d14f4a8a35a482e0d9bf,60ededf3cfb52379262775f0,,,,,,,,,,,,
"[""comma""]",0,[0.333899999991047],75,0,75,0,1,5f4e7c5027d2a00631b19618,Mężczyzna,24,2021-07-13_21h48.54.254,rantool2,2021.1.4,Win32,74.96251874,5f4e7c5027d2a00631b19618,60d9d14f4a8a35a482e0d9bf,60ededf3cfb52379262775f0,,,,,,,,,,,,
"[""period""]",0,[0.35690000000596456],76,0,76,0,1,5f4e7c5027d2a00631b19618,Mężczyzna,24,2021-07-13_21h48.54.254,rantool2,2021.1.4,Win32,74.96251874,5f4e7c5027d2a00631b19618,60d9d14f4a8a35a482e0d9bf,60ededf3cfb52379262775f0,,,,,,,,,,,,
"[""comma""]",0,[0.3485999999940361],77,0,77,0,1,5f4e7c5027d2a00631b19618,Mężczyzna,24,2021-07-13_21h48.54.254,rantool2,2021.1.4,Win32,74.96251874,5f4e7c5027d2a00631b19618,60d9d14f4a8a35a482e0d9bf,60ededf3cfb52379262775f0,,,,,,,,,,,,
"[""comma""]",0,[0.33969999998808476],78,0,78,0,1,5f4e7c5027d2a00631b19618,Mężczyzna,24,2021-07-13_21h48.54.254,rantool2,2021.1.4,Win32,74.96251874,5f4e7c5027d2a00631b19618,60d9d14f4a8a35a482e0d9bf,60ededf3cfb52379262775f0,,,,,,,,,,,,
"[""comma""]",0,[0.32239999999106317],79,0,79,0,1,5f4e7c5027d2a00631b19618,Mężczyzna,24,2021-07-13_21h48.54.254,rantool2,2021.1.4,Win32,74.96251874,5f4e7c5027d2a00631b19618,60d9d14f4a8a35a482e0d9bf,60ededf3cfb52379262775f0,,,,,,,,,,,,
"[""comma""]",0,[0.2980999999940366],80,0,80,0,1,5f4e7c5027d2a00631b19618,Mężczyzna,24,2021-07-13_21h48.54.254,rantool2,2021.1.4,Win32,74.96251874,5f4e7c5027d2a00631b19618,60d9d14f4a8a35a482e0d9bf,60ededf3cfb52379262775f0,,,,,,,,,,,,
"[""period""]",0,[0.2574999999999932],81,0,81,0,1,5f4e7c5027d2a00631b19618,Mężczyzna,24,2021-07-13_21h48.54.254,rantool2,2021.1.4,Win32,74.96251874,5f4e7c5027d2a00631b19618,60d9d14f4a8a35a482e0d9bf,60ededf3cfb52379262775f0,,,,,,,,,,,,
"[""comma""]",0,[0.3524000000059573],82,0,82,0,1,5f4e7c5027d2a00631b19618,Mężczyzna,24,2021-07-13_21h48.54.254,rantool2,2021.1.4,Win32,74.96251874,5f4e7c5027d2a00631b19618,60d9d14f4a8a35a482e0d9bf,60ededf3cfb52379262775f0,,,,,,,,,,,,
"[""period""]",0,[0.44790000000597274],83,0,83,0,1,5f4e7c5027d2a00631b19618,Mężczyzna,24,2021-07-13_21h48.54.254,rantool2,2021.1.4,Win32,74.96251874,5f4e7c5027d2a00631b19618,60d9d14f4a8a35a482e0d9bf,60ededf3cfb52379262775f0,,,,,,,,,,,,
"[""period""]",0,[0.375],84,0,84,0,1,5f4e7c5027d2a00631b19618,Mężczyzna,24,2021-07-13_21h48.54.254,rantool2,2021.1.4,Win32,74.96251874,5f4e7c5027d2a00631b19618,60d9d14f4a8a35a482e0d9bf,60ededf3cfb52379262775f0,,,,,,,,,,,,
"[""period""]",0,[0.3667999999970277],85,0,85,0,1,5f4e7c5027d2a00631b19618,Mężczyzna,24,2021-07-13_21h48.54.254,rantool2,2021.1.4,Win32,74.96251874,5f4e7c5027d2a00631b19618,60d9d14f4a8a35a482e0d9bf,60ededf3cfb52379262775f0,,,,,,,,,,,,
"[""comma""]",0,[0.5740000000000123],86,0,86,0,1,5f4e7c5027d2a00631b19618,Mężczyzna,24,2021-07-13_21h48.54.254,rantool2,2021.1.4,Win32,74.96251874,5f4e7c5027d2a00631b19618,60d9d14f4a8a35a482e0d9bf,60ededf3cfb52379262775f0,,,,,,,,,,,,
"[""comma""]",0,[0.4290999999940368],87,0,87,0,1,5f4e7c5027d2a00631b19618,Mężczyzna,24,2021-07-13_21h48.54.254,rantool2,2021.1.4,Win32,74.96251874,5f4e7c5027d2a00631b19618,60d9d14f4a8a35a482e0d9bf,60ededf3cfb52379262775f0,,,,,,,,,,,,
"[""period""]",0,[0.3340000000000032],88,0,88,0,1,5f4e7c5027d2a00631b19618,Mężczyzna,24,2021-07-13_21h48.54.254,rantool2,2021.1.4,Win32,74.96251874,5f4e7c5027d2a00631b19618,60d9d14f4a8a35a482e0d9bf,60ededf3cfb52379262775f0,,,,,,,,,,,,
"[""period""]",0,[0.2597000000029652],89,0,89,0,1,5f4e7c5027d2a00631b19618,Mężczyzna,24,2021-07-13_21h48.54.254,rantool2,2021.1.4,Win32,74.96251874,5f4e7c5027d2a00631b19618,60d9d14f4a8a35a482e0d9bf,60ededf3cfb52379262775f0,,,,,,,,,,,,
"[""comma""]",0,[0.4426000000089232],90,0,90,0,1,5f4e7c5027d2a00631b19618,Mężczyzna,24,2021-07-13_21h48.54.254,rantool2,2021.1.4,Win32,74.96251874,5f4e7c5027d2a00631b19618,60d9d14f4a8a35a482e0d9bf,60ededf3cfb52379262775f0,,,,,,,,,,,,
"[""comma""]",0,[0.48050000000000637],91,0,91,0,1,5f4e7c5027d2a00631b19618,Mężczyzna,24,2021-07-13_21h48.54.254,rantool2,2021.1.4,Win32,74.96251874,5f4e7c5027d2a00631b19618,60d9d14f4a8a35a482e0d9bf,60ededf3cfb52379262775f0,,,,,,,,,,,,
"[""comma""]",0,[1.0294000000059498],92,0,92,0,1,5f4e7c5027d2a00631b19618,Mężczyzna,24,2021-07-13_21h48.54.254,rantool2,2021.1.4,Win32,74.96251874,5f4e7c5027d2a00631b19618,60d9d14f4a8a35a482e0d9bf,60ededf3cfb52379262775f0,,,,,,,,,,,,
"[""comma""]",0,[0.25379999999699976],93,0,93,0,1,5f4e7c5027d2a00631b19618,Mężczyzna,24,2021-07-13_21h48.54.254,rantool2,2021.1.4,Win32,74.96251874,5f4e7c5027d2a00631b19618,60d9d14f4a8a35a482e0d9bf,60ededf3cfb52379262775f0,,,,,,,,,,,,
"[""comma""]",0,[0.3870999999940352],94,0,94,0,1,5f4e7c5027d2a00631b19618,Mężczyzna,24,2021-07-13_21h48.54.254,rantool2,2021.1.4,Win32,74.96251874,5f4e7c5027d2a00631b19618,60d9d14f4a8a35a482e0d9bf,60ededf3cfb52379262775f0,,,,,,,,,,,,
"[""period""]",0,[0.260300000011938],95,0,95,0,1,5f4e7c5027d2a00631b19618,Mężczyzna,24,2021-07-13_21h48.54.254,rantool2,2021.1.4,Win32,74.96251874,5f4e7c5027d2a00631b19618,60d9d14f4a8a35a482e0d9bf,60ededf3cfb52379262775f0,,,,,,,,,,,,
"[""period"",""period"",""period""]",0,"[0.2835999999940384,1.515299999997012,1.9714999999999918]",96,0,96,0,1,5f4e7c5027d2a00631b19618,Mężczyzna,24,2021-07-13_21h48.54.254,rantool2,2021.1.4,Win32,74.96251874,5f4e7c5027d2a00631b19618,60d9d14f4a8a35a482e0d9bf,60ededf3cfb52379262775f0,,,,,,,,,,,,
"[""period""]",0,[0.2669999999999959],97,0,97,0,1,5f4e7c5027d2a00631b19618,Mężczyzna,24,2021-07-13_21h48.54.254,rantool2,2021.1.4,Win32,74.96251874,5f4e7c5027d2a00631b19618,60d9d14f4a8a35a482e0d9bf,60ededf3cfb52379262775f0,,,,,,,,,,,,
"[""comma""]",0,[0.28189999999105453],98,0,98,0,1,5f4e7c5027d2a00631b19618,Mężczyzna,24,2021-07-13_21h48.54.254,rantool2,2021.1.4,Win32,74.96251874,5f4e7c5027d2a00631b19618,60d9d14f4a8a35a482e0d9bf,60ededf3cfb52379262775f0,,,,,,,,,,,,
"[""comma""]",0,[0.5685000000000002],99,0,99,0,1,5f4e7c5027d2a00631b19618,Mężczyzna,24,2021-07-13_21h48.54.254,rantool2,2021.1.4,Win32,74.96251874,5f4e7c5027d2a00631b19618,60d9d14f4a8a35a482e0d9bf,60ededf3cfb52379262775f0,,,,,,,,,,,,
"[""period""]",0,[0.3207000000029723],100,0,100,0,1,5f4e7c5027d2a00631b19618,Mężczyzna,24,2021-07-13_21h48.54.254,rantool2,2021.1.4,Win32,74.96251874,5f4e7c5027d2a00631b19618,60d9d14f4a8a35a482e0d9bf,60ededf3cfb52379262775f0,,,,,,,,,,,,
"[""comma""]",0,[0.33609999999401907],101,0,101,0,1,5f4e7c5027d2a00631b19618,Mężczyzna,24,2021-07-13_21h48.54.254,rantool2,2021.1.4,Win32,74.96251874,5f4e7c5027d2a00631b19618,60d9d14f4a8a35a482e0d9bf,60ededf3cfb52379262775f0,,,,,,,,,,,,
"[""comma""]",0,[0.28720000000296864],102,0,102,0,1,5f4e7c5027d2a00631b19618,Mężczyzna,24,2021-07-13_21h48.54.254,rantool2,2021.1.4,Win32,74.96251874,5f4e7c5027d2a00631b19618,60d9d14f4a8a35a482e0d9bf,60ededf3cfb52379262775f0,,,,,,,,,,,,
"[""period""]",0,[0.3505000000000109],103,0,103,0,1,5f4e7c5027d2a00631b19618,Mężczyzna,24,2021-07-13_21h48.54.254,rantool2,2021.1.4,Win32,74.96251874,5f4e7c5027d2a00631b19618,60d9d14f4a8a35a482e0d9bf,60ededf3cfb52379262775f0,,,,,,,,,,,,
"[""comma""]",0,[0.3575000000000159],104,0,104,0,1,5f4e7c5027d2a00631b19618,Mężczyzna,24,2021-07-13_21h48.54.254,rantool2,2021.1.4,Win32,74.96251874,5f4e7c5027d2a00631b19618,60d9d14f4a8a35a482e0d9bf,60ededf3cfb52379262775f0,,,,,,,,,,,,
"[""comma""]",0,[0.3172000000029698],105,0,105,0,1,5f4e7c5027d2a00631b19618,Mężczyzna,24,2021-07-13_21h48.54.254,rantool2,2021.1.4,Win32,74.96251874,5f4e7c5027d2a00631b19618,60d9d14f4a8a35a482e0d9bf,60ededf3cfb52379262775f0,,,,,,,,,,,,
"[""period""]",0,[0.2937000000030139],106,0,106,0,1,5f4e7c5027d2a00631b19618,Mężczyzna,24,2021-07-13_21h48.54.254,rantool2,2021.1.4,Win32,74.96251874,5f4e7c5027d2a00631b19618,60d9d14f4a8a35a482e0d9bf,60ededf3cfb52379262775f0,,,,,,,,,,,,
"[""comma""]",0,[0.29959999999402953],107,0,107,0,1,5f4e7c5027d2a00631b19618,Mężczyzna,24,2021-07-13_21h48.54.254,rantool2,2021.1.4,Win32,74.96251874,5f4e7c5027d2a00631b19618,60d9d14f4a8a35a482e0d9bf,60ededf3cfb52379262775f0,,,,,,,,,,,,
"[""comma""]",0,[0.30840000000597456],108,0,108,0,1,5f4e7c5027d2a00631b19618,Mężczyzna,24,2021-07-13_21h48.54.254,rantool2,2021.1.4,Win32,74.96251874,5f4e7c5027d2a00631b19618,60d9d14f4a8a35a482e0d9bf,60ededf3cfb52379262775f0,,,,,,,,,,,,
"[""period""]",0,[0.2872000000029402],109,0,109,0,1,5f4e7c5027d2a00631b19618,Mężczyzna,24,2021-07-13_21h48.54.254,rantool2,2021.1.4,Win32,74.96251874,5f4e7c5027d2a00631b19618,60d9d14f4a8a35a482e0d9bf,60ededf3cfb52379262775f0,,,,,,,,,,,,
"[""comma""]",0,[0.31049999999999045],110,0,110,0,1,5f4e7c5027d2a00631b19618,Mężczyzna,24,2021-07-13_21h48.54.254,rantool2,2021.1.4,Win32,74.96251874,5f4e7c5027d2a00631b19618,60d9d14f4a8a35a482e0d9bf,60ededf3cfb52379262775f0,,,,,,,,,,,,
"[""period""]",0,[0.25389999999106294],111,0,111,0,1,5f4e7c5027d2a00631b19618,Mężczyzna,24,2021-07-13_21h48.54.254,rantool2,2021.1.4,Win32,74.96251874,5f4e7c5027d2a00631b19618,60d9d14f4a8a35a482e0d9bf,60ededf3cfb52379262775f0,,,,,,,,,,,,
"[""period""]",0,[0.25359999999403726],112,0,112,0,1,5f4e7c5027d2a00631b19618,Mężczyzna,24,2021-07-13_21h48.54.254,rantool2,2021.1.4,Win32,74.96251874,5f4e7c5027d2a00631b19618,60d9d14f4a8a35a482e0d9bf,60ededf3cfb52379262775f0,,,,,,,,,,,,
"[""period""]",0,[0.2686000000089166],113,0,113,0,1,5f4e7c5027d2a00631b19618,Mężczyzna,24,2021-07-13_21h48.54.254,rantool2,2021.1.4,Win32,74.96251874,5f4e7c5027d2a00631b19618,60d9d14f4a8a35a482e0d9bf,60ededf3cfb52379262775f0,,,,,,,,,,,,
"[""period""]",0,[0.26720000000301525],114,0,114,0,1,5f4e7c5027d2a00631b19618,Mężczyzna,24,2021-07-13_21h48.54.254,rantool2,2021.1.4,Win32,74.96251874,5f4e7c5027d2a00631b19618,60d9d14f4a8a35a482e0d9bf,60ededf3cfb52379262775f0,,,,,,,,,,,,
"[""comma""]",0,[0.2827999999969961],115,0,115,0,1,5f4e7c5027d2a00631b19618,Mężczyzna,24,2021-07-13_21h48.54.254,rantool2,2021.1.4,Win32,74.96251874,5f4e7c5027d2a00631b19618,60d9d14f4a8a35a482e0d9bf,60ededf3cfb52379262775f0,,,,,,,,,,,,
"[""period""]",0,[0.4269999999999641],116,0,116,0,1,5f4e7c5027d2a00631b19618,Mężczyzna,24,2021-07-13_21h48.54.254,rantool2,2021.1.4,Win32,74.96251874,5f4e7c5027d2a00631b19618,60d9d14f4a8a35a482e0d9bf,60ededf3cfb52379262775f0,,,,,,,,,,,,
"[""comma""]",0,[0.40859999999401],117,0,117,0,1,5f4e7c5027d2a00631b19618,Mężczyzna,24,2021-07-13_21h48.54.254,rantool2,2021.1.4,Win32,74.96251874,5f4e7c5027d2a00631b19618,60d9d14f4a8a35a482e0d9bf,60ededf3cfb52379262775f0,,,,,,,,,,,,
"[""period""]",0,[0.3612999999970157],118,0,118,0,1,5f4e7c5027d2a00631b19618,Mężczyzna,24,2021-07-13_21h48.54.254,rantool2,2021.1.4,Win32,74.96251874,5f4e7c5027d2a00631b19618,60d9d14f4a8a35a482e0d9bf,60ededf3cfb52379262775f0,,,,,,,,,,,,
"[""period""]",0,[0.4774000000059573],119,0,119,0,1,5f4e7c5027d2a00631b19618,Mężczyzna,24,2021-07-13_21h48.54.254,rantool2,2021.1.4,Win32,74.96251874,5f4e7c5027d2a00631b19618,60d9d14f4a8a35a482e0d9bf,60ededf3cfb52379262775f0,,,,,,,,,,,,
,,,,,,,,5f4e7c5027d2a00631b19618,Mężczyzna,24,2021-07-13_21h48.54.254,rantool2,2021.1.4,Win32,74.96251874,5f4e7c5027d2a00631b19618,60d9d14f4a8a35a482e0d9bf,60ededf3cfb52379262775f0,f,3.0235,0,0,0,17,1,OROOORO,OROOORR,21.03750787,22.12173012,series_1
,,,,,,,,5f4e7c5027d2a00631b19618,Mężczyzna,24,2021-07-13_21h48.54.254,rantool2,2021.1.4,Win32,74.96251874,5f4e7c5027d2a00631b19618,60d9d14f4a8a35a482e0d9bf,60ededf3cfb52379262775f0,f,1.9474,0,1,1,26,1,ORROROO,ORROROR,22.02732763,21.71443381,series_0
,,,,,,,,5f4e7c5027d2a00631b19618,Mężczyzna,24,2021-07-13_21h48.54.254,rantool2,2021.1.4,Win32,74.96251874,5f4e7c5027d2a00631b19618,60d9d14f4a8a35a482e0d9bf,60ededf3cfb52379262775f0,j,1.9069,0,2,2,40,1,ROROOOO,ROROOOR,20.87963819,21.37121559,series_1
,,,,,,,,5f4e7c5027d2a00631b19618,Mężczyzna,24,2021-07-13_21h48.54.254,rantool2,2021.1.4,Win32,74.96251874,5f4e7c5027d2a00631b19618,60d9d14f4a8a35a482e0d9bf,60ededf3cfb52379262775f0,f,1.1769,0,3,3,6,1,OOORROO,OOORROR,21.12383932,21.38562617,series_1
,,,,,,,,5f4e7c5027d2a00631b19618,Mężczyzna,24,2021-07-13_21h48.54.254,rantool2,2021.1.4,Win32,74.96251874,5f4e7c5027d2a00631b19618,60d9d14f4a8a35a482e0d9bf,60ededf3cfb52379262775f0,j,1.5506,0,4,4,38,1,ROORROO,ROORROR,21.79500819,21.36812781,series_0
,,,,,,,,5f4e7c5027d2a00631b19618,Mężczyzna,24,2021-07-13_21h48.54.254,rantool2,2021.1.4,Win32,74.96251874,5f4e7c5027d2a00631b19618,60d9d14f4a8a35a482e0d9bf,60ededf3cfb52379262775f0,f,2.3661,0,5,5,25,1,ORROORO,ORROORR,21.79500819,22.61624387,series_1
,,,,,,,,5f4e7c5027d2a00631b19618,Mężczyzna,24,2021-07-13_21h48.54.254,rantool2,2021.1.4,Win32,74.96251874,5f4e7c5027d2a00631b19618,60d9d14f4a8a35a482e0d9bf,60ededf3cfb52379262775f0,j,1.8802,0,6,6,58,1,RRROROO,RRROROR,22.1285618,21.37121559,series_0
,,,,,,,,5f4e7c5027d2a00631b19618,Mężczyzna,24,2021-07-13_21h48.54.254,rantool2,2021.1.4,Win32,74.96251874,5f4e7c5027d2a00631b19618,60d9d14f4a8a35a482e0d9bf,60ededf3cfb52379262775f0,j,1.9226,0,7,7,11,1,OORORRO,OORORRR,22.18365867,22.6797523,series_1
,,,,,,,,5f4e7c5027d2a00631b19618,Mężczyzna,24,2021-07-13_21h48.54.254,rantool2,2021.1.4,Win32,74.96251874,5f4e7c5027d2a00631b19618,60d9d14f4a8a35a482e0d9bf,60ededf3cfb52379262775f0,j,1.4935,0,8,8,31,1,ORRRRRO,ORRRRRR,22.16413392,20.74050628,series_0
,,,,,,,,5f4e7c5027d2a00631b19618,Mężczyzna,24,2021-07-13_21h48.54.254,rantool2,2021.1.4,Win32,74.96251874,5f4e7c5027d2a00631b19618,60d9d14f4a8a35a482e0d9bf,60ededf3cfb52379262775f0,f,2.0006,0,9,9,8,1,OOROOOO,OOROOOR,19.91402015,20.89823192,series_1
,,,,,,,,5f4e7c5027d2a00631b19618,Mężczyzna,24,2021-07-13_21h48.54.254,rantool2,2021.1.4,Win32,74.96251874,5f4e7c5027d2a00631b19618,60d9d14f4a8a35a482e0d9bf,60ededf3cfb52379262775f0,f,2.2671,0,10,10,15,1,OORRRRO,OORRRRR,22.10108823,21.74922619,series_0
,,,,,,,,5f4e7c5027d2a00631b19618,Mężczyzna,24,2021-07-13_21h48.54.254,rantool2,2021.1.4,Win32,74.96251874,5f4e7c5027d2a00631b19618,60d9d14f4a8a35a482e0d9bf,60ededf3cfb52379262775f0,f,3.0013,0,11,11,18,1,OROOROO,OROOROR,20.84860893,21.22513037,series_1
,,,,,,,,5f4e7c5027d2a00631b19618,Mężczyzna,24,2021-07-13_21h48.54.254,rantool2,2021.1.4,Win32,74.96251874,5f4e7c5027d2a00631b19618,60d9d14f4a8a35a482e0d9bf,60ededf3cfb52379262775f0,j,2.4832,0,12,12,14,1,OORRROO,OORRROR,22.24142883,22.16977179,series_0
,,,,,,,,5f4e7c5027d2a00631b19618,Mężczyzna,24,2021-07-13_21h48.54.254,rantool2,2021.1.4,Win32,74.96251874,5f4e7c5027d2a00631b19618,60d9d14f4a8a35a482e0d9bf,60ededf3cfb52379262775f0,j,2.389,0,13,13,0,1,OOOOOOO,OOOOOOR,18.52739004,19.62521613,series_1
,,,,,,,,5f4e7c5027d2a00631b19618,Mężczyzna,24,2021-07-13_21h48.54.254,rantool2,2021.1.4,Win32,74.96251874,5f4e7c5027d2a00631b19618,60d9d14f4a8a35a482e0d9bf,60ededf3cfb52379262775f0,f,2.3232,0,14,14,30,1,ORRRROO,ORRRROR,22.46748491,22.03072203,series_0
,,,,,,,,5f4e7c5027d2a00631b19618,Mężczyzna,24,2021-07-13_21h48.54.254,rantool2,2021.1.4,Win32,74.96251874,5f4e7c5027d2a00631b19618,60d9d14f4a8a35a482e0d9bf,60ededf3cfb52379262775f0,j,2.278,0,15,15,1,1,OOOOORO,OOOOORR,19.92253567,20.74050628,series_1
,,,,,,,,5f4e7c5027d2a00631b19618,Mężczyzna,24,2021-07-13_21h48.54.254,rantool2,2021.1.4,Win32,74.96251874,5f4e7c5027d2a00631b19618,60d9d14f4a8a35a482e0d9bf,60ededf3cfb52379262775f0,j,1.9253,0,16,16,43,1,RORORRO,RORORRR,20.71309134,21.07490964,series_1
,,,,,,,,5f4e7c5027d2a00631b19618,Mężczyzna,24,2021-07-13_21h48.54.254,rantool2,2021.1.4,Win32,74.96251874,5f4e7c5027d2a00631b19618,60d9d14f4a8a35a482e0d9bf,60ededf3cfb52379262775f0,f,2.591,0,17,17,63,1,RRRRRRO,RRRRRRR,21.35278725,19.62521613,series_0
,,,,,,,,5f4e7c5027d2a00631b19618,Mężczyzna,24,2021-07-13_21h48.54.254,rantool2,2021.1.4,Win32,74.96251874,5f4e7c5027d2a00631b19618,60d9d14f4a8a35a482e0d9bf,60ededf3cfb52379262775f0,j,2.8383,0,18,18,7,1,OOORRRO,OOORRRR,21.6194508,21.899017,series_1
,,,,,,,,5f4e7c5027d2a00631b19618,Mężczyzna,24,2021-07-13_21h48.54.254,rantool2,2021.1.4,Win32,74.96251874,5f4e7c5027d2a00631b19618,60d9d14f4a8a35a482e0d9bf,60ededf3cfb52379262775f0,f,1.7171,0,19,19,47,1,RORRRRO,RORRRRR,21.81333602,21.02936224,series_0
,,,,,,,,5f4e7c5027d2a00631b19618,Mężczyzna,24,2021-07-13_21h48.54.254,rantool2,2021.1.4,Win32,74.96251874,5f4e7c5027d2a00631b19618,60d9d14f4a8a35a482e0d9bf,60ededf3cfb52379262775f0,j,1.9241,0,20,20,41,1,ROROORO,ROROORR,20.42602454,21.71443381,series_1
,,,,,,,,5f4e7c5027d2a00631b19618,Mężczyzna,24,2021-07-13_21h48.54.254,rantool2,2021.1.4,Win32,74.96251874,5f4e7c5027d2a00631b19618,60d9d14f4a8a35a482e0d9bf,60ededf3cfb52379262775f0,f,2.8866,0,21,21,39,1,ROORRRO,ROORRRR,21.82425538,21.38562617,series_0
,,,,,,,,5f4e7c5027d2a00631b19618,Mężczyzna,24,2021-07-13_21h48.54.254,rantool2,2021.1.4,Win32,74.96251874,5f4e7c5027d2a00631b19618,60d9d14f4a8a35a482e0d9bf,60ededf3cfb52379262775f0,f,2.8239,0,22,22,29,1,ORRRORO,ORRRORR,22.00300695,22.12173012,series_1
,,,,,,,,5f4e7c5027d2a00631b19618,Mężczyzna,24,2021-07-13_21h48.54.254,rantool2,2021.1.4,Win32,74.96251874,5f4e7c5027d2a00631b19618,60d9d14f4a8a35a482e0d9bf,60ededf3cfb52379262775f0,j,2.2232,0,23,23,61,1,RRRRORO,RRRRORR,21.81333602,21.17347734,series_0
,,,,,,,,5f4e7c5027d2a00631b19618,Mężczyzna,24,2021-07-13_21h48.54.254,rantool2,2021.1.4,Win32,74.96251874,5f4e7c5027d2a00631b19618,60d9d14f4a8a35a482e0d9bf,60ededf3cfb52379262775f0,f,2.2703,0,24,24,2,1,OOOOROO,OOOOROR,20.43051175,21.02936224,series_1
,,,,,,,,5f4e7c5027d2a00631b19618,Mężczyzna,24,2021-07-13_21h48.54.254,rantool2,2021.1.4,Win32,74.96251874,5f4e7c5027d2a00631b19618,60d9d14f4a8a35a482e0d9bf,60ededf3cfb52379262775f0,f,2.3525,0,25,25,34,1,ROOOROO,ROOOROR,21.03750787,21.24781509,series_1
,,,,,,,,5f4e7c5027d2a00631b19618,Mężczyzna,24,2021-07-13_21h48.54.254,rantool2,2021.1.4,Win32,74.96251874,5f4e7c5027d2a00631b19618,60d9d14f4a8a35a482e0d9bf,60ededf3cfb52379262775f0,j,2.3226,0,26,26,24,1,ORROOOO,ORROOOR,21.12383932,22.07102821,series_1
,,,,,,,,5f4e7c5027d2a00631b19618,Mężczyzna,24,2021-07-13_21h48.54.254,rantool2,2021.1.4,Win32,74.96251874,5f4e7c5027d2a00631b19618,60d9d14f4a8a35a482e0d9bf,60ededf3cfb52379262775f0,j,2.8868,0,27,27,53,1,RRORORO,RRORORR,20.71309134,21.90565814,series_1
,,,,,,,,5f4e7c5027d2a00631b19618,Mężczyzna,24,2021-07-13_21h48.54.254,rantool2,2021.1.4,Win32,74.96251874,5f4e7c5027d2a00631b19618,60d9d14f4a8a35a482e0d9bf,60ededf3cfb52379262775f0,f,2.811,0,28,28,9,1,OOROORO,OOROORR,21.07991943,22.2428857,series_1
,,,,,,,,5f4e7c5027d2a00631b19618,Mężczyzna,24,2021-07-13_21h48.54.254,rantool2,2021.1.4,Win32,74.96251874,5f4e7c5027d2a00631b19618,60d9d14f4a8a35a482e0d9bf,60ededf3cfb52379262775f0,f,2.7276,0,29,29,23,1,ORORRRO,ORORRRR,22.1285618,21.9921709,series_0
,,,,,,,,5f4e7c5027d2a00631b19618,Mężczyzna,24,2021-07-13_21h48.54.254,rantool2,2021.1.4,Win32,74.96251874,5f4e7c5027d2a00631b19618,60d9d14f4a8a35a482e0d9bf,60ededf3cfb52379262775f0,j,1.8195,0,30,30,60,1,RRRROOO,RRRROOR,22.10108823,22.15934078,series_1
,,,,,,,,5f4e7c5027d2a00631b19618,Mężczyzna,24,2021-07-13_21h48.54.254,rantool2,2021.1.4,Win32,74.96251874,5f4e7c5027d2a00631b19618,60d9d14f4a8a35a482e0d9bf,60ededf3cfb52379262775f0,f,1.6675,0,31,31,35,1,ROOORRO,ROOORRR,21.76276513,22.16977179,series_1
,,,,,,,,5f4e7c5027d2a00631b19618,Mężczyzna,24,2021-07-13_21h48.54.254,rantool2,2021.1.4,Win32,74.96251874,5f4e7c5027d2a00631b19618,60d9d14f4a8a35a482e0d9bf,60ededf3cfb52379262775f0,j,2.5012,0,32,32,19,1,OROORRO,OROORRR,21.73568164,22.11181017,series_1
,,,,,,,,5f4e7c5027d2a00631b19618,Mężczyzna,24,2021-07-13_21h48.54.254,rantool2,2021.1.4,Win32,74.96251874,5f4e7c5027d2a00631b19618,60d9d14f4a8a35a482e0d9bf,60ededf3cfb52379262775f0,f,3.3635,0,33,33,16,1,OROOOOO,OROOOOR,20.43051175,21.17347734,series_1
,,,,,,,,5f4e7c5027d2a00631b19618,Mężczyzna,24,2021-07-13_21h48.54.254,rantool2,2021.1.4,Win32,74.96251874,5f4e7c5027d2a00631b19618,60d9d14f4a8a35a482e0d9bf,60ededf3cfb52379262775f0,f,1.9721,0,34,34,42,1,ROROROO,ROROROR,20.39515459,19.8361834,series_0
,,,,,,,,5f4e7c5027d2a00631b19618,Mężczyzna,24,2021-07-13_21h48.54.254,rantool2,2021.1.4,Win32,74.96251874,5f4e7c5027d2a00631b19618,60d9d14f4a8a35a482e0d9bf,60ededf3cfb52379262775f0,f,3.6768,0,35,35,50,1,RROOROO,RROOROR,21.73568164,22.02566557,series_1
,,,,,,,,5f4e7c5027d2a00631b19618,Mężczyzna,24,2021-07-13_21h48.54.254,rantool2,2021.1.4,Win32,74.96251874,5f4e7c5027d2a00631b19618,60d9d14f4a8a35a482e0d9bf,60ededf3cfb52379262775f0,j,2.9258,0,36,36,28,1,ORRROOO,ORRROOR,22.24142883,22.53364006,series_1
,,,,,,,,5f4e7c5027d2a00631b19618,Mężczyzna,24,2021-07-13_21h48.54.254,rantool2,2021.1.4,Win32,74.96251874,5f4e7c5027d2a00631b19618,60d9d14f4a8a35a482e0d9bf,60ededf3cfb52379262775f0,f,2.6175,0,37,37,52,1,RROROOO,RROROOR,22.18365867,22.11097995,series_0
,,,,,,,,5f4e7c5027d2a00631b19618,Mężczyzna,24,2021-07-13_21h48.54.254,rantool2,2021.1.4,Win32,74.96251874,5f4e7c5027d2a00631b19618,60d9d14f4a8a35a482e0d9bf,60ededf3cfb52379262775f0,j,2.6812,0,38,38,46,1,RORRROO,RORRROR,22.00300695,21.24781509,series_0
,,,,,,,,5f4e7c5027d2a00631b19618,Mężczyzna,24,2021-07-13_21h48.54.254,rantool2,2021.1.4,Win32,74.96251874,5f4e7c5027d2a00631b19618,60d9d14f4a8a35a482e0d9bf,60ededf3cfb52379262775f0,f,1.9493,0,39,39,20,1,OROROOO,OROROOR,21.31236711,21.90565814,series_1
,,,,,,,,5f4e7c5027d2a00631b19618,Mężczyzna,24,2021-07-13_21h48.54.254,rantool2,2021.1.4,Win32,74.96251874,5f4e7c5027d2a00631b19618,60d9d14f4a8a35a482e0d9bf,60ededf3cfb52379262775f0,f,2.896,0,40,40,51,1,RROORRO,RROORRR,21.89852628,22.02786418,series_1
,,,,,,,,5f4e7c5027d2a00631b19618,Mężczyzna,24,2021-07-13_21h48.54.254,rantool2,2021.1.4,Win32,74.96251874,5f4e7c5027d2a00631b19618,60d9d14f4a8a35a482e0d9bf,60ededf3cfb52379262775f0,f,2.5978,0,41,41,32,1,ROOOOOO,ROOOOOR,19.92253567,21.27974287,series_1
,,,,,,,,5f4e7c5027d2a00631b19618,Mężczyzna,24,2021-07-13_21h48.54.254,rantool2,2021.1.4,Win32,74.96251874,5f4e7c5027d2a00631b19618,60d9d14f4a8a35a482e0d9bf,60ededf3cfb52379262775f0,j,2.3223,0,42,42,10,1,OOROROO,OOROROR,21.31236711,21.07490964,series_0
,,,,,,,,5f4e7c5027d2a00631b19618,Mężczyzna,24,2021-07-13_21h48.54.254,rantool2,2021.1.4,Win32,74.96251874,5f4e7c5027d2a00631b19618,60d9d14f4a8a35a482e0d9bf,60ededf3cfb52379262775f0,f,2.8206,0,43,43,3,1,OOOORRO,OOOORRR,20.90986523,21.74922619,series_1
,,,,,,,,5f4e7c5027d2a00631b19618,Mężczyzna,24,2021-07-13_21h48.54.254,rantool2,2021.1.4,Win32,74.96251874,5f4e7c5027d2a00631b19618,60d9d14f4a8a35a482e0d9bf,60ededf3cfb52379262775f0,j,2.0595,0,44,44,59,1,RRRORRO,RRRORRR,21.56657303,20.89823192,series_0
,,,,,,,,5f4e7c5027d2a00631b19618,Mężczyzna,24,2021-07-13_21h48.54.254,rantool2,2021.1.4,Win32,74.96251874,5f4e7c5027d2a00631b19618,60d9d14f4a8a35a482e0d9bf,60ededf3cfb52379262775f0,j,3.0905,0,45,45,13,1,OORRORO,OORRORR,21.66733484,22.11181017,series_1
,,,,,,,,5f4e7c5027d2a00631b19618,Mężczyzna,24,2021-07-13_21h48.54.254,rantool2,2021.1.4,Win32,74.96251874,5f4e7c5027d2a00631b19618,60d9d14f4a8a35a482e0d9bf,60ededf3cfb52379262775f0,f,3.0066,0,46,46,62,1,RRRRROO,RRRRROR,22.16413392,21.27974287,series_0
,,,,,,,,5f4e7c5027d2a00631b19618,Mężczyzna,24,2021-07-13_21h48.54.254,rantool2,2021.1.4,Win32,74.96251874,5f4e7c5027d2a00631b19618,60d9d14f4a8a35a482e0d9bf,60ededf3cfb52379262775f0,f,2.2106,0,47,47,54,1,RRORROO,RRORROR,21.55250791,20.9984461,series_0
,,,,,,,,5f4e7c5027d2a00631b19618,Mężczyzna,24,2021-07-13_21h48.54.254,rantool2,2021.1.4,Win32,74.96251874,5f4e7c5027d2a00631b19618,60d9d14f4a8a35a482e0d9bf,60ededf3cfb52379262775f0,j,3.4414,0,48,48,48,1,RROOOOO,RROOOOR,20.90986523,22.15934078,series_1
,,,,,,,,5f4e7c5027d2a00631b19618,Mężczyzna,24,2021-07-13_21h48.54.254,rantool2,2021.1.4,Win32,74.96251874,5f4e7c5027d2a00631b19618,60d9d14f4a8a35a482e0d9bf,60ededf3cfb52379262775f0,j,2.2115,0,49,49,33,1,ROOOORO,ROOOORR,20.83779602,22.03072203,series_1
,,,,,,,,5f4e7c5027d2a00631b19618,Mężczyzna,24,2021-07-13_21h48.54.254,rantool2,2021.1.4,Win32,74.96251874,5f4e7c5027d2a00631b19618,60d9d14f4a8a35a482e0d9bf,60ededf3cfb52379262775f0,j,2.9041,0,50,50,12,1,OORROOO,OORROOR,21.30250474,22.02786418,series_1
,,,,,,,,5f4e7c5027d2a00631b19618,Mężczyzna,24,2021-07-13_21h48.54.254,rantool2,2021.1.4,Win32,74.96251874,5f4e7c5027d2a00631b19618,60d9d14f4a8a35a482e0d9bf,60ededf3cfb52379262775f0,j,2.0389,0,51,51,45,1,RORRORO,RORRORR,20.78182524,21.22513037,series_1
,,,,,,,,5f4e7c5027d2a00631b19618,Mężczyzna,24,2021-07-13_21h48.54.254,rantool2,2021.1.4,Win32,74.96251874,5f4e7c5027d2a00631b19618,60d9d14f4a8a35a482e0d9bf,60ededf3cfb52379262775f0,j,1.8178,0,52,52,44,1,RORROOO,RORROOR,21.66733484,22.02566557,series_1
,,,,,,,,5f4e7c5027d2a00631b19618,Mężczyzna,24,2021-07-13_21h48.54.254,rantool2,2021.1.4,Win32,74.96251874,5f4e7c5027d2a00631b19618,60d9d14f4a8a35a482e0d9bf,60ededf3cfb52379262775f0,f,2.7213,0,53,53,57,1,RRROORO,RRROORR,21.82425538,22.07102821,series_1
,,,,,,,,5f4e7c5027d2a00631b19618,Mężczyzna,24,2021-07-13_21h48.54.254,rantool2,2021.1.4,Win32,74.96251874,5f4e7c5027d2a00631b19618,60d9d14f4a8a35a482e0d9bf,60ededf3cfb52379262775f0,j,2.9645,0,54,54,22,1,ORORROO,ORORROR,22.02732763,21.57657071,series_0
,,,,,,,,5f4e7c5027d2a00631b19618,Mężczyzna,24,2021-07-13_21h48.54.254,rantool2,2021.1.4,Win32,74.96251874,5f4e7c5027d2a00631b19618,60d9d14f4a8a35a482e0d9bf,60ededf3cfb52379262775f0,f,2.0248,0,55,55,36,1,ROOROOO,ROOROOR,21.07991943,20.9984461,series_0
,,,,,,,,5f4e7c5027d2a00631b19618,Mężczyzna,24,2021-07-13_21h48.54.254,rantool2,2021.1.4,Win32,74.96251874,5f4e7c5027d2a00631b19618,60d9d14f4a8a35a482e0d9bf,60ededf3cfb52379262775f0,j,2.2808,0,56,56,4,1,OOOROOO,OOOROOR,19.91402015,21.21223021,series_1
,,,,,,,,5f4e7c5027d2a00631b19618,Mężczyzna,24,2021-07-13_21h48.54.254,rantool2,2021.1.4,Win32,74.96251874,5f4e7c5027d2a00631b19618,60d9d14f4a8a35a482e0d9bf,60ededf3cfb52379262775f0,j,2.3883,0,57,57,49,1,RROOORO,RROOORR,21.76276513,22.53364006,series_1
,,,,,,,,5f4e7c5027d2a00631b19618,Mężczyzna,24,2021-07-13_21h48.54.254,rantool2,2021.1.4,Win32,74.96251874,5f4e7c5027d2a00631b19618,60d9d14f4a8a35a482e0d9bf,60ededf3cfb52379262775f0,f,2.7184,0,58,58,55,1,RRORRRO,RRORRRR,21.56657303,21.21223021,series_0
,,,,,,,,5f4e7c5027d2a00631b19618,Mężczyzna,24,2021-07-13_21h48.54.254,rantool2,2021.1.4,Win32,74.96251874,5f4e7c5027d2a00631b19618,60d9d14f4a8a35a482e0d9bf,60ededf3cfb52379262775f0,j,1.9686,0,59,59,21,1,ORORORO,ORORORR,20.39515459,22.06781359,series_1
,,,,,,,,5f4e7c5027d2a00631b19618,Mężczyzna,24,2021-07-13_21h48.54.254,rantool2,2021.1.4,Win32,74.96251874,5f4e7c5027d2a00631b19618,60d9d14f4a8a35a482e0d9bf,60ededf3cfb52379262775f0,j,2.0205,0,60,60,27,1,ORRORRO,ORRORRR,21.55250791,22.2428857,series_1
,,,,,,,,5f4e7c5027d2a00631b19618,Mężczyzna,24,2021-07-13_21h48.54.254,rantool2,2021.1.4,Win32,74.96251874,5f4e7c5027d2a00631b19618,60d9d14f4a8a35a482e0d9bf,60ededf3cfb52379262775f0,j,2.6994,0,61,61,37,1,ROORORO,ROORORR,20.42602454,21.57657071,series_1
,,,,,,,,5f4e7c5027d2a00631b19618,Mężczyzna,24,2021-07-13_21h48.54.254,rantool2,2021.1.4,Win32,74.96251874,5f4e7c5027d2a00631b19618,60d9d14f4a8a35a482e0d9bf,60ededf3cfb52379262775f0,j,1.9037,0,62,62,56,1,RRROOOO,RRROOOR,21.6194508,22.31681875,series_1
,,,,,,,,5f4e7c5027d2a00631b19618,Mężczyzna,24,2021-07-13_21h48.54.254,rantool2,2021.1.4,Win32,74.96251874,5f4e7c5027d2a00631b19618,60d9d14f4a8a35a482e0d9bf,60ededf3cfb52379262775f0,f,3.1353,0,63,63,5,1,OOORORO,OOORORR,20.87963819,21.9921709,series_1
