key_resp_5.keys,key_resp_5.corr,key_resp_5.rt,trials.thisRepN,trials.thisTrialN,trials.thisN,trials.thisIndex,trials.ran,id*,Płeć*,Wiek*,date,expName,psychopyVersion,OS,frameRate,id,STUDY_ID,SESSION_ID,key_resp_7.keys,key_resp_7.rt,trials_2.thisRepN,trials_2.thisTrialN,trials_2.thisN,trials_2.thisIndex,trials_2.ran,series_0,series_1,acss_0,acss_1,comparison
0,,,0,0,0,0,1,5de62d28d82800000b7f2913,Mężczyzna,25,2021-07-13_21h40.48.389,rantool2,2021.1.4,Win32,60.0240096,5de62d28d82800000b7f2913,60d9d14f4a8a35a482e0d9bf,60edec2755239d4ce24c983e,,,,,,,,,,,,
"[""comma""]",0,[1.2859999999999943],1,0,1,0,1,5de62d28d82800000b7f2913,Mężczyzna,25,2021-07-13_21h40.48.389,rantool2,2021.1.4,Win32,60.0240096,5de62d28d82800000b7f2913,60d9d14f4a8a35a482e0d9bf,60edec2755239d4ce24c983e,,,,,,,,,,,,
"[""period""]",0,[0.9509999999999863],2,0,2,0,1,5de62d28d82800000b7f2913,Mężczyzna,25,2021-07-13_21h40.48.389,rantool2,2021.1.4,Win32,60.0240096,5de62d28d82800000b7f2913,60d9d14f4a8a35a482e0d9bf,60edec2755239d4ce24c983e,,,,,,,,,,,,
"[""comma""]",0,[0.6099999999999994],3,0,3,0,1,5de62d28d82800000b7f2913,Mężczyzna,25,2021-07-13_21h40.48.389,rantool2,2021.1.4,Win32,60.0240096,5de62d28d82800000b7f2913,60d9d14f4a8a35a482e0d9bf,60edec2755239d4ce24c983e,,,,,,,,,,,,
"[""comma""]",0,[0.3229999999999933],4,0,4,0,1,5de62d28d82800000b7f2913,Mężczyzna,25,2021-07-13_21h40.48.389,rantool2,2021.1.4,Win32,60.0240096,5de62d28d82800000b7f2913,60d9d14f4a8a35a482e0d9bf,60edec2755239d4ce24c983e,,,,,,,,,,,,
"[""comma""]",0,[0.4439999999999884],5,0,5,0,1,5de62d28d82800000b7f2913,Mężczyzna,25,2021-07-13_21h40.48.389,rantool2,2021.1.4,Win32,60.0240096,5de62d28d82800000b7f2913,60d9d14f4a8a35a482e0d9bf,60edec2755239d4ce24c983e,,,,,,,,,,,,
"[""period""]",0,[0.25199999999999534],6,0,6,0,1,5de62d28d82800000b7f2913,Mężczyzna,25,2021-07-13_21h40.48.389,rantool2,2021.1.4,Win32,60.0240096,5de62d28d82800000b7f2913,60d9d14f4a8a35a482e0d9bf,60edec2755239d4ce24c983e,,,,,,,,,,,,
"[""period""]",0,[0.8529999999999944],7,0,7,0,1,5de62d28d82800000b7f2913,Mężczyzna,25,2021-07-13_21h40.48.389,rantool2,2021.1.4,Win32,60.0240096,5de62d28d82800000b7f2913,60d9d14f4a8a35a482e0d9bf,60edec2755239d4ce24c983e,,,,,,,,,,,,
"[""comma""]",0,[0.4420000000000073],8,0,8,0,1,5de62d28d82800000b7f2913,Mężczyzna,25,2021-07-13_21h40.48.389,rantool2,2021.1.4,Win32,60.0240096,5de62d28d82800000b7f2913,60d9d14f4a8a35a482e0d9bf,60edec2755239d4ce24c983e,,,,,,,,,,,,
"[""comma""]",0,[0.4830000000000041],9,0,9,0,1,5de62d28d82800000b7f2913,Mężczyzna,25,2021-07-13_21h40.48.389,rantool2,2021.1.4,Win32,60.0240096,5de62d28d82800000b7f2913,60d9d14f4a8a35a482e0d9bf,60edec2755239d4ce24c983e,,,,,,,,,,,,
"[""period""]",0,[0.29999999999999716],10,0,10,0,1,5de62d28d82800000b7f2913,Mężczyzna,25,2021-07-13_21h40.48.389,rantool2,2021.1.4,Win32,60.0240096,5de62d28d82800000b7f2913,60d9d14f4a8a35a482e0d9bf,60edec2755239d4ce24c983e,,,,,,,,,,,,
"[""period""]",0,[0.28600000000000136],11,0,11,0,1,5de62d28d82800000b7f2913,Mężczyzna,25,2021-07-13_21h40.48.389,rantool2,2021.1.4,Win32,60.0240096,5de62d28d82800000b7f2913,60d9d14f4a8a35a482e0d9bf,60edec2755239d4ce24c983e,,,,,,,,,,,,
"[""period""]",0,[0.23499999999999943],12,0,12,0,1,5de62d28d82800000b7f2913,Mężczyzna,25,2021-07-13_21h40.48.389,rantool2,2021.1.4,Win32,60.0240096,5de62d28d82800000b7f2913,60d9d14f4a8a35a482e0d9bf,60edec2755239d4ce24c983e,,,,,,,,,,,,
"[""period""]",0,[0.26600000000000534],13,0,13,0,1,5de62d28d82800000b7f2913,Mężczyzna,25,2021-07-13_21h40.48.389,rantool2,2021.1.4,Win32,60.0240096,5de62d28d82800000b7f2913,60d9d14f4a8a35a482e0d9bf,60edec2755239d4ce24c983e,,,,,,,,,,,,
"[""comma""]",0,[0.21999999999999886],14,0,14,0,1,5de62d28d82800000b7f2913,Mężczyzna,25,2021-07-13_21h40.48.389,rantool2,2021.1.4,Win32,60.0240096,5de62d28d82800000b7f2913,60d9d14f4a8a35a482e0d9bf,60edec2755239d4ce24c983e,,,,,,,,,,,,
"[""comma""]",0,[0.23499999999999943],15,0,15,0,1,5de62d28d82800000b7f2913,Mężczyzna,25,2021-07-13_21h40.48.389,rantool2,2021.1.4,Win32,60.0240096,5de62d28d82800000b7f2913,60d9d14f4a8a35a482e0d9bf,60edec2755239d4ce24c983e,,,,,,,,,,,,
"[""period""]",0,[0.25199999999999534],16,0,16,0,1,5de62d28d82800000b7f2913,Mężczyzna,25,2021-07-13_21h40.48.389,rantool2,2021.1.4,Win32,60.0240096,5de62d28d82800000b7f2913,60d9d14f4a8a35a482e0d9bf,60edec2755239d4ce24c983e,,,,,,,,,,,,
"[""comma""]",0,[0.23400000000000887],17,0,17,0,1,5de62d28d82800000b7f2913,Mężczyzna,25,2021-07-13_21h40.48.389,rantool2,2021.1.4,Win32,60.0240096,5de62d28d82800000b7f2913,60d9d14f4a8a35a482e0d9bf,60edec2755239d4ce24c983e,,,,,,,,,,,,
"[""comma""]",0,[0.2669999999999959],18,0,18,0,1,5de62d28d82800000b7f2913,Mężczyzna,25,2021-07-13_21h40.48.389,rantool2,2021.1.4,Win32,60.0240096,5de62d28d82800000b7f2913,60d9d14f4a8a35a482e0d9bf,60edec2755239d4ce24c983e,,,,,,,,,,,,
"[""period""]",0,[0.519999999999996],19,0,19,0,1,5de62d28d82800000b7f2913,Mężczyzna,25,2021-07-13_21h40.48.389,rantool2,2021.1.4,Win32,60.0240096,5de62d28d82800000b7f2913,60d9d14f4a8a35a482e0d9bf,60edec2755239d4ce24c983e,,,,,,,,,,,,
"[""comma""]",0,[0.32500000000000284],20,0,20,0,1,5de62d28d82800000b7f2913,Mężczyzna,25,2021-07-13_21h40.48.389,rantool2,2021.1.4,Win32,60.0240096,5de62d28d82800000b7f2913,60d9d14f4a8a35a482e0d9bf,60edec2755239d4ce24c983e,,,,,,,,,,,,
"[""comma""]",0,[0.2850000000000108],21,0,21,0,1,5de62d28d82800000b7f2913,Mężczyzna,25,2021-07-13_21h40.48.389,rantool2,2021.1.4,Win32,60.0240096,5de62d28d82800000b7f2913,60d9d14f4a8a35a482e0d9bf,60edec2755239d4ce24c983e,,,,,,,,,,,,
"[""comma""]",0,[0.3539999999999992],22,0,22,0,1,5de62d28d82800000b7f2913,Mężczyzna,25,2021-07-13_21h40.48.389,rantool2,2021.1.4,Win32,60.0240096,5de62d28d82800000b7f2913,60d9d14f4a8a35a482e0d9bf,60edec2755239d4ce24c983e,,,,,,,,,,,,
"[""period""]",0,[0.018000000000000682],23,0,23,0,1,5de62d28d82800000b7f2913,Mężczyzna,25,2021-07-13_21h40.48.389,rantool2,2021.1.4,Win32,60.0240096,5de62d28d82800000b7f2913,60d9d14f4a8a35a482e0d9bf,60edec2755239d4ce24c983e,,,,,,,,,,,,
"[""period""]",0,[0.23499999999999943],24,0,24,0,1,5de62d28d82800000b7f2913,Mężczyzna,25,2021-07-13_21h40.48.389,rantool2,2021.1.4,Win32,60.0240096,5de62d28d82800000b7f2913,60d9d14f4a8a35a482e0d9bf,60edec2755239d4ce24c983e,,,,,,,,,,,,
"[""period""]",0,[0.23499999999999943],25,0,25,0,1,5de62d28d82800000b7f2913,Mężczyzna,25,2021-07-13_21h40.48.389,rantool2,2021.1.4,Win32,60.0240096,5de62d28d82800000b7f2913,60d9d14f4a8a35a482e0d9bf,60edec2755239d4ce24c983e,,,,,,,,,,,,
"[""comma""]",0,[0.2430000000000092],26,0,26,0,1,5de62d28d82800000b7f2913,Mężczyzna,25,2021-07-13_21h40.48.389,rantool2,2021.1.4,Win32,60.0240096,5de62d28d82800000b7f2913,60d9d14f4a8a35a482e0d9bf,60edec2755239d4ce24c983e,,,,,,,,,,,,
"[""comma""]",0,[0.23900000000000432],27,0,27,0,1,5de62d28d82800000b7f2913,Mężczyzna,25,2021-07-13_21h40.48.389,rantool2,2021.1.4,Win32,60.0240096,5de62d28d82800000b7f2913,60d9d14f4a8a35a482e0d9bf,60edec2755239d4ce24c983e,,,,,,,,,,,,
"[""period""]",0,[0.23499999999999943],28,0,28,0,1,5de62d28d82800000b7f2913,Mężczyzna,25,2021-07-13_21h40.48.389,rantool2,2021.1.4,Win32,60.0240096,5de62d28d82800000b7f2913,60d9d14f4a8a35a482e0d9bf,60edec2755239d4ce24c983e,,,,,,,,,,,,
"[""comma""]",0,[0.23399999999999466],29,0,29,0,1,5de62d28d82800000b7f2913,Mężczyzna,25,2021-07-13_21h40.48.389,rantool2,2021.1.4,Win32,60.0240096,5de62d28d82800000b7f2913,60d9d14f4a8a35a482e0d9bf,60edec2755239d4ce24c983e,,,,,,,,,,,,
"[""period""]",0,[0.30700000000000216],30,0,30,0,1,5de62d28d82800000b7f2913,Mężczyzna,25,2021-07-13_21h40.48.389,rantool2,2021.1.4,Win32,60.0240096,5de62d28d82800000b7f2913,60d9d14f4a8a35a482e0d9bf,60edec2755239d4ce24c983e,,,,,,,,,,,,
"[""period""]",0,[0.5030000000000001],31,0,31,0,1,5de62d28d82800000b7f2913,Mężczyzna,25,2021-07-13_21h40.48.389,rantool2,2021.1.4,Win32,60.0240096,5de62d28d82800000b7f2913,60d9d14f4a8a35a482e0d9bf,60edec2755239d4ce24c983e,,,,,,,,,,,,
"[""period""]",0,[0.2669999999999959],32,0,32,0,1,5de62d28d82800000b7f2913,Mężczyzna,25,2021-07-13_21h40.48.389,rantool2,2021.1.4,Win32,60.0240096,5de62d28d82800000b7f2913,60d9d14f4a8a35a482e0d9bf,60edec2755239d4ce24c983e,,,,,,,,,,,,
"[""period""]",0,[0.32399999999999807],33,0,33,0,1,5de62d28d82800000b7f2913,Mężczyzna,25,2021-07-13_21h40.48.389,rantool2,2021.1.4,Win32,60.0240096,5de62d28d82800000b7f2913,60d9d14f4a8a35a482e0d9bf,60edec2755239d4ce24c983e,,,,,,,,,,,,
"[""comma""]",0,[0.20900000000000318],34,0,34,0,1,5de62d28d82800000b7f2913,Mężczyzna,25,2021-07-13_21h40.48.389,rantool2,2021.1.4,Win32,60.0240096,5de62d28d82800000b7f2913,60d9d14f4a8a35a482e0d9bf,60edec2755239d4ce24c983e,,,,,,,,,,,,
"[""comma"",""comma""]",0,"[0.020000000000010232,0.5840000000000032]",35,0,35,0,1,5de62d28d82800000b7f2913,Mężczyzna,25,2021-07-13_21h40.48.389,rantool2,2021.1.4,Win32,60.0240096,5de62d28d82800000b7f2913,60d9d14f4a8a35a482e0d9bf,60edec2755239d4ce24c983e,,,,,,,,,,,,
"[""period""]",0,[0.3369999999999891],36,0,36,0,1,5de62d28d82800000b7f2913,Mężczyzna,25,2021-07-13_21h40.48.389,rantool2,2021.1.4,Win32,60.0240096,5de62d28d82800000b7f2913,60d9d14f4a8a35a482e0d9bf,60edec2755239d4ce24c983e,,,,,,,,,,,,
"[""comma""]",0,[0.6110000000000184],37,0,37,0,1,5de62d28d82800000b7f2913,Mężczyzna,25,2021-07-13_21h40.48.389,rantool2,2021.1.4,Win32,60.0240096,5de62d28d82800000b7f2913,60d9d14f4a8a35a482e0d9bf,60edec2755239d4ce24c983e,,,,,,,,,,,,
"[""comma""]",0,[0.41800000000000637],38,0,38,0,1,5de62d28d82800000b7f2913,Mężczyzna,25,2021-07-13_21h40.48.389,rantool2,2021.1.4,Win32,60.0240096,5de62d28d82800000b7f2913,60d9d14f4a8a35a482e0d9bf,60edec2755239d4ce24c983e,,,,,,,,,,,,
"[""period""]",0,[0.25199999999998113],39,0,39,0,1,5de62d28d82800000b7f2913,Mężczyzna,25,2021-07-13_21h40.48.389,rantool2,2021.1.4,Win32,60.0240096,5de62d28d82800000b7f2913,60d9d14f4a8a35a482e0d9bf,60edec2755239d4ce24c983e,,,,,,,,,,,,
"[""period""]",0,[0.257000000000005],40,0,40,0,1,5de62d28d82800000b7f2913,Mężczyzna,25,2021-07-13_21h40.48.389,rantool2,2021.1.4,Win32,60.0240096,5de62d28d82800000b7f2913,60d9d14f4a8a35a482e0d9bf,60edec2755239d4ce24c983e,,,,,,,,,,,,
"[""period""]",0,[0.6090000000000089],41,0,41,0,1,5de62d28d82800000b7f2913,Mężczyzna,25,2021-07-13_21h40.48.389,rantool2,2021.1.4,Win32,60.0240096,5de62d28d82800000b7f2913,60d9d14f4a8a35a482e0d9bf,60edec2755239d4ce24c983e,,,,,,,,,,,,
"[""period""]",0,[0.367999999999995],42,0,42,0,1,5de62d28d82800000b7f2913,Mężczyzna,25,2021-07-13_21h40.48.389,rantool2,2021.1.4,Win32,60.0240096,5de62d28d82800000b7f2913,60d9d14f4a8a35a482e0d9bf,60edec2755239d4ce24c983e,,,,,,,,,,,,
"[""comma""]",0,[0.3020000000000209],43,0,43,0,1,5de62d28d82800000b7f2913,Mężczyzna,25,2021-07-13_21h40.48.389,rantool2,2021.1.4,Win32,60.0240096,5de62d28d82800000b7f2913,60d9d14f4a8a35a482e0d9bf,60edec2755239d4ce24c983e,,,,,,,,,,,,
"[""period""]",0,[0.2699999999999818],44,0,44,0,1,5de62d28d82800000b7f2913,Mężczyzna,25,2021-07-13_21h40.48.389,rantool2,2021.1.4,Win32,60.0240096,5de62d28d82800000b7f2913,60d9d14f4a8a35a482e0d9bf,60edec2755239d4ce24c983e,,,,,,,,,,,,
"[""comma""]",0,[0.2920000000000016],45,0,45,0,1,5de62d28d82800000b7f2913,Mężczyzna,25,2021-07-13_21h40.48.389,rantool2,2021.1.4,Win32,60.0240096,5de62d28d82800000b7f2913,60d9d14f4a8a35a482e0d9bf,60edec2755239d4ce24c983e,,,,,,,,,,,,
"[""comma""]",0,[0.2849999999999966],46,0,46,0,1,5de62d28d82800000b7f2913,Mężczyzna,25,2021-07-13_21h40.48.389,rantool2,2021.1.4,Win32,60.0240096,5de62d28d82800000b7f2913,60d9d14f4a8a35a482e0d9bf,60edec2755239d4ce24c983e,,,,,,,,,,,,
"[""period""]",0,[0.3370000000000175],47,0,47,0,1,5de62d28d82800000b7f2913,Mężczyzna,25,2021-07-13_21h40.48.389,rantool2,2021.1.4,Win32,60.0240096,5de62d28d82800000b7f2913,60d9d14f4a8a35a482e0d9bf,60edec2755239d4ce24c983e,,,,,,,,,,,,
"[""comma""]",0,[0.07099999999999795],48,0,48,0,1,5de62d28d82800000b7f2913,Mężczyzna,25,2021-07-13_21h40.48.389,rantool2,2021.1.4,Win32,60.0240096,5de62d28d82800000b7f2913,60d9d14f4a8a35a482e0d9bf,60edec2755239d4ce24c983e,,,,,,,,,,,,
"[""period""]",0,[0.3020000000000209],49,0,49,0,1,5de62d28d82800000b7f2913,Mężczyzna,25,2021-07-13_21h40.48.389,rantool2,2021.1.4,Win32,60.0240096,5de62d28d82800000b7f2913,60d9d14f4a8a35a482e0d9bf,60edec2755239d4ce24c983e,,,,,,,,,,,,
"[""period""]",0,[0.3240000000000123],50,0,50,0,1,5de62d28d82800000b7f2913,Mężczyzna,25,2021-07-13_21h40.48.389,rantool2,2021.1.4,Win32,60.0240096,5de62d28d82800000b7f2913,60d9d14f4a8a35a482e0d9bf,60edec2755239d4ce24c983e,,,,,,,,,,,,
"[""comma""]",0,[0.26900000000000546],51,0,51,0,1,5de62d28d82800000b7f2913,Mężczyzna,25,2021-07-13_21h40.48.389,rantool2,2021.1.4,Win32,60.0240096,5de62d28d82800000b7f2913,60d9d14f4a8a35a482e0d9bf,60edec2755239d4ce24c983e,,,,,,,,,,,,
"[""comma""]",0,[0.32200000000000273],52,0,52,0,1,5de62d28d82800000b7f2913,Mężczyzna,25,2021-07-13_21h40.48.389,rantool2,2021.1.4,Win32,60.0240096,5de62d28d82800000b7f2913,60d9d14f4a8a35a482e0d9bf,60edec2755239d4ce24c983e,,,,,,,,,,,,
"[""comma""]",0,[0.2839999999999918],53,0,53,0,1,5de62d28d82800000b7f2913,Mężczyzna,25,2021-07-13_21h40.48.389,rantool2,2021.1.4,Win32,60.0240096,5de62d28d82800000b7f2913,60d9d14f4a8a35a482e0d9bf,60edec2755239d4ce24c983e,,,,,,,,,,,,
"[""comma""]",0,[0.30000000000001137],54,0,54,0,1,5de62d28d82800000b7f2913,Mężczyzna,25,2021-07-13_21h40.48.389,rantool2,2021.1.4,Win32,60.0240096,5de62d28d82800000b7f2913,60d9d14f4a8a35a482e0d9bf,60edec2755239d4ce24c983e,,,,,,,,,,,,
"[""period""]",0,[0.23900000000000432],55,0,55,0,1,5de62d28d82800000b7f2913,Mężczyzna,25,2021-07-13_21h40.48.389,rantool2,2021.1.4,Win32,60.0240096,5de62d28d82800000b7f2913,60d9d14f4a8a35a482e0d9bf,60edec2755239d4ce24c983e,,,,,,,,,,,,
"[""period""]",0,[0.25899999999998613],56,0,56,0,1,5de62d28d82800000b7f2913,Mężczyzna,25,2021-07-13_21h40.48.389,rantool2,2021.1.4,Win32,60.0240096,5de62d28d82800000b7f2913,60d9d14f4a8a35a482e0d9bf,60edec2755239d4ce24c983e,,,,,,,,,,,,
"[""comma""]",0,[0.27600000000001046],57,0,57,0,1,5de62d28d82800000b7f2913,Mężczyzna,25,2021-07-13_21h40.48.389,rantool2,2021.1.4,Win32,60.0240096,5de62d28d82800000b7f2913,60d9d14f4a8a35a482e0d9bf,60edec2755239d4ce24c983e,,,,,,,,,,,,
"[""period""]",0,[0.25899999999998613],58,0,58,0,1,5de62d28d82800000b7f2913,Mężczyzna,25,2021-07-13_21h40.48.389,rantool2,2021.1.4,Win32,60.0240096,5de62d28d82800000b7f2913,60d9d14f4a8a35a482e0d9bf,60edec2755239d4ce24c983e,,,,,,,,,,,,
"[""period""]",0,[0.29300000000000637],59,0,59,0,1,5de62d28d82800000b7f2913,Mężczyzna,25,2021-07-13_21h40.48.389,rantool2,2021.1.4,Win32,60.0240096,5de62d28d82800000b7f2913,60d9d14f4a8a35a482e0d9bf,60edec2755239d4ce24c983e,,,,,,,,,,,,
"[""comma""]",0,[0.3689999999999998],60,0,60,0,1,5de62d28d82800000b7f2913,Mężczyzna,25,2021-07-13_21h40.48.389,rantool2,2021.1.4,Win32,60.0240096,5de62d28d82800000b7f2913,60d9d14f4a8a35a482e0d9bf,60edec2755239d4ce24c983e,,,,,,,,,,,,
"[""comma""]",0,[0.28700000000000614],61,0,61,0,1,5de62d28d82800000b7f2913,Mężczyzna,25,2021-07-13_21h40.48.389,rantool2,2021.1.4,Win32,60.0240096,5de62d28d82800000b7f2913,60d9d14f4a8a35a482e0d9bf,60edec2755239d4ce24c983e,,,,,,,,,,,,
"[""period""]",0,[0.30299999999999727],62,0,62,0,1,5de62d28d82800000b7f2913,Mężczyzna,25,2021-07-13_21h40.48.389,rantool2,2021.1.4,Win32,60.0240096,5de62d28d82800000b7f2913,60d9d14f4a8a35a482e0d9bf,60edec2755239d4ce24c983e,,,,,,,,,,,,
"[""period""]",0,[0.30699999999998795],63,0,63,0,1,5de62d28d82800000b7f2913,Mężczyzna,25,2021-07-13_21h40.48.389,rantool2,2021.1.4,Win32,60.0240096,5de62d28d82800000b7f2913,60d9d14f4a8a35a482e0d9bf,60edec2755239d4ce24c983e,,,,,,,,,,,,
"[""period""]",0,[0.8189999999999884],64,0,64,0,1,5de62d28d82800000b7f2913,Mężczyzna,25,2021-07-13_21h40.48.389,rantool2,2021.1.4,Win32,60.0240096,5de62d28d82800000b7f2913,60d9d14f4a8a35a482e0d9bf,60edec2755239d4ce24c983e,,,,,,,,,,,,
"[""comma""]",0,[0.3849999999999909],65,0,65,0,1,5de62d28d82800000b7f2913,Mężczyzna,25,2021-07-13_21h40.48.389,rantool2,2021.1.4,Win32,60.0240096,5de62d28d82800000b7f2913,60d9d14f4a8a35a482e0d9bf,60edec2755239d4ce24c983e,,,,,,,,,,,,
"[""period""]",0,[0.2740000000000009],66,0,66,0,1,5de62d28d82800000b7f2913,Mężczyzna,25,2021-07-13_21h40.48.389,rantool2,2021.1.4,Win32,60.0240096,5de62d28d82800000b7f2913,60d9d14f4a8a35a482e0d9bf,60edec2755239d4ce24c983e,,,,,,,,,,,,
"[""comma""]",0,[0.3059999999999832],67,0,67,0,1,5de62d28d82800000b7f2913,Mężczyzna,25,2021-07-13_21h40.48.389,rantool2,2021.1.4,Win32,60.0240096,5de62d28d82800000b7f2913,60d9d14f4a8a35a482e0d9bf,60edec2755239d4ce24c983e,,,,,,,,,,,,
"[""comma""]",0,[0.3400000000000034],68,0,68,0,1,5de62d28d82800000b7f2913,Mężczyzna,25,2021-07-13_21h40.48.389,rantool2,2021.1.4,Win32,60.0240096,5de62d28d82800000b7f2913,60d9d14f4a8a35a482e0d9bf,60edec2755239d4ce24c983e,,,,,,,,,,,,
"[""period""]",0,[0.28600000000000136],69,0,69,0,1,5de62d28d82800000b7f2913,Mężczyzna,25,2021-07-13_21h40.48.389,rantool2,2021.1.4,Win32,60.0240096,5de62d28d82800000b7f2913,60d9d14f4a8a35a482e0d9bf,60edec2755239d4ce24c983e,,,,,,,,,,,,
"[""comma""]",0,[0.25899999999998613],70,0,70,0,1,5de62d28d82800000b7f2913,Mężczyzna,25,2021-07-13_21h40.48.389,rantool2,2021.1.4,Win32,60.0240096,5de62d28d82800000b7f2913,60d9d14f4a8a35a482e0d9bf,60edec2755239d4ce24c983e,,,,,,,,,,,,
"[""period""]",0,[0.25200000000000955],71,0,71,0,1,5de62d28d82800000b7f2913,Mężczyzna,25,2021-07-13_21h40.48.389,rantool2,2021.1.4,Win32,60.0240096,5de62d28d82800000b7f2913,60d9d14f4a8a35a482e0d9bf,60edec2755239d4ce24c983e,,,,,,,,,,,,
"[""period""]",0,[0.3100000000000023],72,0,72,0,1,5de62d28d82800000b7f2913,Mężczyzna,25,2021-07-13_21h40.48.389,rantool2,2021.1.4,Win32,60.0240096,5de62d28d82800000b7f2913,60d9d14f4a8a35a482e0d9bf,60edec2755239d4ce24c983e,,,,,,,,,,,,
"[""period""]",0,[0.4550000000000125],73,0,73,0,1,5de62d28d82800000b7f2913,Mężczyzna,25,2021-07-13_21h40.48.389,rantool2,2021.1.4,Win32,60.0240096,5de62d28d82800000b7f2913,60d9d14f4a8a35a482e0d9bf,60edec2755239d4ce24c983e,,,,,,,,,,,,
"[""comma""]",0,[0.2470000000000141],74,0,74,0,1,5de62d28d82800000b7f2913,Mężczyzna,25,2021-07-13_21h40.48.389,rantool2,2021.1.4,Win32,60.0240096,5de62d28d82800000b7f2913,60d9d14f4a8a35a482e0d9bf,60edec2755239d4ce24c983e,,,,,,,,,,,,
"[""period""]",0,[0.25099999999997635],75,0,75,0,1,5de62d28d82800000b7f2913,Mężczyzna,25,2021-07-13_21h40.48.389,rantool2,2021.1.4,Win32,60.0240096,5de62d28d82800000b7f2913,60d9d14f4a8a35a482e0d9bf,60edec2755239d4ce24c983e,,,,,,,,,,,,
"[""comma""]",0,[0.3009999999999877],76,0,76,0,1,5de62d28d82800000b7f2913,Mężczyzna,25,2021-07-13_21h40.48.389,rantool2,2021.1.4,Win32,60.0240096,5de62d28d82800000b7f2913,60d9d14f4a8a35a482e0d9bf,60edec2755239d4ce24c983e,,,,,,,,,,,,
"[""comma""]",0,[0.2569999999999766],77,0,77,0,1,5de62d28d82800000b7f2913,Mężczyzna,25,2021-07-13_21h40.48.389,rantool2,2021.1.4,Win32,60.0240096,5de62d28d82800000b7f2913,60d9d14f4a8a35a482e0d9bf,60edec2755239d4ce24c983e,,,,,,,,,,,,
"[""comma""]",0,[0.33600000000001273],78,0,78,0,1,5de62d28d82800000b7f2913,Mężczyzna,25,2021-07-13_21h40.48.389,rantool2,2021.1.4,Win32,60.0240096,5de62d28d82800000b7f2913,60d9d14f4a8a35a482e0d9bf,60edec2755239d4ce24c983e,,,,,,,,,,,,
"[""period""]",0,[0.2949999999999875],79,0,79,0,1,5de62d28d82800000b7f2913,Mężczyzna,25,2021-07-13_21h40.48.389,rantool2,2021.1.4,Win32,60.0240096,5de62d28d82800000b7f2913,60d9d14f4a8a35a482e0d9bf,60edec2755239d4ce24c983e,,,,,,,,,,,,
"[""period""]",0,[0.32499999999998863],80,0,80,0,1,5de62d28d82800000b7f2913,Mężczyzna,25,2021-07-13_21h40.48.389,rantool2,2021.1.4,Win32,60.0240096,5de62d28d82800000b7f2913,60d9d14f4a8a35a482e0d9bf,60edec2755239d4ce24c983e,,,,,,,,,,,,
"[""comma""]",0,[0.2939999999999827],81,0,81,0,1,5de62d28d82800000b7f2913,Mężczyzna,25,2021-07-13_21h40.48.389,rantool2,2021.1.4,Win32,60.0240096,5de62d28d82800000b7f2913,60d9d14f4a8a35a482e0d9bf,60edec2755239d4ce24c983e,,,,,,,,,,,,
"[""period""]",0,[0.2740000000000009],82,0,82,0,1,5de62d28d82800000b7f2913,Mężczyzna,25,2021-07-13_21h40.48.389,rantool2,2021.1.4,Win32,60.0240096,5de62d28d82800000b7f2913,60d9d14f4a8a35a482e0d9bf,60edec2755239d4ce24c983e,,,,,,,,,,,,
"[""comma""]",0,[0.2939999999999827],83,0,83,0,1,5de62d28d82800000b7f2913,Mężczyzna,25,2021-07-13_21h40.48.389,rantool2,2021.1.4,Win32,60.0240096,5de62d28d82800000b7f2913,60d9d14f4a8a35a482e0d9bf,60edec2755239d4ce24c983e,,,,,,,,,,,,
"[""period""]",0,[0.2839999999999918],84,0,84,0,1,5de62d28d82800000b7f2913,Mężczyzna,25,2021-07-13_21h40.48.389,rantool2,2021.1.4,Win32,60.0240096,5de62d28d82800000b7f2913,60d9d14f4a8a35a482e0d9bf,60edec2755239d4ce24c983e,,,,,,,,,,,,
"[""comma""]",0,[0.3009999999999877],85,0,85,0,1,5de62d28d82800000b7f2913,Mężczyzna,25,2021-07-13_21h40.48.389,rantool2,2021.1.4,Win32,60.0240096,5de62d28d82800000b7f2913,60d9d14f4a8a35a482e0d9bf,60edec2755239d4ce24c983e,,,,,,,,,,,,
"[""comma""]",0,[0.2880000000000109],86,0,86,0,1,5de62d28d82800000b7f2913,Mężczyzna,25,2021-07-13_21h40.48.389,rantool2,2021.1.4,Win32,60.0240096,5de62d28d82800000b7f2913,60d9d14f4a8a35a482e0d9bf,60edec2755239d4ce24c983e,,,,,,,,,,,,
"[""period""]",0,[0.5660000000000025],87,0,87,0,1,5de62d28d82800000b7f2913,Mężczyzna,25,2021-07-13_21h40.48.389,rantool2,2021.1.4,Win32,60.0240096,5de62d28d82800000b7f2913,60d9d14f4a8a35a482e0d9bf,60edec2755239d4ce24c983e,,,,,,,,,,,,
"[""period""]",0,[0.3240000000000123],88,0,88,0,1,5de62d28d82800000b7f2913,Mężczyzna,25,2021-07-13_21h40.48.389,rantool2,2021.1.4,Win32,60.0240096,5de62d28d82800000b7f2913,60d9d14f4a8a35a482e0d9bf,60edec2755239d4ce24c983e,,,,,,,,,,,,
"[""comma""]",0,[0.4760000000000275],89,0,89,0,1,5de62d28d82800000b7f2913,Mężczyzna,25,2021-07-13_21h40.48.389,rantool2,2021.1.4,Win32,60.0240096,5de62d28d82800000b7f2913,60d9d14f4a8a35a482e0d9bf,60edec2755239d4ce24c983e,,,,,,,,,,,,
"[""comma""]",0,[0.26899999999997704],90,0,90,0,1,5de62d28d82800000b7f2913,Mężczyzna,25,2021-07-13_21h40.48.389,rantool2,2021.1.4,Win32,60.0240096,5de62d28d82800000b7f2913,60d9d14f4a8a35a482e0d9bf,60edec2755239d4ce24c983e,,,,,,,,,,,,
"[""comma""]",0,[0.2909999999999968],91,0,91,0,1,5de62d28d82800000b7f2913,Mężczyzna,25,2021-07-13_21h40.48.389,rantool2,2021.1.4,Win32,60.0240096,5de62d28d82800000b7f2913,60d9d14f4a8a35a482e0d9bf,60edec2755239d4ce24c983e,,,,,,,,,,,,
"[""period""]",0,[0.2609999999999957],92,0,92,0,1,5de62d28d82800000b7f2913,Mężczyzna,25,2021-07-13_21h40.48.389,rantool2,2021.1.4,Win32,60.0240096,5de62d28d82800000b7f2913,60d9d14f4a8a35a482e0d9bf,60edec2755239d4ce24c983e,,,,,,,,,,,,
"[""comma""]",0,[0.7200000000000273],93,0,93,0,1,5de62d28d82800000b7f2913,Mężczyzna,25,2021-07-13_21h40.48.389,rantool2,2021.1.4,Win32,60.0240096,5de62d28d82800000b7f2913,60d9d14f4a8a35a482e0d9bf,60edec2755239d4ce24c983e,,,,,,,,,,,,
"[""period""]",0,[0.33300000000002683],94,0,94,0,1,5de62d28d82800000b7f2913,Mężczyzna,25,2021-07-13_21h40.48.389,rantool2,2021.1.4,Win32,60.0240096,5de62d28d82800000b7f2913,60d9d14f4a8a35a482e0d9bf,60edec2755239d4ce24c983e,,,,,,,,,,,,
"[""period""]",0,[0.28700000000000614],95,0,95,0,1,5de62d28d82800000b7f2913,Mężczyzna,25,2021-07-13_21h40.48.389,rantool2,2021.1.4,Win32,60.0240096,5de62d28d82800000b7f2913,60d9d14f4a8a35a482e0d9bf,60edec2755239d4ce24c983e,,,,,,,,,,,,
"[""period""]",0,[0.24399999999999977],96,0,96,0,1,5de62d28d82800000b7f2913,Mężczyzna,25,2021-07-13_21h40.48.389,rantool2,2021.1.4,Win32,60.0240096,5de62d28d82800000b7f2913,60d9d14f4a8a35a482e0d9bf,60edec2755239d4ce24c983e,,,,,,,,,,,,
"[""comma""]",0,[0.3340000000000032],97,0,97,0,1,5de62d28d82800000b7f2913,Mężczyzna,25,2021-07-13_21h40.48.389,rantool2,2021.1.4,Win32,60.0240096,5de62d28d82800000b7f2913,60d9d14f4a8a35a482e0d9bf,60edec2755239d4ce24c983e,,,,,,,,,,,,
"[""period""]",0,[0.2669999999999959],98,0,98,0,1,5de62d28d82800000b7f2913,Mężczyzna,25,2021-07-13_21h40.48.389,rantool2,2021.1.4,Win32,60.0240096,5de62d28d82800000b7f2913,60d9d14f4a8a35a482e0d9bf,60edec2755239d4ce24c983e,,,,,,,,,,,,
"[""comma""]",0,[0.34300000000001774],99,0,99,0,1,5de62d28d82800000b7f2913,Mężczyzna,25,2021-07-13_21h40.48.389,rantool2,2021.1.4,Win32,60.0240096,5de62d28d82800000b7f2913,60d9d14f4a8a35a482e0d9bf,60edec2755239d4ce24c983e,,,,,,,,,,,,
"[""period""]",0,[0.31799999999998363],100,0,100,0,1,5de62d28d82800000b7f2913,Mężczyzna,25,2021-07-13_21h40.48.389,rantool2,2021.1.4,Win32,60.0240096,5de62d28d82800000b7f2913,60d9d14f4a8a35a482e0d9bf,60edec2755239d4ce24c983e,,,,,,,,,,,,
"[""comma""]",0,[0.3120000000000118],101,0,101,0,1,5de62d28d82800000b7f2913,Mężczyzna,25,2021-07-13_21h40.48.389,rantool2,2021.1.4,Win32,60.0240096,5de62d28d82800000b7f2913,60d9d14f4a8a35a482e0d9bf,60edec2755239d4ce24c983e,,,,,,,,,,,,
"[""comma""]",0,[0.31699999999995043],102,0,102,0,1,5de62d28d82800000b7f2913,Mężczyzna,25,2021-07-13_21h40.48.389,rantool2,2021.1.4,Win32,60.0240096,5de62d28d82800000b7f2913,60d9d14f4a8a35a482e0d9bf,60edec2755239d4ce24c983e,,,,,,,,,,,,
"[""comma""]",0,[0.32799999999997453],103,0,103,0,1,5de62d28d82800000b7f2913,Mężczyzna,25,2021-07-13_21h40.48.389,rantool2,2021.1.4,Win32,60.0240096,5de62d28d82800000b7f2913,60d9d14f4a8a35a482e0d9bf,60edec2755239d4ce24c983e,,,,,,,,,,,,
"[""period""]",0,[0.25],104,0,104,0,1,5de62d28d82800000b7f2913,Mężczyzna,25,2021-07-13_21h40.48.389,rantool2,2021.1.4,Win32,60.0240096,5de62d28d82800000b7f2913,60d9d14f4a8a35a482e0d9bf,60edec2755239d4ce24c983e,,,,,,,,,,,,
"[""period""]",0,[0.32200000000000273],105,0,105,0,1,5de62d28d82800000b7f2913,Mężczyzna,25,2021-07-13_21h40.48.389,rantool2,2021.1.4,Win32,60.0240096,5de62d28d82800000b7f2913,60d9d14f4a8a35a482e0d9bf,60edec2755239d4ce24c983e,,,,,,,,,,,,
"[""comma""]",0,[0.4549999999999841],106,0,106,0,1,5de62d28d82800000b7f2913,Mężczyzna,25,2021-07-13_21h40.48.389,rantool2,2021.1.4,Win32,60.0240096,5de62d28d82800000b7f2913,60d9d14f4a8a35a482e0d9bf,60edec2755239d4ce24c983e,,,,,,,,,,,,
"[""comma""]",0,[0.4019999999999868],107,0,107,0,1,5de62d28d82800000b7f2913,Mężczyzna,25,2021-07-13_21h40.48.389,rantool2,2021.1.4,Win32,60.0240096,5de62d28d82800000b7f2913,60d9d14f4a8a35a482e0d9bf,60edec2755239d4ce24c983e,,,,,,,,,,,,
"[""comma""]",0,[0.4009999999999536],108,0,108,0,1,5de62d28d82800000b7f2913,Mężczyzna,25,2021-07-13_21h40.48.389,rantool2,2021.1.4,Win32,60.0240096,5de62d28d82800000b7f2913,60d9d14f4a8a35a482e0d9bf,60edec2755239d4ce24c983e,,,,,,,,,,,,
"[""period""]",0,[0.2750000000000341],109,0,109,0,1,5de62d28d82800000b7f2913,Mężczyzna,25,2021-07-13_21h40.48.389,rantool2,2021.1.4,Win32,60.0240096,5de62d28d82800000b7f2913,60d9d14f4a8a35a482e0d9bf,60edec2755239d4ce24c983e,,,,,,,,,,,,
"[""period"",""comma""]",0,"[0.2689999999999486,1.9259999999999877]",110,0,110,0,1,5de62d28d82800000b7f2913,Mężczyzna,25,2021-07-13_21h40.48.389,rantool2,2021.1.4,Win32,60.0240096,5de62d28d82800000b7f2913,60d9d14f4a8a35a482e0d9bf,60edec2755239d4ce24c983e,,,,,,,,,,,,
"[""comma""]",0,[0.507000000000005],111,0,111,0,1,5de62d28d82800000b7f2913,Mężczyzna,25,2021-07-13_21h40.48.389,rantool2,2021.1.4,Win32,60.0240096,5de62d28d82800000b7f2913,60d9d14f4a8a35a482e0d9bf,60edec2755239d4ce24c983e,,,,,,,,,,,,
"[""period""]",0,[0.5369999999999777],112,0,112,0,1,5de62d28d82800000b7f2913,Mężczyzna,25,2021-07-13_21h40.48.389,rantool2,2021.1.4,Win32,60.0240096,5de62d28d82800000b7f2913,60d9d14f4a8a35a482e0d9bf,60edec2755239d4ce24c983e,,,,,,,,,,,,
"[""comma""]",0,[0.3109999999999786],113,0,113,0,1,5de62d28d82800000b7f2913,Mężczyzna,25,2021-07-13_21h40.48.389,rantool2,2021.1.4,Win32,60.0240096,5de62d28d82800000b7f2913,60d9d14f4a8a35a482e0d9bf,60edec2755239d4ce24c983e,,,,,,,,,,,,
"[""comma""]",0,[0.3170000000000073],114,0,114,0,1,5de62d28d82800000b7f2913,Mężczyzna,25,2021-07-13_21h40.48.389,rantool2,2021.1.4,Win32,60.0240096,5de62d28d82800000b7f2913,60d9d14f4a8a35a482e0d9bf,60edec2755239d4ce24c983e,,,,,,,,,,,,
"[""period""]",0,[0.32200000000000273],115,0,115,0,1,5de62d28d82800000b7f2913,Mężczyzna,25,2021-07-13_21h40.48.389,rantool2,2021.1.4,Win32,60.0240096,5de62d28d82800000b7f2913,60d9d14f4a8a35a482e0d9bf,60edec2755239d4ce24c983e,,,,,,,,,,,,
"[""comma""]",0,[0.3660000000000423],116,0,116,0,1,5de62d28d82800000b7f2913,Mężczyzna,25,2021-07-13_21h40.48.389,rantool2,2021.1.4,Win32,60.0240096,5de62d28d82800000b7f2913,60d9d14f4a8a35a482e0d9bf,60edec2755239d4ce24c983e,,,,,,,,,,,,
"[""comma""]",0,[0.3369999999999891],117,0,117,0,1,5de62d28d82800000b7f2913,Mężczyzna,25,2021-07-13_21h40.48.389,rantool2,2021.1.4,Win32,60.0240096,5de62d28d82800000b7f2913,60d9d14f4a8a35a482e0d9bf,60edec2755239d4ce24c983e,,,,,,,,,,,,
"[""period""]",0,[0.30499999999995],118,0,118,0,1,5de62d28d82800000b7f2913,Mężczyzna,25,2021-07-13_21h40.48.389,rantool2,2021.1.4,Win32,60.0240096,5de62d28d82800000b7f2913,60d9d14f4a8a35a482e0d9bf,60edec2755239d4ce24c983e,,,,,,,,,,,,
"[""period""]",0,[0.33600000000001273],119,0,119,0,1,5de62d28d82800000b7f2913,Mężczyzna,25,2021-07-13_21h40.48.389,rantool2,2021.1.4,Win32,60.0240096,5de62d28d82800000b7f2913,60d9d14f4a8a35a482e0d9bf,60edec2755239d4ce24c983e,,,,,,,,,,,,
,,,,,,,,5de62d28d82800000b7f2913,Mężczyzna,25,2021-07-13_21h40.48.389,rantool2,2021.1.4,Win32,60.0240096,5de62d28d82800000b7f2913,60d9d14f4a8a35a482e0d9bf,60edec2755239d4ce24c983e,f,3.826,0,0,0,18,1,OROOROO,OROOROR,20.84860893,21.22513037,series_1
,,,,,,,,5de62d28d82800000b7f2913,Mężczyzna,25,2021-07-13_21h40.48.389,rantool2,2021.1.4,Win32,60.0240096,5de62d28d82800000b7f2913,60d9d14f4a8a35a482e0d9bf,60edec2755239d4ce24c983e,f,2.942,0,1,1,10,1,OOROROO,OOROROR,21.31236711,21.07490964,series_0
,,,,,,,,5de62d28d82800000b7f2913,Mężczyzna,25,2021-07-13_21h40.48.389,rantool2,2021.1.4,Win32,60.0240096,5de62d28d82800000b7f2913,60d9d14f4a8a35a482e0d9bf,60edec2755239d4ce24c983e,j,3.504,0,2,2,12,1,OORROOO,OORROOR,21.30250474,22.02786418,series_1
,,,,,,,,5de62d28d82800000b7f2913,Mężczyzna,25,2021-07-13_21h40.48.389,rantool2,2021.1.4,Win32,60.0240096,5de62d28d82800000b7f2913,60d9d14f4a8a35a482e0d9bf,60edec2755239d4ce24c983e,j,3.76,0,3,3,44,1,RORROOO,RORROOR,21.66733484,22.02566557,series_1
,,,,,,,,5de62d28d82800000b7f2913,Mężczyzna,25,2021-07-13_21h40.48.389,rantool2,2021.1.4,Win32,60.0240096,5de62d28d82800000b7f2913,60d9d14f4a8a35a482e0d9bf,60edec2755239d4ce24c983e,f,2.776,0,4,4,62,1,RRRRROO,RRRRROR,22.16413392,21.27974287,series_0
,,,,,,,,5de62d28d82800000b7f2913,Mężczyzna,25,2021-07-13_21h40.48.389,rantool2,2021.1.4,Win32,60.0240096,5de62d28d82800000b7f2913,60d9d14f4a8a35a482e0d9bf,60edec2755239d4ce24c983e,f,3.62,0,5,5,9,1,OOROORO,OOROORR,21.07991943,22.2428857,series_1
,,,,,,,,5de62d28d82800000b7f2913,Mężczyzna,25,2021-07-13_21h40.48.389,rantool2,2021.1.4,Win32,60.0240096,5de62d28d82800000b7f2913,60d9d14f4a8a35a482e0d9bf,60edec2755239d4ce24c983e,f,3.919,0,6,6,49,1,RROOORO,RROOORR,21.76276513,22.53364006,series_1
,,,,,,,,5de62d28d82800000b7f2913,Mężczyzna,25,2021-07-13_21h40.48.389,rantool2,2021.1.4,Win32,60.0240096,5de62d28d82800000b7f2913,60d9d14f4a8a35a482e0d9bf,60edec2755239d4ce24c983e,j,4.169,0,7,7,29,1,ORRRORO,ORRRORR,22.00300695,22.12173012,series_1
,,,,,,,,5de62d28d82800000b7f2913,Mężczyzna,25,2021-07-13_21h40.48.389,rantool2,2021.1.4,Win32,60.0240096,5de62d28d82800000b7f2913,60d9d14f4a8a35a482e0d9bf,60edec2755239d4ce24c983e,j,2.768,0,8,8,32,1,ROOOOOO,ROOOOOR,19.92253567,21.27974287,series_1
,,,,,,,,5de62d28d82800000b7f2913,Mężczyzna,25,2021-07-13_21h40.48.389,rantool2,2021.1.4,Win32,60.0240096,5de62d28d82800000b7f2913,60d9d14f4a8a35a482e0d9bf,60edec2755239d4ce24c983e,f,3.285,0,9,9,30,1,ORRRROO,ORRRROR,22.46748491,22.03072203,series_0
,,,,,,,,5de62d28d82800000b7f2913,Mężczyzna,25,2021-07-13_21h40.48.389,rantool2,2021.1.4,Win32,60.0240096,5de62d28d82800000b7f2913,60d9d14f4a8a35a482e0d9bf,60edec2755239d4ce24c983e,j,3.718,0,10,10,17,1,OROOORO,OROOORR,21.03750787,22.12173012,series_1
,,,,,,,,5de62d28d82800000b7f2913,Mężczyzna,25,2021-07-13_21h40.48.389,rantool2,2021.1.4,Win32,60.0240096,5de62d28d82800000b7f2913,60d9d14f4a8a35a482e0d9bf,60edec2755239d4ce24c983e,f,2.468,0,11,11,6,1,OOORROO,OOORROR,21.12383932,21.38562617,series_1
,,,,,,,,5de62d28d82800000b7f2913,Mężczyzna,25,2021-07-13_21h40.48.389,rantool2,2021.1.4,Win32,60.0240096,5de62d28d82800000b7f2913,60d9d14f4a8a35a482e0d9bf,60edec2755239d4ce24c983e,j,4.594,0,12,12,54,1,RRORROO,RRORROR,21.55250791,20.9984461,series_0
,,,,,,,,5de62d28d82800000b7f2913,Mężczyzna,25,2021-07-13_21h40.48.389,rantool2,2021.1.4,Win32,60.0240096,5de62d28d82800000b7f2913,60d9d14f4a8a35a482e0d9bf,60edec2755239d4ce24c983e,j,4.97,0,13,13,34,1,ROOOROO,ROOOROR,21.03750787,21.24781509,series_1
,,,,,,,,5de62d28d82800000b7f2913,Mężczyzna,25,2021-07-13_21h40.48.389,rantool2,2021.1.4,Win32,60.0240096,5de62d28d82800000b7f2913,60d9d14f4a8a35a482e0d9bf,60edec2755239d4ce24c983e,j,4.335,0,14,14,26,1,ORROROO,ORROROR,22.02732763,21.71443381,series_0
,,,,,,,,5de62d28d82800000b7f2913,Mężczyzna,25,2021-07-13_21h40.48.389,rantool2,2021.1.4,Win32,60.0240096,5de62d28d82800000b7f2913,60d9d14f4a8a35a482e0d9bf,60edec2755239d4ce24c983e,f,3.286,0,15,15,0,1,OOOOOOO,OOOOOOR,18.52739004,19.62521613,series_1
,,,,,,,,5de62d28d82800000b7f2913,Mężczyzna,25,2021-07-13_21h40.48.389,rantool2,2021.1.4,Win32,60.0240096,5de62d28d82800000b7f2913,60d9d14f4a8a35a482e0d9bf,60edec2755239d4ce24c983e,f,2.774,0,16,16,15,1,OORRRRO,OORRRRR,22.10108823,21.74922619,series_0
,,,,,,,,5de62d28d82800000b7f2913,Mężczyzna,25,2021-07-13_21h40.48.389,rantool2,2021.1.4,Win32,60.0240096,5de62d28d82800000b7f2913,60d9d14f4a8a35a482e0d9bf,60edec2755239d4ce24c983e,f,2.956,0,17,17,39,1,ROORRRO,ROORRRR,21.82425538,21.38562617,series_0
,,,,,,,,5de62d28d82800000b7f2913,Mężczyzna,25,2021-07-13_21h40.48.389,rantool2,2021.1.4,Win32,60.0240096,5de62d28d82800000b7f2913,60d9d14f4a8a35a482e0d9bf,60edec2755239d4ce24c983e,j,2.119,0,18,18,2,1,OOOOROO,OOOOROR,20.43051175,21.02936224,series_1
,,,,,,,,5de62d28d82800000b7f2913,Mężczyzna,25,2021-07-13_21h40.48.389,rantool2,2021.1.4,Win32,60.0240096,5de62d28d82800000b7f2913,60d9d14f4a8a35a482e0d9bf,60edec2755239d4ce24c983e,f,3.367,0,19,19,38,1,ROORROO,ROORROR,21.79500819,21.36812781,series_0
,,,,,,,,5de62d28d82800000b7f2913,Mężczyzna,25,2021-07-13_21h40.48.389,rantool2,2021.1.4,Win32,60.0240096,5de62d28d82800000b7f2913,60d9d14f4a8a35a482e0d9bf,60edec2755239d4ce24c983e,j,3.818,0,20,20,42,1,ROROROO,ROROROR,20.39515459,19.8361834,series_0
,,,,,,,,5de62d28d82800000b7f2913,Mężczyzna,25,2021-07-13_21h40.48.389,rantool2,2021.1.4,Win32,60.0240096,5de62d28d82800000b7f2913,60d9d14f4a8a35a482e0d9bf,60edec2755239d4ce24c983e,f,3.021,0,21,21,46,1,RORRROO,RORRROR,22.00300695,21.24781509,series_0
,,,,,,,,5de62d28d82800000b7f2913,Mężczyzna,25,2021-07-13_21h40.48.389,rantool2,2021.1.4,Win32,60.0240096,5de62d28d82800000b7f2913,60d9d14f4a8a35a482e0d9bf,60edec2755239d4ce24c983e,j,2.325,0,22,22,53,1,RRORORO,RRORORR,20.71309134,21.90565814,series_1
,,,,,,,,5de62d28d82800000b7f2913,Mężczyzna,25,2021-07-13_21h40.48.389,rantool2,2021.1.4,Win32,60.0240096,5de62d28d82800000b7f2913,60d9d14f4a8a35a482e0d9bf,60edec2755239d4ce24c983e,f,1.935,0,23,23,16,1,OROOOOO,OROOOOR,20.43051175,21.17347734,series_1
,,,,,,,,5de62d28d82800000b7f2913,Mężczyzna,25,2021-07-13_21h40.48.389,rantool2,2021.1.4,Win32,60.0240096,5de62d28d82800000b7f2913,60d9d14f4a8a35a482e0d9bf,60edec2755239d4ce24c983e,j,3.818,0,24,24,52,1,RROROOO,RROROOR,22.18365867,22.11097995,series_0
,,,,,,,,5de62d28d82800000b7f2913,Mężczyzna,25,2021-07-13_21h40.48.389,rantool2,2021.1.4,Win32,60.0240096,5de62d28d82800000b7f2913,60d9d14f4a8a35a482e0d9bf,60edec2755239d4ce24c983e,f,2.936,0,25,25,8,1,OOROOOO,OOROOOR,19.91402015,20.89823192,series_1
,,,,,,,,5de62d28d82800000b7f2913,Mężczyzna,25,2021-07-13_21h40.48.389,rantool2,2021.1.4,Win32,60.0240096,5de62d28d82800000b7f2913,60d9d14f4a8a35a482e0d9bf,60edec2755239d4ce24c983e,f,2.155,0,26,26,25,1,ORROORO,ORROORR,21.79500819,22.61624387,series_1
,,,,,,,,5de62d28d82800000b7f2913,Mężczyzna,25,2021-07-13_21h40.48.389,rantool2,2021.1.4,Win32,60.0240096,5de62d28d82800000b7f2913,60d9d14f4a8a35a482e0d9bf,60edec2755239d4ce24c983e,f,2.641,0,27,27,47,1,RORRRRO,RORRRRR,21.81333602,21.02936224,series_0
,,,,,,,,5de62d28d82800000b7f2913,Mężczyzna,25,2021-07-13_21h40.48.389,rantool2,2021.1.4,Win32,60.0240096,5de62d28d82800000b7f2913,60d9d14f4a8a35a482e0d9bf,60edec2755239d4ce24c983e,j,3.719,0,28,28,14,1,OORRROO,OORRROR,22.24142883,22.16977179,series_0
,,,,,,,,5de62d28d82800000b7f2913,Mężczyzna,25,2021-07-13_21h40.48.389,rantool2,2021.1.4,Win32,60.0240096,5de62d28d82800000b7f2913,60d9d14f4a8a35a482e0d9bf,60edec2755239d4ce24c983e,f,4.659,0,29,29,3,1,OOOORRO,OOOORRR,20.90986523,21.74922619,series_1
,,,,,,,,5de62d28d82800000b7f2913,Mężczyzna,25,2021-07-13_21h40.48.389,rantool2,2021.1.4,Win32,60.0240096,5de62d28d82800000b7f2913,60d9d14f4a8a35a482e0d9bf,60edec2755239d4ce24c983e,f,4.09,0,30,30,33,1,ROOOORO,ROOOORR,20.83779602,22.03072203,series_1
,,,,,,,,5de62d28d82800000b7f2913,Mężczyzna,25,2021-07-13_21h40.48.389,rantool2,2021.1.4,Win32,60.0240096,5de62d28d82800000b7f2913,60d9d14f4a8a35a482e0d9bf,60edec2755239d4ce24c983e,j,3.641,0,31,31,40,1,ROROOOO,ROROOOR,20.87963819,21.37121559,series_1
,,,,,,,,5de62d28d82800000b7f2913,Mężczyzna,25,2021-07-13_21h40.48.389,rantool2,2021.1.4,Win32,60.0240096,5de62d28d82800000b7f2913,60d9d14f4a8a35a482e0d9bf,60edec2755239d4ce24c983e,j,2.303,0,32,32,61,1,RRRRORO,RRRRORR,21.81333602,21.17347734,series_0
,,,,,,,,5de62d28d82800000b7f2913,Mężczyzna,25,2021-07-13_21h40.48.389,rantool2,2021.1.4,Win32,60.0240096,5de62d28d82800000b7f2913,60d9d14f4a8a35a482e0d9bf,60edec2755239d4ce24c983e,f,3.016,0,33,33,20,1,OROROOO,OROROOR,21.31236711,21.90565814,series_1
,,,,,,,,5de62d28d82800000b7f2913,Mężczyzna,25,2021-07-13_21h40.48.389,rantool2,2021.1.4,Win32,60.0240096,5de62d28d82800000b7f2913,60d9d14f4a8a35a482e0d9bf,60edec2755239d4ce24c983e,f,2.518,0,34,34,5,1,OOORORO,OOORORR,20.87963819,21.9921709,series_1
,,,,,,,,5de62d28d82800000b7f2913,Mężczyzna,25,2021-07-13_21h40.48.389,rantool2,2021.1.4,Win32,60.0240096,5de62d28d82800000b7f2913,60d9d14f4a8a35a482e0d9bf,60edec2755239d4ce24c983e,f,2.215,0,35,35,31,1,ORRRRRO,ORRRRRR,22.16413392,20.74050628,series_0
,,,,,,,,5de62d28d82800000b7f2913,Mężczyzna,25,2021-07-13_21h40.48.389,rantool2,2021.1.4,Win32,60.0240096,5de62d28d82800000b7f2913,60d9d14f4a8a35a482e0d9bf,60edec2755239d4ce24c983e,j,4.242,0,36,36,13,1,OORRORO,OORRORR,21.66733484,22.11181017,series_1
,,,,,,,,5de62d28d82800000b7f2913,Mężczyzna,25,2021-07-13_21h40.48.389,rantool2,2021.1.4,Win32,60.0240096,5de62d28d82800000b7f2913,60d9d14f4a8a35a482e0d9bf,60edec2755239d4ce24c983e,f,1.885,0,37,37,63,1,RRRRRRO,RRRRRRR,21.35278725,19.62521613,series_0
,,,,,,,,5de62d28d82800000b7f2913,Mężczyzna,25,2021-07-13_21h40.48.389,rantool2,2021.1.4,Win32,60.0240096,5de62d28d82800000b7f2913,60d9d14f4a8a35a482e0d9bf,60edec2755239d4ce24c983e,j,2.635,0,38,38,7,1,OOORRRO,OOORRRR,21.6194508,21.899017,series_1
,,,,,,,,5de62d28d82800000b7f2913,Mężczyzna,25,2021-07-13_21h40.48.389,rantool2,2021.1.4,Win32,60.0240096,5de62d28d82800000b7f2913,60d9d14f4a8a35a482e0d9bf,60edec2755239d4ce24c983e,f,2.487,0,39,39,35,1,ROOORRO,ROOORRR,21.76276513,22.16977179,series_1
,,,,,,,,5de62d28d82800000b7f2913,Mężczyzna,25,2021-07-13_21h40.48.389,rantool2,2021.1.4,Win32,60.0240096,5de62d28d82800000b7f2913,60d9d14f4a8a35a482e0d9bf,60edec2755239d4ce24c983e,f,1.754,0,40,40,60,1,RRRROOO,RRRROOR,22.10108823,22.15934078,series_1
,,,,,,,,5de62d28d82800000b7f2913,Mężczyzna,25,2021-07-13_21h40.48.389,rantool2,2021.1.4,Win32,60.0240096,5de62d28d82800000b7f2913,60d9d14f4a8a35a482e0d9bf,60edec2755239d4ce24c983e,f,1.704,0,41,41,55,1,RRORRRO,RRORRRR,21.56657303,21.21223021,series_0
,,,,,,,,5de62d28d82800000b7f2913,Mężczyzna,25,2021-07-13_21h40.48.389,rantool2,2021.1.4,Win32,60.0240096,5de62d28d82800000b7f2913,60d9d14f4a8a35a482e0d9bf,60edec2755239d4ce24c983e,f,1.953,0,42,42,37,1,ROORORO,ROORORR,20.42602454,21.57657071,series_1
,,,,,,,,5de62d28d82800000b7f2913,Mężczyzna,25,2021-07-13_21h40.48.389,rantool2,2021.1.4,Win32,60.0240096,5de62d28d82800000b7f2913,60d9d14f4a8a35a482e0d9bf,60edec2755239d4ce24c983e,f,1.503,0,43,43,56,1,RRROOOO,RRROOOR,21.6194508,22.31681875,series_1
,,,,,,,,5de62d28d82800000b7f2913,Mężczyzna,25,2021-07-13_21h40.48.389,rantool2,2021.1.4,Win32,60.0240096,5de62d28d82800000b7f2913,60d9d14f4a8a35a482e0d9bf,60edec2755239d4ce24c983e,j,2.005,0,44,44,51,1,RROORRO,RROORRR,21.89852628,22.02786418,series_1
,,,,,,,,5de62d28d82800000b7f2913,Mężczyzna,25,2021-07-13_21h40.48.389,rantool2,2021.1.4,Win32,60.0240096,5de62d28d82800000b7f2913,60d9d14f4a8a35a482e0d9bf,60edec2755239d4ce24c983e,f,1.887,0,45,45,4,1,OOOROOO,OOOROOR,19.91402015,21.21223021,series_1
,,,,,,,,5de62d28d82800000b7f2913,Mężczyzna,25,2021-07-13_21h40.48.389,rantool2,2021.1.4,Win32,60.0240096,5de62d28d82800000b7f2913,60d9d14f4a8a35a482e0d9bf,60edec2755239d4ce24c983e,j,2.501,0,46,46,24,1,ORROOOO,ORROOOR,21.12383932,22.07102821,series_1
,,,,,,,,5de62d28d82800000b7f2913,Mężczyzna,25,2021-07-13_21h40.48.389,rantool2,2021.1.4,Win32,60.0240096,5de62d28d82800000b7f2913,60d9d14f4a8a35a482e0d9bf,60edec2755239d4ce24c983e,f,2.874,0,47,47,45,1,RORRORO,RORRORR,20.78182524,21.22513037,series_1
,,,,,,,,5de62d28d82800000b7f2913,Mężczyzna,25,2021-07-13_21h40.48.389,rantool2,2021.1.4,Win32,60.0240096,5de62d28d82800000b7f2913,60d9d14f4a8a35a482e0d9bf,60edec2755239d4ce24c983e,j,2.192,0,48,48,28,1,ORRROOO,ORRROOR,22.24142883,22.53364006,series_1
,,,,,,,,5de62d28d82800000b7f2913,Mężczyzna,25,2021-07-13_21h40.48.389,rantool2,2021.1.4,Win32,60.0240096,5de62d28d82800000b7f2913,60d9d14f4a8a35a482e0d9bf,60edec2755239d4ce24c983e,f,2.406,0,49,49,22,1,ORORROO,ORORROR,22.02732763,21.57657071,series_0
,,,,,,,,5de62d28d82800000b7f2913,Mężczyzna,25,2021-07-13_21h40.48.389,rantool2,2021.1.4,Win32,60.0240096,5de62d28d82800000b7f2913,60d9d14f4a8a35a482e0d9bf,60edec2755239d4ce24c983e,j,4.043,0,50,50,11,1,OORORRO,OORORRR,22.18365867,22.6797523,series_1
,,,,,,,,5de62d28d82800000b7f2913,Mężczyzna,25,2021-07-13_21h40.48.389,rantool2,2021.1.4,Win32,60.0240096,5de62d28d82800000b7f2913,60d9d14f4a8a35a482e0d9bf,60edec2755239d4ce24c983e,f,3.65,0,51,51,48,1,RROOOOO,RROOOOR,20.90986523,22.15934078,series_1
,,,,,,,,5de62d28d82800000b7f2913,Mężczyzna,25,2021-07-13_21h40.48.389,rantool2,2021.1.4,Win32,60.0240096,5de62d28d82800000b7f2913,60d9d14f4a8a35a482e0d9bf,60edec2755239d4ce24c983e,j,4.151,0,52,52,23,1,ORORRRO,ORORRRR,22.1285618,21.9921709,series_0
,,,,,,,,5de62d28d82800000b7f2913,Mężczyzna,25,2021-07-13_21h40.48.389,rantool2,2021.1.4,Win32,60.0240096,5de62d28d82800000b7f2913,60d9d14f4a8a35a482e0d9bf,60edec2755239d4ce24c983e,f,3.402,0,53,53,57,1,RRROORO,RRROORR,21.82425538,22.07102821,series_1
,,,,,,,,5de62d28d82800000b7f2913,Mężczyzna,25,2021-07-13_21h40.48.389,rantool2,2021.1.4,Win32,60.0240096,5de62d28d82800000b7f2913,60d9d14f4a8a35a482e0d9bf,60edec2755239d4ce24c983e,j,3.173,0,54,54,36,1,ROOROOO,ROOROOR,21.07991943,20.9984461,series_0
,,,,,,,,5de62d28d82800000b7f2913,Mężczyzna,25,2021-07-13_21h40.48.389,rantool2,2021.1.4,Win32,60.0240096,5de62d28d82800000b7f2913,60d9d14f4a8a35a482e0d9bf,60edec2755239d4ce24c983e,f,1.718,0,55,55,43,1,RORORRO,RORORRR,20.71309134,21.07490964,series_1
,,,,,,,,5de62d28d82800000b7f2913,Mężczyzna,25,2021-07-13_21h40.48.389,rantool2,2021.1.4,Win32,60.0240096,5de62d28d82800000b7f2913,60d9d14f4a8a35a482e0d9bf,60edec2755239d4ce24c983e,f,4.193,0,56,56,41,1,ROROORO,ROROORR,20.42602454,21.71443381,series_1
,,,,,,,,5de62d28d82800000b7f2913,Mężczyzna,25,2021-07-13_21h40.48.389,rantool2,2021.1.4,Win32,60.0240096,5de62d28d82800000b7f2913,60d9d14f4a8a35a482e0d9bf,60edec2755239d4ce24c983e,j,3.294,0,57,57,1,1,OOOOORO,OOOOORR,19.92253567,20.74050628,series_1
,,,,,,,,5de62d28d82800000b7f2913,Mężczyzna,25,2021-07-13_21h40.48.389,rantool2,2021.1.4,Win32,60.0240096,5de62d28d82800000b7f2913,60d9d14f4a8a35a482e0d9bf,60edec2755239d4ce24c983e,,,0,58,58,50,1,RROOROO,RROOROR,21.73568164,22.02566557,series_1
,,,,,,,,5de62d28d82800000b7f2913,Mężczyzna,25,2021-07-13_21h40.48.389,rantool2,2021.1.4,Win32,60.0240096,5de62d28d82800000b7f2913,60d9d14f4a8a35a482e0d9bf,60edec2755239d4ce24c983e,f,0.204,0,59,59,21,1,ORORORO,ORORORR,20.39515459,22.06781359,series_1
,,,,,,,,5de62d28d82800000b7f2913,Mężczyzna,25,2021-07-13_21h40.48.389,rantool2,2021.1.4,Win32,60.0240096,5de62d28d82800000b7f2913,60d9d14f4a8a35a482e0d9bf,60edec2755239d4ce24c983e,f,3.94,0,60,60,19,1,OROORRO,OROORRR,21.73568164,22.11181017,series_1
,,,,,,,,5de62d28d82800000b7f2913,Mężczyzna,25,2021-07-13_21h40.48.389,rantool2,2021.1.4,Win32,60.0240096,5de62d28d82800000b7f2913,60d9d14f4a8a35a482e0d9bf,60edec2755239d4ce24c983e,f,2.936,0,61,61,58,1,RRROROO,RRROROR,22.1285618,21.37121559,series_0
,,,,,,,,5de62d28d82800000b7f2913,Mężczyzna,25,2021-07-13_21h40.48.389,rantool2,2021.1.4,Win32,60.0240096,5de62d28d82800000b7f2913,60d9d14f4a8a35a482e0d9bf,60edec2755239d4ce24c983e,f,2.743,0,62,62,27,1,ORRORRO,ORRORRR,21.55250791,22.2428857,series_1
,,,,,,,,5de62d28d82800000b7f2913,Mężczyzna,25,2021-07-13_21h40.48.389,rantool2,2021.1.4,Win32,60.0240096,5de62d28d82800000b7f2913,60d9d14f4a8a35a482e0d9bf,60edec2755239d4ce24c983e,f,3.74,0,63,63,59,1,RRRORRO,RRRORRR,21.56657303,20.89823192,series_0
