key_resp_7.keys,key_resp_7.rt,trials_2.thisRepN,trials_2.thisTrialN,trials_2.thisN,trials_2.thisIndex,trials_2.ran,id,series_0,series_1,acss_0,acss_1,comparison,id*,Płeć*,Wiek*,date,expName,psychopyVersion,OS,frameRate,STUDY_ID,SESSION_ID,key_resp_5.keys,key_resp_5.corr,key_resp_5.rt,trials.thisRepN,trials.thisTrialN,trials.thisN,trials.thisIndex,trials.ran
f,3.8439,0,0,0,48,1,5fb6aaf022099a07e417eb4f,RROOOOO,RROOOOR,20.90986523,22.15934078,series_1,5fb6aaf022099a07e417eb4f,Mężczyzna,19,2021-09-06_19h26.36.657,rantool2,2021.1.4,Win32,59.99880002,6135e006383e6ea6c3d06a28,61364f26a1ac9a52a6adf62a,,,,,,,,
j,3.5505,0,1,1,14,1,5fb6aaf022099a07e417eb4f,OORRROO,OORRROR,22.24142883,22.16977179,series_0,5fb6aaf022099a07e417eb4f,Mężczyzna,19,2021-09-06_19h26.36.657,rantool2,2021.1.4,Win32,59.99880002,6135e006383e6ea6c3d06a28,61364f26a1ac9a52a6adf62a,,,,,,,,
f,3.8561,0,2,2,38,1,5fb6aaf022099a07e417eb4f,ROORROO,ROORROR,21.79500819,21.36812781,series_0,5fb6aaf022099a07e417eb4f,Mężczyzna,19,2021-09-06_19h26.36.657,rantool2,2021.1.4,Win32,59.99880002,6135e006383e6ea6c3d06a28,61364f26a1ac9a52a6adf62a,,,,,,,,
f,3.2341,0,3,3,29,1,5fb6aaf022099a07e417eb4f,ORRRORO,ORRRORR,22.00300695,22.12173012,series_1,5fb6aaf022099a07e417eb4f,Mężczyzna,19,2021-09-06_19h26.36.657,rantool2,2021.1.4,Win32,59.99880002,6135e006383e6ea6c3d06a28,61364f26a1ac9a52a6adf62a,,,,,,,,
j,2.6428,0,4,4,58,1,5fb6aaf022099a07e417eb4f,RRROROO,RRROROR,22.1285618,21.37121559,series_0,5fb6aaf022099a07e417eb4f,Mężczyzna,19,2021-09-06_19h26.36.657,rantool2,2021.1.4,Win32,59.99880002,6135e006383e6ea6c3d06a28,61364f26a1ac9a52a6adf62a,,,,,,,,
j,3.7837,0,5,5,30,1,5fb6aaf022099a07e417eb4f,ORRRROO,ORRRROR,22.46748491,22.03072203,series_0,5fb6aaf022099a07e417eb4f,Mężczyzna,19,2021-09-06_19h26.36.657,rantool2,2021.1.4,Win32,59.99880002,6135e006383e6ea6c3d06a28,61364f26a1ac9a52a6adf62a,,,,,,,,
f,3.0011,0,6,6,39,1,5fb6aaf022099a07e417eb4f,ROORRRO,ROORRRR,21.82425538,21.38562617,series_0,5fb6aaf022099a07e417eb4f,Mężczyzna,19,2021-09-06_19h26.36.657,rantool2,2021.1.4,Win32,59.99880002,6135e006383e6ea6c3d06a28,61364f26a1ac9a52a6adf62a,,,,,,,,
f,2.4072,0,7,7,42,1,5fb6aaf022099a07e417eb4f,ROROROO,ROROROR,20.39515459,19.8361834,series_0,5fb6aaf022099a07e417eb4f,Mężczyzna,19,2021-09-06_19h26.36.657,rantool2,2021.1.4,Win32,59.99880002,6135e006383e6ea6c3d06a28,61364f26a1ac9a52a6adf62a,,,,,,,,
j,3.2672,0,8,8,59,1,5fb6aaf022099a07e417eb4f,RRRORRO,RRRORRR,21.56657303,20.89823192,series_0,5fb6aaf022099a07e417eb4f,Mężczyzna,19,2021-09-06_19h26.36.657,rantool2,2021.1.4,Win32,59.99880002,6135e006383e6ea6c3d06a28,61364f26a1ac9a52a6adf62a,,,,,,,,
j,2.3339,0,9,9,46,1,5fb6aaf022099a07e417eb4f,RORRROO,RORRROR,22.00300695,21.24781509,series_0,5fb6aaf022099a07e417eb4f,Mężczyzna,19,2021-09-06_19h26.36.657,rantool2,2021.1.4,Win32,59.99880002,6135e006383e6ea6c3d06a28,61364f26a1ac9a52a6adf62a,,,,,,,,
f,3.4768,0,10,10,34,1,5fb6aaf022099a07e417eb4f,ROOOROO,ROOOROR,21.03750787,21.24781509,series_1,5fb6aaf022099a07e417eb4f,Mężczyzna,19,2021-09-06_19h26.36.657,rantool2,2021.1.4,Win32,59.99880002,6135e006383e6ea6c3d06a28,61364f26a1ac9a52a6adf62a,,,,,,,,
j,4.2673,0,11,11,36,1,5fb6aaf022099a07e417eb4f,ROOROOO,ROOROOR,21.07991943,20.9984461,series_0,5fb6aaf022099a07e417eb4f,Mężczyzna,19,2021-09-06_19h26.36.657,rantool2,2021.1.4,Win32,59.99880002,6135e006383e6ea6c3d06a28,61364f26a1ac9a52a6adf62a,,,,,,,,
f,1.838,0,12,12,18,1,5fb6aaf022099a07e417eb4f,OROOROO,OROOROR,20.84860893,21.22513037,series_1,5fb6aaf022099a07e417eb4f,Mężczyzna,19,2021-09-06_19h26.36.657,rantool2,2021.1.4,Win32,59.99880002,6135e006383e6ea6c3d06a28,61364f26a1ac9a52a6adf62a,,,,,,,,
f,3.6752,0,13,13,13,1,5fb6aaf022099a07e417eb4f,OORRORO,OORRORR,21.66733484,22.11181017,series_1,5fb6aaf022099a07e417eb4f,Mężczyzna,19,2021-09-06_19h26.36.657,rantool2,2021.1.4,Win32,59.99880002,6135e006383e6ea6c3d06a28,61364f26a1ac9a52a6adf62a,,,,,,,,
f,4.4672,0,14,14,28,1,5fb6aaf022099a07e417eb4f,ORRROOO,ORRROOR,22.24142883,22.53364006,series_1,5fb6aaf022099a07e417eb4f,Mężczyzna,19,2021-09-06_19h26.36.657,rantool2,2021.1.4,Win32,59.99880002,6135e006383e6ea6c3d06a28,61364f26a1ac9a52a6adf62a,,,,,,,,
j,2.4837,0,15,15,20,1,5fb6aaf022099a07e417eb4f,OROROOO,OROROOR,21.31236711,21.90565814,series_1,5fb6aaf022099a07e417eb4f,Mężczyzna,19,2021-09-06_19h26.36.657,rantool2,2021.1.4,Win32,59.99880002,6135e006383e6ea6c3d06a28,61364f26a1ac9a52a6adf62a,,,,,,,,
j,2.2672,0,16,16,54,1,5fb6aaf022099a07e417eb4f,RRORROO,RRORROR,21.55250791,20.9984461,series_0,5fb6aaf022099a07e417eb4f,Mężczyzna,19,2021-09-06_19h26.36.657,rantool2,2021.1.4,Win32,59.99880002,6135e006383e6ea6c3d06a28,61364f26a1ac9a52a6adf62a,,,,,,,,
j,2.8916,0,17,17,22,1,5fb6aaf022099a07e417eb4f,ORORROO,ORORROR,22.02732763,21.57657071,series_0,5fb6aaf022099a07e417eb4f,Mężczyzna,19,2021-09-06_19h26.36.657,rantool2,2021.1.4,Win32,59.99880002,6135e006383e6ea6c3d06a28,61364f26a1ac9a52a6adf62a,,,,,,,,
f,2.3443,0,18,18,47,1,5fb6aaf022099a07e417eb4f,RORRRRO,RORRRRR,21.81333602,21.02936224,series_0,5fb6aaf022099a07e417eb4f,Mężczyzna,19,2021-09-06_19h26.36.657,rantool2,2021.1.4,Win32,59.99880002,6135e006383e6ea6c3d06a28,61364f26a1ac9a52a6adf62a,,,,,,,,
j,4.1376,0,19,19,5,1,5fb6aaf022099a07e417eb4f,OOORORO,OOORORR,20.87963819,21.9921709,series_1,5fb6aaf022099a07e417eb4f,Mężczyzna,19,2021-09-06_19h26.36.657,rantool2,2021.1.4,Win32,59.99880002,6135e006383e6ea6c3d06a28,61364f26a1ac9a52a6adf62a,,,,,,,,
j,2.9006,0,20,20,60,1,5fb6aaf022099a07e417eb4f,RRRROOO,RRRROOR,22.10108823,22.15934078,series_1,5fb6aaf022099a07e417eb4f,Mężczyzna,19,2021-09-06_19h26.36.657,rantool2,2021.1.4,Win32,59.99880002,6135e006383e6ea6c3d06a28,61364f26a1ac9a52a6adf62a,,,,,,,,
f,4.2005,0,21,21,61,1,5fb6aaf022099a07e417eb4f,RRRRORO,RRRRORR,21.81333602,21.17347734,series_0,5fb6aaf022099a07e417eb4f,Mężczyzna,19,2021-09-06_19h26.36.657,rantool2,2021.1.4,Win32,59.99880002,6135e006383e6ea6c3d06a28,61364f26a1ac9a52a6adf62a,,,,,,,,
f,3.1841,0,22,22,55,1,5fb6aaf022099a07e417eb4f,RRORRRO,RRORRRR,21.56657303,21.21223021,series_0,5fb6aaf022099a07e417eb4f,Mężczyzna,19,2021-09-06_19h26.36.657,rantool2,2021.1.4,Win32,59.99880002,6135e006383e6ea6c3d06a28,61364f26a1ac9a52a6adf62a,,,,,,,,
f,3.7839,0,23,23,12,1,5fb6aaf022099a07e417eb4f,OORROOO,OORROOR,21.30250474,22.02786418,series_1,5fb6aaf022099a07e417eb4f,Mężczyzna,19,2021-09-06_19h26.36.657,rantool2,2021.1.4,Win32,59.99880002,6135e006383e6ea6c3d06a28,61364f26a1ac9a52a6adf62a,,,,,,,,
f,3.4766,0,24,24,7,1,5fb6aaf022099a07e417eb4f,OOORRRO,OOORRRR,21.6194508,21.899017,series_1,5fb6aaf022099a07e417eb4f,Mężczyzna,19,2021-09-06_19h26.36.657,rantool2,2021.1.4,Win32,59.99880002,6135e006383e6ea6c3d06a28,61364f26a1ac9a52a6adf62a,,,,,,,,
j,3.2956,0,25,25,11,1,5fb6aaf022099a07e417eb4f,OORORRO,OORORRR,22.18365867,22.6797523,series_1,5fb6aaf022099a07e417eb4f,Mężczyzna,19,2021-09-06_19h26.36.657,rantool2,2021.1.4,Win32,59.99880002,6135e006383e6ea6c3d06a28,61364f26a1ac9a52a6adf62a,,,,,,,,
f,4.5841,0,26,26,37,1,5fb6aaf022099a07e417eb4f,ROORORO,ROORORR,20.42602454,21.57657071,series_1,5fb6aaf022099a07e417eb4f,Mężczyzna,19,2021-09-06_19h26.36.657,rantool2,2021.1.4,Win32,59.99880002,6135e006383e6ea6c3d06a28,61364f26a1ac9a52a6adf62a,,,,,,,,
j,1.8202,0,27,27,26,1,5fb6aaf022099a07e417eb4f,ORROROO,ORROROR,22.02732763,21.71443381,series_0,5fb6aaf022099a07e417eb4f,Mężczyzna,19,2021-09-06_19h26.36.657,rantool2,2021.1.4,Win32,59.99880002,6135e006383e6ea6c3d06a28,61364f26a1ac9a52a6adf62a,,,,,,,,
f,3.0902,0,28,28,15,1,5fb6aaf022099a07e417eb4f,OORRRRO,OORRRRR,22.10108823,21.74922619,series_0,5fb6aaf022099a07e417eb4f,Mężczyzna,19,2021-09-06_19h26.36.657,rantool2,2021.1.4,Win32,59.99880002,6135e006383e6ea6c3d06a28,61364f26a1ac9a52a6adf62a,,,,,,,,
j,4.334,0,29,29,4,1,5fb6aaf022099a07e417eb4f,OOOROOO,OOOROOR,19.91402015,21.21223021,series_1,5fb6aaf022099a07e417eb4f,Mężczyzna,19,2021-09-06_19h26.36.657,rantool2,2021.1.4,Win32,59.99880002,6135e006383e6ea6c3d06a28,61364f26a1ac9a52a6adf62a,,,,,,,,
f,3.7352,0,30,30,32,1,5fb6aaf022099a07e417eb4f,ROOOOOO,ROOOOOR,19.92253567,21.27974287,series_1,5fb6aaf022099a07e417eb4f,Mężczyzna,19,2021-09-06_19h26.36.657,rantool2,2021.1.4,Win32,59.99880002,6135e006383e6ea6c3d06a28,61364f26a1ac9a52a6adf62a,,,,,,,,
f,4.334,0,31,31,50,1,5fb6aaf022099a07e417eb4f,RROOROO,RROOROR,21.73568164,22.02566557,series_1,5fb6aaf022099a07e417eb4f,Mężczyzna,19,2021-09-06_19h26.36.657,rantool2,2021.1.4,Win32,59.99880002,6135e006383e6ea6c3d06a28,61364f26a1ac9a52a6adf62a,,,,,,,,
f,2.091,0,32,32,63,1,5fb6aaf022099a07e417eb4f,RRRRRRO,RRRRRRR,21.35278725,19.62521613,series_0,5fb6aaf022099a07e417eb4f,Mężczyzna,19,2021-09-06_19h26.36.657,rantool2,2021.1.4,Win32,59.99880002,6135e006383e6ea6c3d06a28,61364f26a1ac9a52a6adf62a,,,,,,,,
j,3.2004,0,33,33,25,1,5fb6aaf022099a07e417eb4f,ORROORO,ORROORR,21.79500819,22.61624387,series_1,5fb6aaf022099a07e417eb4f,Mężczyzna,19,2021-09-06_19h26.36.657,rantool2,2021.1.4,Win32,59.99880002,6135e006383e6ea6c3d06a28,61364f26a1ac9a52a6adf62a,,,,,,,,
f,3.0172,0,34,34,31,1,5fb6aaf022099a07e417eb4f,ORRRRRO,ORRRRRR,22.16413392,20.74050628,series_0,5fb6aaf022099a07e417eb4f,Mężczyzna,19,2021-09-06_19h26.36.657,rantool2,2021.1.4,Win32,59.99880002,6135e006383e6ea6c3d06a28,61364f26a1ac9a52a6adf62a,,,,,,,,
j,1.7565,0,35,35,23,1,5fb6aaf022099a07e417eb4f,ORORRRO,ORORRRR,22.1285618,21.9921709,series_0,5fb6aaf022099a07e417eb4f,Mężczyzna,19,2021-09-06_19h26.36.657,rantool2,2021.1.4,Win32,59.99880002,6135e006383e6ea6c3d06a28,61364f26a1ac9a52a6adf62a,,,,,,,,
f,3.7097,0,36,36,17,1,5fb6aaf022099a07e417eb4f,OROOORO,OROOORR,21.03750787,22.12173012,series_1,5fb6aaf022099a07e417eb4f,Mężczyzna,19,2021-09-06_19h26.36.657,rantool2,2021.1.4,Win32,59.99880002,6135e006383e6ea6c3d06a28,61364f26a1ac9a52a6adf62a,,,,,,,,
j,2.3201,0,37,37,43,1,5fb6aaf022099a07e417eb4f,RORORRO,RORORRR,20.71309134,21.07490964,series_1,5fb6aaf022099a07e417eb4f,Mężczyzna,19,2021-09-06_19h26.36.657,rantool2,2021.1.4,Win32,59.99880002,6135e006383e6ea6c3d06a28,61364f26a1ac9a52a6adf62a,,,,,,,,
f,3.4161,0,38,38,8,1,5fb6aaf022099a07e417eb4f,OOROOOO,OOROOOR,19.91402015,20.89823192,series_1,5fb6aaf022099a07e417eb4f,Mężczyzna,19,2021-09-06_19h26.36.657,rantool2,2021.1.4,Win32,59.99880002,6135e006383e6ea6c3d06a28,61364f26a1ac9a52a6adf62a,,,,,,,,
j,3.0842,0,39,39,10,1,5fb6aaf022099a07e417eb4f,OOROROO,OOROROR,21.31236711,21.07490964,series_0,5fb6aaf022099a07e417eb4f,Mężczyzna,19,2021-09-06_19h26.36.657,rantool2,2021.1.4,Win32,59.99880002,6135e006383e6ea6c3d06a28,61364f26a1ac9a52a6adf62a,,,,,,,,
f,1.5348,0,40,40,53,1,5fb6aaf022099a07e417eb4f,RRORORO,RRORORR,20.71309134,21.90565814,series_1,5fb6aaf022099a07e417eb4f,Mężczyzna,19,2021-09-06_19h26.36.657,rantool2,2021.1.4,Win32,59.99880002,6135e006383e6ea6c3d06a28,61364f26a1ac9a52a6adf62a,,,,,,,,
f,1.4795,0,41,41,56,1,5fb6aaf022099a07e417eb4f,RRROOOO,RRROOOR,21.6194508,22.31681875,series_1,5fb6aaf022099a07e417eb4f,Mężczyzna,19,2021-09-06_19h26.36.657,rantool2,2021.1.4,Win32,59.99880002,6135e006383e6ea6c3d06a28,61364f26a1ac9a52a6adf62a,,,,,,,,
j,1.5713,0,42,42,57,1,5fb6aaf022099a07e417eb4f,RRROORO,RRROORR,21.82425538,22.07102821,series_1,5fb6aaf022099a07e417eb4f,Mężczyzna,19,2021-09-06_19h26.36.657,rantool2,2021.1.4,Win32,59.99880002,6135e006383e6ea6c3d06a28,61364f26a1ac9a52a6adf62a,,,,,,,,
j,1.4032,0,43,43,21,1,5fb6aaf022099a07e417eb4f,ORORORO,ORORORR,20.39515459,22.06781359,series_1,5fb6aaf022099a07e417eb4f,Mężczyzna,19,2021-09-06_19h26.36.657,rantool2,2021.1.4,Win32,59.99880002,6135e006383e6ea6c3d06a28,61364f26a1ac9a52a6adf62a,,,,,,,,
j,1.4581,0,44,44,24,1,5fb6aaf022099a07e417eb4f,ORROOOO,ORROOOR,21.12383932,22.07102821,series_1,5fb6aaf022099a07e417eb4f,Mężczyzna,19,2021-09-06_19h26.36.657,rantool2,2021.1.4,Win32,59.99880002,6135e006383e6ea6c3d06a28,61364f26a1ac9a52a6adf62a,,,,,,,,
f,1.2343,0,45,45,27,1,5fb6aaf022099a07e417eb4f,ORRORRO,ORRORRR,21.55250791,22.2428857,series_1,5fb6aaf022099a07e417eb4f,Mężczyzna,19,2021-09-06_19h26.36.657,rantool2,2021.1.4,Win32,59.99880002,6135e006383e6ea6c3d06a28,61364f26a1ac9a52a6adf62a,,,,,,,,
j,1.4674,0,46,46,62,1,5fb6aaf022099a07e417eb4f,RRRRROO,RRRRROR,22.16413392,21.27974287,series_0,5fb6aaf022099a07e417eb4f,Mężczyzna,19,2021-09-06_19h26.36.657,rantool2,2021.1.4,Win32,59.99880002,6135e006383e6ea6c3d06a28,61364f26a1ac9a52a6adf62a,,,,,,,,
j,1.9302,0,47,47,16,1,5fb6aaf022099a07e417eb4f,OROOOOO,OROOOOR,20.43051175,21.17347734,series_1,5fb6aaf022099a07e417eb4f,Mężczyzna,19,2021-09-06_19h26.36.657,rantool2,2021.1.4,Win32,59.99880002,6135e006383e6ea6c3d06a28,61364f26a1ac9a52a6adf62a,,,,,,,,
j,3.9509,0,48,48,19,1,5fb6aaf022099a07e417eb4f,OROORRO,OROORRR,21.73568164,22.11181017,series_1,5fb6aaf022099a07e417eb4f,Mężczyzna,19,2021-09-06_19h26.36.657,rantool2,2021.1.4,Win32,59.99880002,6135e006383e6ea6c3d06a28,61364f26a1ac9a52a6adf62a,,,,,,,,
j,1.9253,0,49,49,51,1,5fb6aaf022099a07e417eb4f,RROORRO,RROORRR,21.89852628,22.02786418,series_1,5fb6aaf022099a07e417eb4f,Mężczyzna,19,2021-09-06_19h26.36.657,rantool2,2021.1.4,Win32,59.99880002,6135e006383e6ea6c3d06a28,61364f26a1ac9a52a6adf62a,,,,,,,,
f,4.2394,0,50,50,45,1,5fb6aaf022099a07e417eb4f,RORRORO,RORRORR,20.78182524,21.22513037,series_1,5fb6aaf022099a07e417eb4f,Mężczyzna,19,2021-09-06_19h26.36.657,rantool2,2021.1.4,Win32,59.99880002,6135e006383e6ea6c3d06a28,61364f26a1ac9a52a6adf62a,,,,,,,,
j,1.783,0,51,51,0,1,5fb6aaf022099a07e417eb4f,OOOOOOO,OOOOOOR,18.52739004,19.62521613,series_1,5fb6aaf022099a07e417eb4f,Mężczyzna,19,2021-09-06_19h26.36.657,rantool2,2021.1.4,Win32,59.99880002,6135e006383e6ea6c3d06a28,61364f26a1ac9a52a6adf62a,,,,,,,,
j,4.8169,0,52,52,33,1,5fb6aaf022099a07e417eb4f,ROOOORO,ROOOORR,20.83779602,22.03072203,series_1,5fb6aaf022099a07e417eb4f,Mężczyzna,19,2021-09-06_19h26.36.657,rantool2,2021.1.4,Win32,59.99880002,6135e006383e6ea6c3d06a28,61364f26a1ac9a52a6adf62a,,,,,,,,
j,1.8271,0,53,53,6,1,5fb6aaf022099a07e417eb4f,OOORROO,OOORROR,21.12383932,21.38562617,series_1,5fb6aaf022099a07e417eb4f,Mężczyzna,19,2021-09-06_19h26.36.657,rantool2,2021.1.4,Win32,59.99880002,6135e006383e6ea6c3d06a28,61364f26a1ac9a52a6adf62a,,,,,,,,
,,0,54,54,40,1,5fb6aaf022099a07e417eb4f,ROROOOO,ROROOOR,20.87963819,21.37121559,series_1,5fb6aaf022099a07e417eb4f,Mężczyzna,19,2021-09-06_19h26.36.657,rantool2,2021.1.4,Win32,59.99880002,6135e006383e6ea6c3d06a28,61364f26a1ac9a52a6adf62a,,,,,,,,
f,0.1783,0,55,55,49,1,5fb6aaf022099a07e417eb4f,RROOORO,RROOORR,21.76276513,22.53364006,series_1,5fb6aaf022099a07e417eb4f,Mężczyzna,19,2021-09-06_19h26.36.657,rantool2,2021.1.4,Win32,59.99880002,6135e006383e6ea6c3d06a28,61364f26a1ac9a52a6adf62a,,,,,,,,
f,1.474,0,56,56,9,1,5fb6aaf022099a07e417eb4f,OOROORO,OOROORR,21.07991943,22.2428857,series_1,5fb6aaf022099a07e417eb4f,Mężczyzna,19,2021-09-06_19h26.36.657,rantool2,2021.1.4,Win32,59.99880002,6135e006383e6ea6c3d06a28,61364f26a1ac9a52a6adf62a,,,,,,,,
j,1.5349,0,57,57,52,1,5fb6aaf022099a07e417eb4f,RROROOO,RROROOR,22.18365867,22.11097995,series_0,5fb6aaf022099a07e417eb4f,Mężczyzna,19,2021-09-06_19h26.36.657,rantool2,2021.1.4,Win32,59.99880002,6135e006383e6ea6c3d06a28,61364f26a1ac9a52a6adf62a,,,,,,,,
j,1.7505,0,58,58,35,1,5fb6aaf022099a07e417eb4f,ROOORRO,ROOORRR,21.76276513,22.16977179,series_1,5fb6aaf022099a07e417eb4f,Mężczyzna,19,2021-09-06_19h26.36.657,rantool2,2021.1.4,Win32,59.99880002,6135e006383e6ea6c3d06a28,61364f26a1ac9a52a6adf62a,,,,,,,,
f,1.4837,0,59,59,41,1,5fb6aaf022099a07e417eb4f,ROROORO,ROROORR,20.42602454,21.71443381,series_1,5fb6aaf022099a07e417eb4f,Mężczyzna,19,2021-09-06_19h26.36.657,rantool2,2021.1.4,Win32,59.99880002,6135e006383e6ea6c3d06a28,61364f26a1ac9a52a6adf62a,,,,,,,,
f,1.6175,0,60,60,2,1,5fb6aaf022099a07e417eb4f,OOOOROO,OOOOROR,20.43051175,21.02936224,series_1,5fb6aaf022099a07e417eb4f,Mężczyzna,19,2021-09-06_19h26.36.657,rantool2,2021.1.4,Win32,59.99880002,6135e006383e6ea6c3d06a28,61364f26a1ac9a52a6adf62a,,,,,,,,
f,1.3001,0,61,61,1,1,5fb6aaf022099a07e417eb4f,OOOOORO,OOOOORR,19.92253567,20.74050628,series_1,5fb6aaf022099a07e417eb4f,Mężczyzna,19,2021-09-06_19h26.36.657,rantool2,2021.1.4,Win32,59.99880002,6135e006383e6ea6c3d06a28,61364f26a1ac9a52a6adf62a,,,,,,,,
f,3.4164,0,62,62,3,1,5fb6aaf022099a07e417eb4f,OOOORRO,OOOORRR,20.90986523,21.74922619,series_1,5fb6aaf022099a07e417eb4f,Mężczyzna,19,2021-09-06_19h26.36.657,rantool2,2021.1.4,Win32,59.99880002,6135e006383e6ea6c3d06a28,61364f26a1ac9a52a6adf62a,,,,,,,,
j,3.326,0,63,63,44,1,5fb6aaf022099a07e417eb4f,RORROOO,RORROOR,21.66733484,22.02566557,series_1,5fb6aaf022099a07e417eb4f,Mężczyzna,19,2021-09-06_19h26.36.657,rantool2,2021.1.4,Win32,59.99880002,6135e006383e6ea6c3d06a28,61364f26a1ac9a52a6adf62a,,,,,,,,
,,,,,,,5fb6aaf022099a07e417eb4f,,,,,,5fb6aaf022099a07e417eb4f,Mężczyzna,19,2021-09-06_19h26.36.657,rantool2,2021.1.4,Win32,59.99880002,6135e006383e6ea6c3d06a28,61364f26a1ac9a52a6adf62a,0,,,0,0,0,0,1
,,,,,,,5fb6aaf022099a07e417eb4f,,,,,,5fb6aaf022099a07e417eb4f,Mężczyzna,19,2021-09-06_19h26.36.657,rantool2,2021.1.4,Win32,59.99880002,6135e006383e6ea6c3d06a28,61364f26a1ac9a52a6adf62a,"[""period""]",0,[0.7707000000476683],1,0,1,0,1
,,,,,,,5fb6aaf022099a07e417eb4f,,,,,,5fb6aaf022099a07e417eb4f,Mężczyzna,19,2021-09-06_19h26.36.657,rantool2,2021.1.4,Win32,59.99880002,6135e006383e6ea6c3d06a28,61364f26a1ac9a52a6adf62a,"[""comma""]",0,[0.6586999999284444],2,0,2,0,1
,,,,,,,5fb6aaf022099a07e417eb4f,,,,,,5fb6aaf022099a07e417eb4f,Mężczyzna,19,2021-09-06_19h26.36.657,rantool2,2021.1.4,Win32,59.99880002,6135e006383e6ea6c3d06a28,61364f26a1ac9a52a6adf62a,"[""period""]",0,[0.746899999976165],3,0,3,0,1
,,,,,,,5fb6aaf022099a07e417eb4f,,,,,,5fb6aaf022099a07e417eb4f,Mężczyzna,19,2021-09-06_19h26.36.657,rantool2,2021.1.4,Win32,59.99880002,6135e006383e6ea6c3d06a28,61364f26a1ac9a52a6adf62a,"[""period""]",0,[0.8339000000953547],4,0,4,0,1
,,,,,,,5fb6aaf022099a07e417eb4f,,,,,,5fb6aaf022099a07e417eb4f,Mężczyzna,19,2021-09-06_19h26.36.657,rantool2,2021.1.4,Win32,59.99880002,6135e006383e6ea6c3d06a28,61364f26a1ac9a52a6adf62a,"[""period""]",0,[0.8673999999761577],5,0,5,0,1
,,,,,,,5fb6aaf022099a07e417eb4f,,,,,,5fb6aaf022099a07e417eb4f,Mężczyzna,19,2021-09-06_19h26.36.657,rantool2,2021.1.4,Win32,59.99880002,6135e006383e6ea6c3d06a28,61364f26a1ac9a52a6adf62a,"[""comma""]",0,[0.6672999999523199],6,0,6,0,1
,,,,,,,5fb6aaf022099a07e417eb4f,,,,,,5fb6aaf022099a07e417eb4f,Mężczyzna,19,2021-09-06_19h26.36.657,rantool2,2021.1.4,Win32,59.99880002,6135e006383e6ea6c3d06a28,61364f26a1ac9a52a6adf62a,"[""comma""]",0,[1.200600000023826],7,0,7,0,1
,,,,,,,5fb6aaf022099a07e417eb4f,,,,,,5fb6aaf022099a07e417eb4f,Mężczyzna,19,2021-09-06_19h26.36.657,rantool2,2021.1.4,Win32,59.99880002,6135e006383e6ea6c3d06a28,61364f26a1ac9a52a6adf62a,"[""period""]",0,[0.5006999999284858],8,0,8,0,1
,,,,,,,5fb6aaf022099a07e417eb4f,,,,,,5fb6aaf022099a07e417eb4f,Mężczyzna,19,2021-09-06_19h26.36.657,rantool2,2021.1.4,Win32,59.99880002,6135e006383e6ea6c3d06a28,61364f26a1ac9a52a6adf62a,"[""comma""]",0,[0.3795000000000073],9,0,9,0,1
,,,,,,,5fb6aaf022099a07e417eb4f,,,,,,5fb6aaf022099a07e417eb4f,Mężczyzna,19,2021-09-06_19h26.36.657,rantool2,2021.1.4,Win32,59.99880002,6135e006383e6ea6c3d06a28,61364f26a1ac9a52a6adf62a,"[""period""]",0,[0.6032999999522985],10,0,10,0,1
,,,,,,,5fb6aaf022099a07e417eb4f,,,,,,5fb6aaf022099a07e417eb4f,Mężczyzna,19,2021-09-06_19h26.36.657,rantool2,2021.1.4,Win32,59.99880002,6135e006383e6ea6c3d06a28,61364f26a1ac9a52a6adf62a,"[""period""]",0,[0.7715000000000032],11,0,11,0,1
,,,,,,,5fb6aaf022099a07e417eb4f,,,,,,5fb6aaf022099a07e417eb4f,Mężczyzna,19,2021-09-06_19h26.36.657,rantool2,2021.1.4,Win32,59.99880002,6135e006383e6ea6c3d06a28,61364f26a1ac9a52a6adf62a,"[""period""]",0,[1.1007000000477092],12,0,12,0,1
,,,,,,,5fb6aaf022099a07e417eb4f,,,,,,5fb6aaf022099a07e417eb4f,Mężczyzna,19,2021-09-06_19h26.36.657,rantool2,2021.1.4,Win32,59.99880002,6135e006383e6ea6c3d06a28,61364f26a1ac9a52a6adf62a,"[""comma""]",0,[0.5716000000238637],13,0,13,0,1
,,,,,,,5fb6aaf022099a07e417eb4f,,,,,,5fb6aaf022099a07e417eb4f,Mężczyzna,19,2021-09-06_19h26.36.657,rantool2,2021.1.4,Win32,59.99880002,6135e006383e6ea6c3d06a28,61364f26a1ac9a52a6adf62a,"[""period""]",0,[0.46750000000002956],14,0,14,0,1
,,,,,,,5fb6aaf022099a07e417eb4f,,,,,,5fb6aaf022099a07e417eb4f,Mężczyzna,19,2021-09-06_19h26.36.657,rantool2,2021.1.4,Win32,59.99880002,6135e006383e6ea6c3d06a28,61364f26a1ac9a52a6adf62a,"[""comma""]",0,[0.5083000000715288],15,0,15,0,1
,,,,,,,5fb6aaf022099a07e417eb4f,,,,,,5fb6aaf022099a07e417eb4f,Mężczyzna,19,2021-09-06_19h26.36.657,rantool2,2021.1.4,Win32,59.99880002,6135e006383e6ea6c3d06a28,61364f26a1ac9a52a6adf62a,"[""period""]",0,[0.7342000000476787],16,0,16,0,1
,,,,,,,5fb6aaf022099a07e417eb4f,,,,,,5fb6aaf022099a07e417eb4f,Mężczyzna,19,2021-09-06_19h26.36.657,rantool2,2021.1.4,Win32,59.99880002,6135e006383e6ea6c3d06a28,61364f26a1ac9a52a6adf62a,"[""comma""]",0,[0.572200000047701],17,0,17,0,1
,,,,,,,5fb6aaf022099a07e417eb4f,,,,,,5fb6aaf022099a07e417eb4f,Mężczyzna,19,2021-09-06_19h26.36.657,rantool2,2021.1.4,Win32,59.99880002,6135e006383e6ea6c3d06a28,61364f26a1ac9a52a6adf62a,"[""comma""]",0,[0.833899999976154],18,0,18,0,1
,,,,,,,5fb6aaf022099a07e417eb4f,,,,,,5fb6aaf022099a07e417eb4f,Mężczyzna,19,2021-09-06_19h26.36.657,rantool2,2021.1.4,Win32,59.99880002,6135e006383e6ea6c3d06a28,61364f26a1ac9a52a6adf62a,"[""comma""]",0,[0.7722000000476896],19,0,19,0,1
,,,,,,,5fb6aaf022099a07e417eb4f,,,,,,5fb6aaf022099a07e417eb4f,Mężczyzna,19,2021-09-06_19h26.36.657,rantool2,2021.1.4,Win32,59.99880002,6135e006383e6ea6c3d06a28,61364f26a1ac9a52a6adf62a,"[""comma""]",0,[1.0008000000715356],20,0,20,0,1
,,,,,,,5fb6aaf022099a07e417eb4f,,,,,,5fb6aaf022099a07e417eb4f,Mężczyzna,19,2021-09-06_19h26.36.657,rantool2,2021.1.4,Win32,59.99880002,6135e006383e6ea6c3d06a28,61364f26a1ac9a52a6adf62a,"[""period""]",0,[0.476399999976195],21,0,21,0,1
,,,,,,,5fb6aaf022099a07e417eb4f,,,,,,5fb6aaf022099a07e417eb4f,Mężczyzna,19,2021-09-06_19h26.36.657,rantool2,2021.1.4,Win32,59.99880002,6135e006383e6ea6c3d06a28,61364f26a1ac9a52a6adf62a,"[""period""]",0,[0.34059999990461165],22,0,22,0,1
,,,,,,,5fb6aaf022099a07e417eb4f,,,,,,5fb6aaf022099a07e417eb4f,Mężczyzna,19,2021-09-06_19h26.36.657,rantool2,2021.1.4,Win32,59.99880002,6135e006383e6ea6c3d06a28,61364f26a1ac9a52a6adf62a,"[""period""]",0,[0.5727000000476892],23,0,23,0,1
,,,,,,,5fb6aaf022099a07e417eb4f,,,,,,5fb6aaf022099a07e417eb4f,Mężczyzna,19,2021-09-06_19h26.36.657,rantool2,2021.1.4,Win32,59.99880002,6135e006383e6ea6c3d06a28,61364f26a1ac9a52a6adf62a,"[""comma""]",0,[0.6618000000715369],24,0,24,0,1
,,,,,,,5fb6aaf022099a07e417eb4f,,,,,,5fb6aaf022099a07e417eb4f,Mężczyzna,19,2021-09-06_19h26.36.657,rantool2,2021.1.4,Win32,59.99880002,6135e006383e6ea6c3d06a28,61364f26a1ac9a52a6adf62a,"[""period""]",0,[0.6367000000477105],25,0,25,0,1
,,,,,,,5fb6aaf022099a07e417eb4f,,,,,,5fb6aaf022099a07e417eb4f,Mężczyzna,19,2021-09-06_19h26.36.657,rantool2,2021.1.4,Win32,59.99880002,6135e006383e6ea6c3d06a28,61364f26a1ac9a52a6adf62a,"[""period""]",0,[0.8527999999523104],26,0,26,0,1
,,,,,,,5fb6aaf022099a07e417eb4f,,,,,,5fb6aaf022099a07e417eb4f,Mężczyzna,19,2021-09-06_19h26.36.657,rantool2,2021.1.4,Win32,59.99880002,6135e006383e6ea6c3d06a28,61364f26a1ac9a52a6adf62a,"[""comma""]",0,[0.7843999999761309],27,0,27,0,1
,,,,,,,5fb6aaf022099a07e417eb4f,,,,,,5fb6aaf022099a07e417eb4f,Mężczyzna,19,2021-09-06_19h26.36.657,rantool2,2021.1.4,Win32,59.99880002,6135e006383e6ea6c3d06a28,61364f26a1ac9a52a6adf62a,"[""period""]",0,[0.7177999999523195],28,0,28,0,1
,,,,,,,5fb6aaf022099a07e417eb4f,,,,,,5fb6aaf022099a07e417eb4f,Mężczyzna,19,2021-09-06_19h26.36.657,rantool2,2021.1.4,Win32,59.99880002,6135e006383e6ea6c3d06a28,61364f26a1ac9a52a6adf62a,"[""period""]",0,[0.7729999999999677],29,0,29,0,1
,,,,,,,5fb6aaf022099a07e417eb4f,,,,,,5fb6aaf022099a07e417eb4f,Mężczyzna,19,2021-09-06_19h26.36.657,rantool2,2021.1.4,Win32,59.99880002,6135e006383e6ea6c3d06a28,61364f26a1ac9a52a6adf62a,"[""period""]",0,[0.5672999999522972],30,0,30,0,1
,,,,,,,5fb6aaf022099a07e417eb4f,,,,,,5fb6aaf022099a07e417eb4f,Mężczyzna,19,2021-09-06_19h26.36.657,rantool2,2021.1.4,Win32,59.99880002,6135e006383e6ea6c3d06a28,61364f26a1ac9a52a6adf62a,"[""comma""]",0,[0.4131999999284517],31,0,31,0,1
,,,,,,,5fb6aaf022099a07e417eb4f,,,,,,5fb6aaf022099a07e417eb4f,Mężczyzna,19,2021-09-06_19h26.36.657,rantool2,2021.1.4,Win32,59.99880002,6135e006383e6ea6c3d06a28,61364f26a1ac9a52a6adf62a,"[""comma"",""comma""]",0,"[0.3505000000000109,0.9672000000476828]",32,0,32,0,1
,,,,,,,5fb6aaf022099a07e417eb4f,,,,,,5fb6aaf022099a07e417eb4f,Mężczyzna,19,2021-09-06_19h26.36.657,rantool2,2021.1.4,Win32,59.99880002,6135e006383e6ea6c3d06a28,61364f26a1ac9a52a6adf62a,"[""comma""]",0,[0.851299999952289],33,0,33,0,1
,,,,,,,5fb6aaf022099a07e417eb4f,,,,,,5fb6aaf022099a07e417eb4f,Mężczyzna,19,2021-09-06_19h26.36.657,rantool2,2021.1.4,Win32,59.99880002,6135e006383e6ea6c3d06a28,61364f26a1ac9a52a6adf62a,"[""period""]",0,[0.7574999999999932],34,0,34,0,1
,,,,,,,5fb6aaf022099a07e417eb4f,,,,,,5fb6aaf022099a07e417eb4f,Mężczyzna,19,2021-09-06_19h26.36.657,rantool2,2021.1.4,Win32,59.99880002,6135e006383e6ea6c3d06a28,61364f26a1ac9a52a6adf62a,"[""comma""]",0,[0.5737000000476655],35,0,35,0,1
,,,,,,,5fb6aaf022099a07e417eb4f,,,,,,5fb6aaf022099a07e417eb4f,Mężczyzna,19,2021-09-06_19h26.36.657,rantool2,2021.1.4,Win32,59.99880002,6135e006383e6ea6c3d06a28,61364f26a1ac9a52a6adf62a,"[""comma""]",0,[0.7342000000476787],36,0,36,0,1
,,,,,,,5fb6aaf022099a07e417eb4f,,,,,,5fb6aaf022099a07e417eb4f,Mężczyzna,19,2021-09-06_19h26.36.657,rantool2,2021.1.4,Win32,59.99880002,6135e006383e6ea6c3d06a28,61364f26a1ac9a52a6adf62a,"[""period""]",0,[0.617600000023856],37,0,37,0,1
,,,,,,,5fb6aaf022099a07e417eb4f,,,,,,5fb6aaf022099a07e417eb4f,Mężczyzna,19,2021-09-06_19h26.36.657,rantool2,2021.1.4,Win32,59.99880002,6135e006383e6ea6c3d06a28,61364f26a1ac9a52a6adf62a,"[""comma"",""comma""]",0,"[0.33420000004770145,0.9675000000000296]",38,0,38,0,1
,,,,,,,5fb6aaf022099a07e417eb4f,,,,,,5fb6aaf022099a07e417eb4f,Mężczyzna,19,2021-09-06_19h26.36.657,rantool2,2021.1.4,Win32,59.99880002,6135e006383e6ea6c3d06a28,61364f26a1ac9a52a6adf62a,"[""comma""]",0,[0.6061000000238437],39,0,39,0,1
,,,,,,,5fb6aaf022099a07e417eb4f,,,,,,5fb6aaf022099a07e417eb4f,Mężczyzna,19,2021-09-06_19h26.36.657,rantool2,2021.1.4,Win32,59.99880002,6135e006383e6ea6c3d06a28,61364f26a1ac9a52a6adf62a,"[""period""]",0,[0.5581000000238419],40,0,40,0,1
,,,,,,,5fb6aaf022099a07e417eb4f,,,,,,5fb6aaf022099a07e417eb4f,Mężczyzna,19,2021-09-06_19h26.36.657,rantool2,2021.1.4,Win32,59.99880002,6135e006383e6ea6c3d06a28,61364f26a1ac9a52a6adf62a,"[""period""]",0,[0.6840000000000259],41,0,41,0,1
,,,,,,,5fb6aaf022099a07e417eb4f,,,,,,5fb6aaf022099a07e417eb4f,Mężczyzna,19,2021-09-06_19h26.36.657,rantool2,2021.1.4,Win32,59.99880002,6135e006383e6ea6c3d06a28,61364f26a1ac9a52a6adf62a,"[""comma""]",0,[0.8673999999761577],42,0,42,0,1
,,,,,,,5fb6aaf022099a07e417eb4f,,,,,,5fb6aaf022099a07e417eb4f,Mężczyzna,19,2021-09-06_19h26.36.657,rantool2,2021.1.4,Win32,59.99880002,6135e006383e6ea6c3d06a28,61364f26a1ac9a52a6adf62a,"[""period""]",0,[0.3422999999523313],43,0,43,0,1
,,,,,,,5fb6aaf022099a07e417eb4f,,,,,,5fb6aaf022099a07e417eb4f,Mężczyzna,19,2021-09-06_19h26.36.657,rantool2,2021.1.4,Win32,59.99880002,6135e006383e6ea6c3d06a28,61364f26a1ac9a52a6adf62a,"[""comma""]",0,[0.3006000000238487],44,0,44,0,1
,,,,,,,5fb6aaf022099a07e417eb4f,,,,,,5fb6aaf022099a07e417eb4f,Mężczyzna,19,2021-09-06_19h26.36.657,rantool2,2021.1.4,Win32,59.99880002,6135e006383e6ea6c3d06a28,61364f26a1ac9a52a6adf62a,"[""period""]",0,[0.34250000000002956],45,0,45,0,1
,,,,,,,5fb6aaf022099a07e417eb4f,,,,,,5fb6aaf022099a07e417eb4f,Mężczyzna,19,2021-09-06_19h26.36.657,rantool2,2021.1.4,Win32,59.99880002,6135e006383e6ea6c3d06a28,61364f26a1ac9a52a6adf62a,"[""comma""]",0,[0.4340999999046744],46,0,46,0,1
,,,,,,,5fb6aaf022099a07e417eb4f,,,,,,5fb6aaf022099a07e417eb4f,Mężczyzna,19,2021-09-06_19h26.36.657,rantool2,2021.1.4,Win32,59.99880002,6135e006383e6ea6c3d06a28,61364f26a1ac9a52a6adf62a,"[""comma""]",0,[0.34269999992847033],47,0,47,0,1
,,,,,,,5fb6aaf022099a07e417eb4f,,,,,,5fb6aaf022099a07e417eb4f,Mężczyzna,19,2021-09-06_19h26.36.657,rantool2,2021.1.4,Win32,59.99880002,6135e006383e6ea6c3d06a28,61364f26a1ac9a52a6adf62a,"[""period""]",0,[0.32670000004765143],48,0,48,0,1
,,,,,,,5fb6aaf022099a07e417eb4f,,,,,,5fb6aaf022099a07e417eb4f,Mężczyzna,19,2021-09-06_19h26.36.657,rantool2,2021.1.4,Win32,59.99880002,6135e006383e6ea6c3d06a28,61364f26a1ac9a52a6adf62a,"[""comma""]",0,[0.27889999997614723],49,0,49,0,1
,,,,,,,5fb6aaf022099a07e417eb4f,,,,,,5fb6aaf022099a07e417eb4f,Mężczyzna,19,2021-09-06_19h26.36.657,rantool2,2021.1.4,Win32,59.99880002,6135e006383e6ea6c3d06a28,61364f26a1ac9a52a6adf62a,"[""period""]",0,[0.33389999997615405],50,0,50,0,1
,,,,,,,5fb6aaf022099a07e417eb4f,,,,,,5fb6aaf022099a07e417eb4f,Mężczyzna,19,2021-09-06_19h26.36.657,rantool2,2021.1.4,Win32,59.99880002,6135e006383e6ea6c3d06a28,61364f26a1ac9a52a6adf62a,"[""comma""]",0,[0.31899999999996],51,0,51,0,1
,,,,,,,5fb6aaf022099a07e417eb4f,,,,,,5fb6aaf022099a07e417eb4f,Mężczyzna,19,2021-09-06_19h26.36.657,rantool2,2021.1.4,Win32,59.99880002,6135e006383e6ea6c3d06a28,61364f26a1ac9a52a6adf62a,"[""period""]",0,[0.33399999999994634],52,0,52,0,1
,,,,,,,5fb6aaf022099a07e417eb4f,,,,,,5fb6aaf022099a07e417eb4f,Mężczyzna,19,2021-09-06_19h26.36.657,rantool2,2021.1.4,Win32,59.99880002,6135e006383e6ea6c3d06a28,61364f26a1ac9a52a6adf62a,"[""comma""]",0,[0.34310000002381],53,0,53,0,1
,,,,,,,5fb6aaf022099a07e417eb4f,,,,,,5fb6aaf022099a07e417eb4f,Mężczyzna,19,2021-09-06_19h26.36.657,rantool2,2021.1.4,Win32,59.99880002,6135e006383e6ea6c3d06a28,61364f26a1ac9a52a6adf62a,"[""comma""]",0,[0.4872999999523131],54,0,54,0,1
,,,,,,,5fb6aaf022099a07e417eb4f,,,,,,5fb6aaf022099a07e417eb4f,Mężczyzna,19,2021-09-06_19h26.36.657,rantool2,2021.1.4,Win32,59.99880002,6135e006383e6ea6c3d06a28,61364f26a1ac9a52a6adf62a,"[""period""]",0,[0.3433999999761568],55,0,55,0,1
,,,,,,,5fb6aaf022099a07e417eb4f,,,,,,5fb6aaf022099a07e417eb4f,Mężczyzna,19,2021-09-06_19h26.36.657,rantool2,2021.1.4,Win32,59.99880002,6135e006383e6ea6c3d06a28,61364f26a1ac9a52a6adf62a,"[""period""]",0,[0.6673000000715206],56,0,56,0,1
,,,,,,,5fb6aaf022099a07e417eb4f,,,,,,5fb6aaf022099a07e417eb4f,Mężczyzna,19,2021-09-06_19h26.36.657,rantool2,2021.1.4,Win32,59.99880002,6135e006383e6ea6c3d06a28,61364f26a1ac9a52a6adf62a,"[""period""]",0,[0.3435000000000059],57,0,57,0,1
,,,,,,,5fb6aaf022099a07e417eb4f,,,,,,5fb6aaf022099a07e417eb4f,Mężczyzna,19,2021-09-06_19h26.36.657,rantool2,2021.1.4,Win32,59.99880002,6135e006383e6ea6c3d06a28,61364f26a1ac9a52a6adf62a,"[""period""]",0,[0.4958000000715401],58,0,58,0,1
,,,,,,,5fb6aaf022099a07e417eb4f,,,,,,5fb6aaf022099a07e417eb4f,Mężczyzna,19,2021-09-06_19h26.36.657,rantool2,2021.1.4,Win32,59.99880002,6135e006383e6ea6c3d06a28,61364f26a1ac9a52a6adf62a,"[""comma""]",0,[0.31170000004766507],59,0,59,0,1
,,,,,,,5fb6aaf022099a07e417eb4f,,,,,,5fb6aaf022099a07e417eb4f,Mężczyzna,19,2021-09-06_19h26.36.657,rantool2,2021.1.4,Win32,59.99880002,6135e006383e6ea6c3d06a28,61364f26a1ac9a52a6adf62a,"[""comma""]",0,[0.33409999990465167],60,0,60,0,1
,,,,,,,5fb6aaf022099a07e417eb4f,,,,,,5fb6aaf022099a07e417eb4f,Mężczyzna,19,2021-09-06_19h26.36.657,rantool2,2021.1.4,Win32,59.99880002,6135e006383e6ea6c3d06a28,61364f26a1ac9a52a6adf62a,"[""comma""]",0,[0.3441999999284917],61,0,61,0,1
,,,,,,,5fb6aaf022099a07e417eb4f,,,,,,5fb6aaf022099a07e417eb4f,Mężczyzna,19,2021-09-06_19h26.36.657,rantool2,2021.1.4,Win32,59.99880002,6135e006383e6ea6c3d06a28,61364f26a1ac9a52a6adf62a,"[""period""]",0,[0.3039999999999736],62,0,62,0,1
,,,,,,,5fb6aaf022099a07e417eb4f,,,,,,5fb6aaf022099a07e417eb4f,Mężczyzna,19,2021-09-06_19h26.36.657,rantool2,2021.1.4,Win32,59.99880002,6135e006383e6ea6c3d06a28,61364f26a1ac9a52a6adf62a,"[""period""]",0,[0.4083999999761545],63,0,63,0,1
,,,,,,,5fb6aaf022099a07e417eb4f,,,,,,5fb6aaf022099a07e417eb4f,Mężczyzna,19,2021-09-06_19h26.36.657,rantool2,2021.1.4,Win32,59.99880002,6135e006383e6ea6c3d06a28,61364f26a1ac9a52a6adf62a,"[""comma""]",0,[0.4340000000000259],64,0,64,0,1
,,,,,,,5fb6aaf022099a07e417eb4f,,,,,,5fb6aaf022099a07e417eb4f,Mężczyzna,19,2021-09-06_19h26.36.657,rantool2,2021.1.4,Win32,59.99880002,6135e006383e6ea6c3d06a28,61364f26a1ac9a52a6adf62a,"[""period""]",0,[0.8966000000238523],65,0,65,0,1
,,,,,,,5fb6aaf022099a07e417eb4f,,,,,,5fb6aaf022099a07e417eb4f,Mężczyzna,19,2021-09-06_19h26.36.657,rantool2,2021.1.4,Win32,59.99880002,6135e006383e6ea6c3d06a28,61364f26a1ac9a52a6adf62a,"[""period""]",0,[0.36729999995230855],66,0,66,0,1
,,,,,,,5fb6aaf022099a07e417eb4f,,,,,,5fb6aaf022099a07e417eb4f,Mężczyzna,19,2021-09-06_19h26.36.657,rantool2,2021.1.4,Win32,59.99880002,6135e006383e6ea6c3d06a28,61364f26a1ac9a52a6adf62a,"[""comma""]",0,[0.4403999999761936],67,0,67,0,1
,,,,,,,5fb6aaf022099a07e417eb4f,,,,,,5fb6aaf022099a07e417eb4f,Mężczyzna,19,2021-09-06_19h26.36.657,rantool2,2021.1.4,Win32,59.99880002,6135e006383e6ea6c3d06a28,61364f26a1ac9a52a6adf62a,"[""period""]",0,[0.4246000000238723],68,0,68,0,1
,,,,,,,5fb6aaf022099a07e417eb4f,,,,,,5fb6aaf022099a07e417eb4f,Mężczyzna,19,2021-09-06_19h26.36.657,rantool2,2021.1.4,Win32,59.99880002,6135e006383e6ea6c3d06a28,61364f26a1ac9a52a6adf62a,"[""comma""]",0,[0.5691999999284576],69,0,69,0,1
,,,,,,,5fb6aaf022099a07e417eb4f,,,,,,5fb6aaf022099a07e417eb4f,Mężczyzna,19,2021-09-06_19h26.36.657,rantool2,2021.1.4,Win32,59.99880002,6135e006383e6ea6c3d06a28,61364f26a1ac9a52a6adf62a,"[""period""]",0,[0.6177000000476482],70,0,70,0,1
,,,,,,,5fb6aaf022099a07e417eb4f,,,,,,5fb6aaf022099a07e417eb4f,Mężczyzna,19,2021-09-06_19h26.36.657,rantool2,2021.1.4,Win32,59.99880002,6135e006383e6ea6c3d06a28,61364f26a1ac9a52a6adf62a,"[""comma""]",0,[0.33679999995234766],71,0,71,0,1
,,,,,,,5fb6aaf022099a07e417eb4f,,,,,,5fb6aaf022099a07e417eb4f,Mężczyzna,19,2021-09-06_19h26.36.657,rantool2,2021.1.4,Win32,59.99880002,6135e006383e6ea6c3d06a28,61364f26a1ac9a52a6adf62a,"[""comma""]",0,[0.4673999999761804],72,0,72,0,1
,,,,,,,5fb6aaf022099a07e417eb4f,,,,,,5fb6aaf022099a07e417eb4f,Mężczyzna,19,2021-09-06_19h26.36.657,rantool2,2021.1.4,Win32,59.99880002,6135e006383e6ea6c3d06a28,61364f26a1ac9a52a6adf62a,"[""comma""]",0,[0.7341000000238864],73,0,73,0,1
,,,,,,,5fb6aaf022099a07e417eb4f,,,,,,5fb6aaf022099a07e417eb4f,Mężczyzna,19,2021-09-06_19h26.36.657,rantool2,2021.1.4,Win32,59.99880002,6135e006383e6ea6c3d06a28,61364f26a1ac9a52a6adf62a,"[""period""]",0,[0.5673999999761463],74,0,74,0,1
,,,,,,,5fb6aaf022099a07e417eb4f,,,,,,5fb6aaf022099a07e417eb4f,Mężczyzna,19,2021-09-06_19h26.36.657,rantool2,2021.1.4,Win32,59.99880002,6135e006383e6ea6c3d06a28,61364f26a1ac9a52a6adf62a,"[""comma""]",0,[0.3696000000238655],75,0,75,0,1
,,,,,,,5fb6aaf022099a07e417eb4f,,,,,,5fb6aaf022099a07e417eb4f,Mężczyzna,19,2021-09-06_19h26.36.657,rantool2,2021.1.4,Win32,59.99880002,6135e006383e6ea6c3d06a28,61364f26a1ac9a52a6adf62a,"[""period""]",0,[0.5336000000238528],76,0,76,0,1
,,,,,,,5fb6aaf022099a07e417eb4f,,,,,,5fb6aaf022099a07e417eb4f,Mężczyzna,19,2021-09-06_19h26.36.657,rantool2,2021.1.4,Win32,59.99880002,6135e006383e6ea6c3d06a28,61364f26a1ac9a52a6adf62a,"[""comma""]",0,[0.5374000000954311],77,0,77,0,1
,,,,,,,5fb6aaf022099a07e417eb4f,,,,,,5fb6aaf022099a07e417eb4f,Mężczyzna,19,2021-09-06_19h26.36.657,rantool2,2021.1.4,Win32,59.99880002,6135e006383e6ea6c3d06a28,61364f26a1ac9a52a6adf62a,"[""period""]",0,[0.7452000000477028],78,0,78,0,1
,,,,,,,5fb6aaf022099a07e417eb4f,,,,,,5fb6aaf022099a07e417eb4f,Mężczyzna,19,2021-09-06_19h26.36.657,rantool2,2021.1.4,Win32,59.99880002,6135e006383e6ea6c3d06a28,61364f26a1ac9a52a6adf62a,"[""comma""]",0,[0.41700000000003],79,0,79,0,1
,,,,,,,5fb6aaf022099a07e417eb4f,,,,,,5fb6aaf022099a07e417eb4f,Mężczyzna,19,2021-09-06_19h26.36.657,rantool2,2021.1.4,Win32,59.99880002,6135e006383e6ea6c3d06a28,61364f26a1ac9a52a6adf62a,"[""comma""]",0,[0.4340999999046744],80,0,80,0,1
,,,,,,,5fb6aaf022099a07e417eb4f,,,,,,5fb6aaf022099a07e417eb4f,Mężczyzna,19,2021-09-06_19h26.36.657,rantool2,2021.1.4,Win32,59.99880002,6135e006383e6ea6c3d06a28,61364f26a1ac9a52a6adf62a,"[""comma""]",0,[0.601699999928428],81,0,81,0,1
,,,,,,,5fb6aaf022099a07e417eb4f,,,,,,5fb6aaf022099a07e417eb4f,Mężczyzna,19,2021-09-06_19h26.36.657,rantool2,2021.1.4,Win32,59.99880002,6135e006383e6ea6c3d06a28,61364f26a1ac9a52a6adf62a,"[""period""]",0,[0.43369999992853536],82,0,82,0,1
,,,,,,,5fb6aaf022099a07e417eb4f,,,,,,5fb6aaf022099a07e417eb4f,Mężczyzna,19,2021-09-06_19h26.36.657,rantool2,2021.1.4,Win32,59.99880002,6135e006383e6ea6c3d06a28,61364f26a1ac9a52a6adf62a,"[""period""]",0,[0.33770000004767553],83,0,83,0,1
,,,,,,,5fb6aaf022099a07e417eb4f,,,,,,5fb6aaf022099a07e417eb4f,Mężczyzna,19,2021-09-06_19h26.36.657,rantool2,2021.1.4,Win32,59.99880002,6135e006383e6ea6c3d06a28,61364f26a1ac9a52a6adf62a,"[""period""]",0,[0.5138000000715692],84,0,84,0,1
,,,,,,,5fb6aaf022099a07e417eb4f,,,,,,5fb6aaf022099a07e417eb4f,Mężczyzna,19,2021-09-06_19h26.36.657,rantool2,2021.1.4,Win32,59.99880002,6135e006383e6ea6c3d06a28,61364f26a1ac9a52a6adf62a,"[""comma""]",0,[0.4671999999284253],85,0,85,0,1
,,,,,,,5fb6aaf022099a07e417eb4f,,,,,,5fb6aaf022099a07e417eb4f,Mężczyzna,19,2021-09-06_19h26.36.657,rantool2,2021.1.4,Win32,59.99880002,6135e006383e6ea6c3d06a28,61364f26a1ac9a52a6adf62a,"[""period""]",0,[0.33350000000007185],86,0,86,0,1
,,,,,,,5fb6aaf022099a07e417eb4f,,,,,,5fb6aaf022099a07e417eb4f,Mężczyzna,19,2021-09-06_19h26.36.657,rantool2,2021.1.4,Win32,59.99880002,6135e006383e6ea6c3d06a28,61364f26a1ac9a52a6adf62a,"[""comma""]",0,[0.3062999999523299],87,0,87,0,1
,,,,,,,5fb6aaf022099a07e417eb4f,,,,,,5fb6aaf022099a07e417eb4f,Mężczyzna,19,2021-09-06_19h26.36.657,rantool2,2021.1.4,Win32,59.99880002,6135e006383e6ea6c3d06a28,61364f26a1ac9a52a6adf62a,"[""period""]",0,[0.36719999992851626],88,0,88,0,1
,,,,,,,5fb6aaf022099a07e417eb4f,,,,,,5fb6aaf022099a07e417eb4f,Mężczyzna,19,2021-09-06_19h26.36.657,rantool2,2021.1.4,Win32,59.99880002,6135e006383e6ea6c3d06a28,61364f26a1ac9a52a6adf62a,"[""comma""]",0,[0.40169999992849625],89,0,89,0,1
,,,,,,,5fb6aaf022099a07e417eb4f,,,,,,5fb6aaf022099a07e417eb4f,Mężczyzna,19,2021-09-06_19h26.36.657,rantool2,2021.1.4,Win32,59.99880002,6135e006383e6ea6c3d06a28,61364f26a1ac9a52a6adf62a,"[""comma""]",0,[0.4339999999999691],90,0,90,0,1
,,,,,,,5fb6aaf022099a07e417eb4f,,,,,,5fb6aaf022099a07e417eb4f,Mężczyzna,19,2021-09-06_19h26.36.657,rantool2,2021.1.4,Win32,59.99880002,6135e006383e6ea6c3d06a28,61364f26a1ac9a52a6adf62a,"[""period""]",0,[0.6111000000238391],91,0,91,0,1
,,,,,,,5fb6aaf022099a07e417eb4f,,,,,,5fb6aaf022099a07e417eb4f,Mężczyzna,19,2021-09-06_19h26.36.657,rantool2,2021.1.4,Win32,59.99880002,6135e006383e6ea6c3d06a28,61364f26a1ac9a52a6adf62a,"[""comma""]",0,[0.7226000000238173],92,0,92,0,1
,,,,,,,5fb6aaf022099a07e417eb4f,,,,,,5fb6aaf022099a07e417eb4f,Mężczyzna,19,2021-09-06_19h26.36.657,rantool2,2021.1.4,Win32,59.99880002,6135e006383e6ea6c3d06a28,61364f26a1ac9a52a6adf62a,"[""comma""]",0,[0.5791999999283917],93,0,93,0,1
,,,,,,,5fb6aaf022099a07e417eb4f,,,,,,5fb6aaf022099a07e417eb4f,Mężczyzna,19,2021-09-06_19h26.36.657,rantool2,2021.1.4,Win32,59.99880002,6135e006383e6ea6c3d06a28,61364f26a1ac9a52a6adf62a,"[""comma""]",0,[0.29839999997614086],94,0,94,0,1
,,,,,,,5fb6aaf022099a07e417eb4f,,,,,,5fb6aaf022099a07e417eb4f,Mężczyzna,19,2021-09-06_19h26.36.657,rantool2,2021.1.4,Win32,59.99880002,6135e006383e6ea6c3d06a28,61364f26a1ac9a52a6adf62a,"[""period""]",0,[0.2831000000237509],95,0,95,0,1
,,,,,,,5fb6aaf022099a07e417eb4f,,,,,,5fb6aaf022099a07e417eb4f,Mężczyzna,19,2021-09-06_19h26.36.657,rantool2,2021.1.4,Win32,59.99880002,6135e006383e6ea6c3d06a28,61364f26a1ac9a52a6adf62a,"[""period""]",0,[0.3332999999522599],96,0,96,0,1
,,,,,,,5fb6aaf022099a07e417eb4f,,,,,,5fb6aaf022099a07e417eb4f,Mężczyzna,19,2021-09-06_19h26.36.657,rantool2,2021.1.4,Win32,59.99880002,6135e006383e6ea6c3d06a28,61364f26a1ac9a52a6adf62a,"[""comma""]",0,[0.34939999997607174],97,0,97,0,1
,,,,,,,5fb6aaf022099a07e417eb4f,,,,,,5fb6aaf022099a07e417eb4f,Mężczyzna,19,2021-09-06_19h26.36.657,rantool2,2021.1.4,Win32,59.99880002,6135e006383e6ea6c3d06a28,61364f26a1ac9a52a6adf62a,"[""period""]",0,[0.33919999992838257],98,0,98,0,1
,,,,,,,5fb6aaf022099a07e417eb4f,,,,,,5fb6aaf022099a07e417eb4f,Mężczyzna,19,2021-09-06_19h26.36.657,rantool2,2021.1.4,Win32,59.99880002,6135e006383e6ea6c3d06a28,61364f26a1ac9a52a6adf62a,"[""period""]",0,[0.3158999999760681],99,0,99,0,1
,,,,,,,5fb6aaf022099a07e417eb4f,,,,,,5fb6aaf022099a07e417eb4f,Mężczyzna,19,2021-09-06_19h26.36.657,rantool2,2021.1.4,Win32,59.99880002,6135e006383e6ea6c3d06a28,61364f26a1ac9a52a6adf62a,"[""comma""]",0,[0.2673999999760781],100,0,100,0,1
,,,,,,,5fb6aaf022099a07e417eb4f,,,,,,5fb6aaf022099a07e417eb4f,Mężczyzna,19,2021-09-06_19h26.36.657,rantool2,2021.1.4,Win32,59.99880002,6135e006383e6ea6c3d06a28,61364f26a1ac9a52a6adf62a,"[""period""]",0,[0.2508999999761272],101,0,101,0,1
,,,,,,,5fb6aaf022099a07e417eb4f,,,,,,5fb6aaf022099a07e417eb4f,Mężczyzna,19,2021-09-06_19h26.36.657,rantool2,2021.1.4,Win32,59.99880002,6135e006383e6ea6c3d06a28,61364f26a1ac9a52a6adf62a,"[""comma""]",0,[0.2991000000238273],102,0,102,0,1
,,,,,,,5fb6aaf022099a07e417eb4f,,,,,,5fb6aaf022099a07e417eb4f,Mężczyzna,19,2021-09-06_19h26.36.657,rantool2,2021.1.4,Win32,59.99880002,6135e006383e6ea6c3d06a28,61364f26a1ac9a52a6adf62a,"[""period""]",0,[0.34940000009532923],103,0,103,0,1
,,,,,,,5fb6aaf022099a07e417eb4f,,,,,,5fb6aaf022099a07e417eb4f,Mężczyzna,19,2021-09-06_19h26.36.657,rantool2,2021.1.4,Win32,59.99880002,6135e006383e6ea6c3d06a28,61364f26a1ac9a52a6adf62a,"[""comma""]",0,[0.26780000007147464],104,0,104,0,1
,,,,,,,5fb6aaf022099a07e417eb4f,,,,,,5fb6aaf022099a07e417eb4f,Mężczyzna,19,2021-09-06_19h26.36.657,rantool2,2021.1.4,Win32,59.99880002,6135e006383e6ea6c3d06a28,61364f26a1ac9a52a6adf62a,"[""period""]",0,[0.12360000002377092],105,0,105,0,1
,,,,,,,5fb6aaf022099a07e417eb4f,,,,,,5fb6aaf022099a07e417eb4f,Mężczyzna,19,2021-09-06_19h26.36.657,rantool2,2021.1.4,Win32,59.99880002,6135e006383e6ea6c3d06a28,61364f26a1ac9a52a6adf62a,"[""comma""]",0,[0.1721000000237609],106,0,106,0,1
,,,,,,,5fb6aaf022099a07e417eb4f,,,,,,5fb6aaf022099a07e417eb4f,Mężczyzna,19,2021-09-06_19h26.36.657,rantool2,2021.1.4,Win32,59.99880002,6135e006383e6ea6c3d06a28,61364f26a1ac9a52a6adf62a,"[""period""]",0,[0.28329999995230537],107,0,107,0,1
,,,,,,,5fb6aaf022099a07e417eb4f,,,,,,5fb6aaf022099a07e417eb4f,Mężczyzna,19,2021-09-06_19h26.36.657,rantool2,2021.1.4,Win32,59.99880002,6135e006383e6ea6c3d06a28,61364f26a1ac9a52a6adf62a,"[""period""]",0,[0.5327999999523172],108,0,108,0,1
,,,,,,,5fb6aaf022099a07e417eb4f,,,,,,5fb6aaf022099a07e417eb4f,Mężczyzna,19,2021-09-06_19h26.36.657,rantool2,2021.1.4,Win32,59.99880002,6135e006383e6ea6c3d06a28,61364f26a1ac9a52a6adf62a,"[""comma""]",0,[0.31599999999991724],109,0,109,0,1
,,,,,,,5fb6aaf022099a07e417eb4f,,,,,,5fb6aaf022099a07e417eb4f,Mężczyzna,19,2021-09-06_19h26.36.657,rantool2,2021.1.4,Win32,59.99880002,6135e006383e6ea6c3d06a28,61364f26a1ac9a52a6adf62a,"[""period""]",0,[0.7563999999761108],110,0,110,0,1
,,,,,,,5fb6aaf022099a07e417eb4f,,,,,,5fb6aaf022099a07e417eb4f,Mężczyzna,19,2021-09-06_19h26.36.657,rantool2,2021.1.4,Win32,59.99880002,6135e006383e6ea6c3d06a28,61364f26a1ac9a52a6adf62a,"[""comma""]",0,[0.6441999999284462],111,0,111,0,1
,,,,,,,5fb6aaf022099a07e417eb4f,,,,,,5fb6aaf022099a07e417eb4f,Mężczyzna,19,2021-09-06_19h26.36.657,rantool2,2021.1.4,Win32,59.99880002,6135e006383e6ea6c3d06a28,61364f26a1ac9a52a6adf62a,"[""period""]",0,[0.75649999999996],112,0,112,0,1
,,,,,,,5fb6aaf022099a07e417eb4f,,,,,,5fb6aaf022099a07e417eb4f,Mężczyzna,19,2021-09-06_19h26.36.657,rantool2,2021.1.4,Win32,59.99880002,6135e006383e6ea6c3d06a28,61364f26a1ac9a52a6adf62a,"[""period""]",0,[0.5825000000000955],113,0,113,0,1
,,,,,,,5fb6aaf022099a07e417eb4f,,,,,,5fb6aaf022099a07e417eb4f,Mężczyzna,19,2021-09-06_19h26.36.657,rantool2,2021.1.4,Win32,59.99880002,6135e006383e6ea6c3d06a28,61364f26a1ac9a52a6adf62a,"[""comma""]",0,[0.6606999999285108],114,0,114,0,1
,,,,,,,5fb6aaf022099a07e417eb4f,,,,,,5fb6aaf022099a07e417eb4f,Mężczyzna,19,2021-09-06_19h26.36.657,rantool2,2021.1.4,Win32,59.99880002,6135e006383e6ea6c3d06a28,61364f26a1ac9a52a6adf62a,"[""period""]",0,[0.5408000000714992],115,0,115,0,1
,,,,,,,5fb6aaf022099a07e417eb4f,,,,,,5fb6aaf022099a07e417eb4f,Mężczyzna,19,2021-09-06_19h26.36.657,rantool2,2021.1.4,Win32,59.99880002,6135e006383e6ea6c3d06a28,61364f26a1ac9a52a6adf62a,"[""comma""]",0,[0.30889999997623363],116,0,116,0,1
,,,,,,,5fb6aaf022099a07e417eb4f,,,,,,5fb6aaf022099a07e417eb4f,Mężczyzna,19,2021-09-06_19h26.36.657,rantool2,2021.1.4,Win32,59.99880002,6135e006383e6ea6c3d06a28,61364f26a1ac9a52a6adf62a,"[""period""]",0,[0.41249999999990905],117,0,117,0,1
,,,,,,,5fb6aaf022099a07e417eb4f,,,,,,5fb6aaf022099a07e417eb4f,Mężczyzna,19,2021-09-06_19h26.36.657,rantool2,2021.1.4,Win32,59.99880002,6135e006383e6ea6c3d06a28,61364f26a1ac9a52a6adf62a,"[""comma""]",0,[0.4005000000000791],118,0,118,0,1
,,,,,,,5fb6aaf022099a07e417eb4f,,,,,,5fb6aaf022099a07e417eb4f,Mężczyzna,19,2021-09-06_19h26.36.657,rantool2,2021.1.4,Win32,59.99880002,6135e006383e6ea6c3d06a28,61364f26a1ac9a52a6adf62a,"[""period""]",0,[0.7091000000237955],119,0,119,0,1
