key_resp_7.keys,key_resp_7.rt,trials_2.thisRepN,trials_2.thisTrialN,trials_2.thisN,trials_2.thisIndex,trials_2.ran,id,series_0,series_1,acss_0,acss_1,comparison,id*,Płeć*,Wiek*,date,expName,psychopyVersion,OS,frameRate,STUDY_ID,SESSION_ID,key_resp_5.keys,key_resp_5.corr,key_resp_5.rt,trials.thisRepN,trials.thisTrialN,trials.thisN,trials.thisIndex,trials.ran
f,4.277,0,0,0,39,1,6129099d13dfae11546b0a08,ROORRRO,ROORRRR,21.82425538,21.38562617,series_0,6129099d13dfae11546b0a08,Mężczyzna,40,2021-09-06_18h32.04.360,rantool2,2021.1.4,Win32,60.0240096,6135e006383e6ea6c3d06a28,61364268e0b28d30957e71a7,,,,,,,,
f,2.773,0,1,1,32,1,6129099d13dfae11546b0a08,ROOOOOO,ROOOOOR,19.92253567,21.27974287,series_1,6129099d13dfae11546b0a08,Mężczyzna,40,2021-09-06_18h32.04.360,rantool2,2021.1.4,Win32,60.0240096,6135e006383e6ea6c3d06a28,61364268e0b28d30957e71a7,,,,,,,,
f,2.2,0,2,2,59,1,6129099d13dfae11546b0a08,RRRORRO,RRRORRR,21.56657303,20.89823192,series_0,6129099d13dfae11546b0a08,Mężczyzna,40,2021-09-06_18h32.04.360,rantool2,2021.1.4,Win32,60.0240096,6135e006383e6ea6c3d06a28,61364268e0b28d30957e71a7,,,,,,,,
j,2.035,0,3,3,25,1,6129099d13dfae11546b0a08,ORROORO,ORROORR,21.79500819,22.61624387,series_1,6129099d13dfae11546b0a08,Mężczyzna,40,2021-09-06_18h32.04.360,rantool2,2021.1.4,Win32,60.0240096,6135e006383e6ea6c3d06a28,61364268e0b28d30957e71a7,,,,,,,,
f,1.508,0,4,4,9,1,6129099d13dfae11546b0a08,OOROORO,OOROORR,21.07991943,22.2428857,series_1,6129099d13dfae11546b0a08,Mężczyzna,40,2021-09-06_18h32.04.360,rantool2,2021.1.4,Win32,60.0240096,6135e006383e6ea6c3d06a28,61364268e0b28d30957e71a7,,,,,,,,
f,1.834,0,5,5,18,1,6129099d13dfae11546b0a08,OROOROO,OROOROR,20.84860893,21.22513037,series_1,6129099d13dfae11546b0a08,Mężczyzna,40,2021-09-06_18h32.04.360,rantool2,2021.1.4,Win32,60.0240096,6135e006383e6ea6c3d06a28,61364268e0b28d30957e71a7,,,,,,,,
f,1.927,0,6,6,43,1,6129099d13dfae11546b0a08,RORORRO,RORORRR,20.71309134,21.07490964,series_1,6129099d13dfae11546b0a08,Mężczyzna,40,2021-09-06_18h32.04.360,rantool2,2021.1.4,Win32,60.0240096,6135e006383e6ea6c3d06a28,61364268e0b28d30957e71a7,,,,,,,,
j,1.994,0,7,7,23,1,6129099d13dfae11546b0a08,ORORRRO,ORORRRR,22.1285618,21.9921709,series_0,6129099d13dfae11546b0a08,Mężczyzna,40,2021-09-06_18h32.04.360,rantool2,2021.1.4,Win32,60.0240096,6135e006383e6ea6c3d06a28,61364268e0b28d30957e71a7,,,,,,,,
f,2.058,0,8,8,31,1,6129099d13dfae11546b0a08,ORRRRRO,ORRRRRR,22.16413392,20.74050628,series_0,6129099d13dfae11546b0a08,Mężczyzna,40,2021-09-06_18h32.04.360,rantool2,2021.1.4,Win32,60.0240096,6135e006383e6ea6c3d06a28,61364268e0b28d30957e71a7,,,,,,,,
j,1.386,0,9,9,17,1,6129099d13dfae11546b0a08,OROOORO,OROOORR,21.03750787,22.12173012,series_1,6129099d13dfae11546b0a08,Mężczyzna,40,2021-09-06_18h32.04.360,rantool2,2021.1.4,Win32,60.0240096,6135e006383e6ea6c3d06a28,61364268e0b28d30957e71a7,,,,,,,,
f,1.486,0,10,10,11,1,6129099d13dfae11546b0a08,OORORRO,OORORRR,22.18365867,22.6797523,series_1,6129099d13dfae11546b0a08,Mężczyzna,40,2021-09-06_18h32.04.360,rantool2,2021.1.4,Win32,60.0240096,6135e006383e6ea6c3d06a28,61364268e0b28d30957e71a7,,,,,,,,
f,2.058,0,11,11,50,1,6129099d13dfae11546b0a08,RROOROO,RROOROR,21.73568164,22.02566557,series_1,6129099d13dfae11546b0a08,Mężczyzna,40,2021-09-06_18h32.04.360,rantool2,2021.1.4,Win32,60.0240096,6135e006383e6ea6c3d06a28,61364268e0b28d30957e71a7,,,,,,,,
j,2.728,0,12,12,15,1,6129099d13dfae11546b0a08,OORRRRO,OORRRRR,22.10108823,21.74922619,series_0,6129099d13dfae11546b0a08,Mężczyzna,40,2021-09-06_18h32.04.360,rantool2,2021.1.4,Win32,60.0240096,6135e006383e6ea6c3d06a28,61364268e0b28d30957e71a7,,,,,,,,
f,1.763,0,13,13,48,1,6129099d13dfae11546b0a08,RROOOOO,RROOOOR,20.90986523,22.15934078,series_1,6129099d13dfae11546b0a08,Mężczyzna,40,2021-09-06_18h32.04.360,rantool2,2021.1.4,Win32,60.0240096,6135e006383e6ea6c3d06a28,61364268e0b28d30957e71a7,,,,,,,,
f,2.157,0,14,14,19,1,6129099d13dfae11546b0a08,OROORRO,OROORRR,21.73568164,22.11181017,series_1,6129099d13dfae11546b0a08,Mężczyzna,40,2021-09-06_18h32.04.360,rantool2,2021.1.4,Win32,60.0240096,6135e006383e6ea6c3d06a28,61364268e0b28d30957e71a7,,,,,,,,
f,1.169,0,15,15,2,1,6129099d13dfae11546b0a08,OOOOROO,OOOOROR,20.43051175,21.02936224,series_1,6129099d13dfae11546b0a08,Mężczyzna,40,2021-09-06_18h32.04.360,rantool2,2021.1.4,Win32,60.0240096,6135e006383e6ea6c3d06a28,61364268e0b28d30957e71a7,,,,,,,,
j,1.502,0,16,16,47,1,6129099d13dfae11546b0a08,RORRRRO,RORRRRR,21.81333602,21.02936224,series_0,6129099d13dfae11546b0a08,Mężczyzna,40,2021-09-06_18h32.04.360,rantool2,2021.1.4,Win32,60.0240096,6135e006383e6ea6c3d06a28,61364268e0b28d30957e71a7,,,,,,,,
j,2.019,0,17,17,41,1,6129099d13dfae11546b0a08,ROROORO,ROROORR,20.42602454,21.71443381,series_1,6129099d13dfae11546b0a08,Mężczyzna,40,2021-09-06_18h32.04.360,rantool2,2021.1.4,Win32,60.0240096,6135e006383e6ea6c3d06a28,61364268e0b28d30957e71a7,,,,,,,,
j,1.12,0,18,18,16,1,6129099d13dfae11546b0a08,OROOOOO,OROOOOR,20.43051175,21.17347734,series_1,6129099d13dfae11546b0a08,Mężczyzna,40,2021-09-06_18h32.04.360,rantool2,2021.1.4,Win32,60.0240096,6135e006383e6ea6c3d06a28,61364268e0b28d30957e71a7,,,,,,,,
f,1.33,0,19,19,40,1,6129099d13dfae11546b0a08,ROROOOO,ROROOOR,20.87963819,21.37121559,series_1,6129099d13dfae11546b0a08,Mężczyzna,40,2021-09-06_18h32.04.360,rantool2,2021.1.4,Win32,60.0240096,6135e006383e6ea6c3d06a28,61364268e0b28d30957e71a7,,,,,,,,
j,1.396,0,20,20,34,1,6129099d13dfae11546b0a08,ROOOROO,ROOOROR,21.03750787,21.24781509,series_1,6129099d13dfae11546b0a08,Mężczyzna,40,2021-09-06_18h32.04.360,rantool2,2021.1.4,Win32,60.0240096,6135e006383e6ea6c3d06a28,61364268e0b28d30957e71a7,,,,,,,,
f,1.445,0,21,21,12,1,6129099d13dfae11546b0a08,OORROOO,OORROOR,21.30250474,22.02786418,series_1,6129099d13dfae11546b0a08,Mężczyzna,40,2021-09-06_18h32.04.360,rantool2,2021.1.4,Win32,60.0240096,6135e006383e6ea6c3d06a28,61364268e0b28d30957e71a7,,,,,,,,
j,1.301,0,22,22,56,1,6129099d13dfae11546b0a08,RRROOOO,RRROOOR,21.6194508,22.31681875,series_1,6129099d13dfae11546b0a08,Mężczyzna,40,2021-09-06_18h32.04.360,rantool2,2021.1.4,Win32,60.0240096,6135e006383e6ea6c3d06a28,61364268e0b28d30957e71a7,,,,,,,,
j,1.501,0,23,23,37,1,6129099d13dfae11546b0a08,ROORORO,ROORORR,20.42602454,21.57657071,series_1,6129099d13dfae11546b0a08,Mężczyzna,40,2021-09-06_18h32.04.360,rantool2,2021.1.4,Win32,60.0240096,6135e006383e6ea6c3d06a28,61364268e0b28d30957e71a7,,,,,,,,
f,1.561,0,24,24,13,1,6129099d13dfae11546b0a08,OORRORO,OORRORR,21.66733484,22.11181017,series_1,6129099d13dfae11546b0a08,Mężczyzna,40,2021-09-06_18h32.04.360,rantool2,2021.1.4,Win32,60.0240096,6135e006383e6ea6c3d06a28,61364268e0b28d30957e71a7,,,,,,,,
f,1.628,0,25,25,62,1,6129099d13dfae11546b0a08,RRRRROO,RRRRROR,22.16413392,21.27974287,series_0,6129099d13dfae11546b0a08,Mężczyzna,40,2021-09-06_18h32.04.360,rantool2,2021.1.4,Win32,60.0240096,6135e006383e6ea6c3d06a28,61364268e0b28d30957e71a7,,,,,,,,
f,1.886,0,26,26,45,1,6129099d13dfae11546b0a08,RORRORO,RORRORR,20.78182524,21.22513037,series_1,6129099d13dfae11546b0a08,Mężczyzna,40,2021-09-06_18h32.04.360,rantool2,2021.1.4,Win32,60.0240096,6135e006383e6ea6c3d06a28,61364268e0b28d30957e71a7,,,,,,,,
j,1.494,0,27,27,5,1,6129099d13dfae11546b0a08,OOORORO,OOORORR,20.87963819,21.9921709,series_1,6129099d13dfae11546b0a08,Mężczyzna,40,2021-09-06_18h32.04.360,rantool2,2021.1.4,Win32,60.0240096,6135e006383e6ea6c3d06a28,61364268e0b28d30957e71a7,,,,,,,,
f,1.617,0,28,28,55,1,6129099d13dfae11546b0a08,RRORRRO,RRORRRR,21.56657303,21.21223021,series_0,6129099d13dfae11546b0a08,Mężczyzna,40,2021-09-06_18h32.04.360,rantool2,2021.1.4,Win32,60.0240096,6135e006383e6ea6c3d06a28,61364268e0b28d30957e71a7,,,,,,,,
f,1.944,0,29,29,26,1,6129099d13dfae11546b0a08,ORROROO,ORROROR,22.02732763,21.71443381,series_0,6129099d13dfae11546b0a08,Mężczyzna,40,2021-09-06_18h32.04.360,rantool2,2021.1.4,Win32,60.0240096,6135e006383e6ea6c3d06a28,61364268e0b28d30957e71a7,,,,,,,,
j,1.052,0,30,30,36,1,6129099d13dfae11546b0a08,ROOROOO,ROOROOR,21.07991943,20.9984461,series_0,6129099d13dfae11546b0a08,Mężczyzna,40,2021-09-06_18h32.04.360,rantool2,2021.1.4,Win32,60.0240096,6135e006383e6ea6c3d06a28,61364268e0b28d30957e71a7,,,,,,,,
f,1.391,0,31,31,38,1,6129099d13dfae11546b0a08,ROORROO,ROORROR,21.79500819,21.36812781,series_0,6129099d13dfae11546b0a08,Mężczyzna,40,2021-09-06_18h32.04.360,rantool2,2021.1.4,Win32,60.0240096,6135e006383e6ea6c3d06a28,61364268e0b28d30957e71a7,,,,,,,,
f,1.679,0,32,32,51,1,6129099d13dfae11546b0a08,RROORRO,RROORRR,21.89852628,22.02786418,series_1,6129099d13dfae11546b0a08,Mężczyzna,40,2021-09-06_18h32.04.360,rantool2,2021.1.4,Win32,60.0240096,6135e006383e6ea6c3d06a28,61364268e0b28d30957e71a7,,,,,,,,
f,1.102,0,33,33,0,1,6129099d13dfae11546b0a08,OOOOOOO,OOOOOOR,18.52739004,19.62521613,series_1,6129099d13dfae11546b0a08,Mężczyzna,40,2021-09-06_18h32.04.360,rantool2,2021.1.4,Win32,60.0240096,6135e006383e6ea6c3d06a28,61364268e0b28d30957e71a7,,,,,,,,
f,1.871,0,34,34,29,1,6129099d13dfae11546b0a08,ORRRORO,ORRRORR,22.00300695,22.12173012,series_1,6129099d13dfae11546b0a08,Mężczyzna,40,2021-09-06_18h32.04.360,rantool2,2021.1.4,Win32,60.0240096,6135e006383e6ea6c3d06a28,61364268e0b28d30957e71a7,,,,,,,,
f,1.269,0,35,35,20,1,6129099d13dfae11546b0a08,OROROOO,OROROOR,21.31236711,21.90565814,series_1,6129099d13dfae11546b0a08,Mężczyzna,40,2021-09-06_18h32.04.360,rantool2,2021.1.4,Win32,60.0240096,6135e006383e6ea6c3d06a28,61364268e0b28d30957e71a7,,,,,,,,
f,1.16,0,36,36,63,1,6129099d13dfae11546b0a08,RRRRRRO,RRRRRRR,21.35278725,19.62521613,series_0,6129099d13dfae11546b0a08,Mężczyzna,40,2021-09-06_18h32.04.360,rantool2,2021.1.4,Win32,60.0240096,6135e006383e6ea6c3d06a28,61364268e0b28d30957e71a7,,,,,,,,
j,2.545,0,37,37,27,1,6129099d13dfae11546b0a08,ORRORRO,ORRORRR,21.55250791,22.2428857,series_1,6129099d13dfae11546b0a08,Mężczyzna,40,2021-09-06_18h32.04.360,rantool2,2021.1.4,Win32,60.0240096,6135e006383e6ea6c3d06a28,61364268e0b28d30957e71a7,,,,,,,,
j,1.394,0,38,38,42,1,6129099d13dfae11546b0a08,ROROROO,ROROROR,20.39515459,19.8361834,series_0,6129099d13dfae11546b0a08,Mężczyzna,40,2021-09-06_18h32.04.360,rantool2,2021.1.4,Win32,60.0240096,6135e006383e6ea6c3d06a28,61364268e0b28d30957e71a7,,,,,,,,
j,1.251,0,39,39,21,1,6129099d13dfae11546b0a08,ORORORO,ORORORR,20.39515459,22.06781359,series_1,6129099d13dfae11546b0a08,Mężczyzna,40,2021-09-06_18h32.04.360,rantool2,2021.1.4,Win32,60.0240096,6135e006383e6ea6c3d06a28,61364268e0b28d30957e71a7,,,,,,,,
f,1.402,0,40,40,61,1,6129099d13dfae11546b0a08,RRRRORO,RRRRORR,21.81333602,21.17347734,series_0,6129099d13dfae11546b0a08,Mężczyzna,40,2021-09-06_18h32.04.360,rantool2,2021.1.4,Win32,60.0240096,6135e006383e6ea6c3d06a28,61364268e0b28d30957e71a7,,,,,,,,
f,1.19,0,41,41,24,1,6129099d13dfae11546b0a08,ORROOOO,ORROOOR,21.12383932,22.07102821,series_1,6129099d13dfae11546b0a08,Mężczyzna,40,2021-09-06_18h32.04.360,rantool2,2021.1.4,Win32,60.0240096,6135e006383e6ea6c3d06a28,61364268e0b28d30957e71a7,,,,,,,,
f,1.367,0,42,42,35,1,6129099d13dfae11546b0a08,ROOORRO,ROOORRR,21.76276513,22.16977179,series_1,6129099d13dfae11546b0a08,Mężczyzna,40,2021-09-06_18h32.04.360,rantool2,2021.1.4,Win32,60.0240096,6135e006383e6ea6c3d06a28,61364268e0b28d30957e71a7,,,,,,,,
f,1.138,0,43,43,4,1,6129099d13dfae11546b0a08,OOOROOO,OOOROOR,19.91402015,21.21223021,series_1,6129099d13dfae11546b0a08,Mężczyzna,40,2021-09-06_18h32.04.360,rantool2,2021.1.4,Win32,60.0240096,6135e006383e6ea6c3d06a28,61364268e0b28d30957e71a7,,,,,,,,
j,1.274,0,44,44,30,1,6129099d13dfae11546b0a08,ORRRROO,ORRRROR,22.46748491,22.03072203,series_0,6129099d13dfae11546b0a08,Mężczyzna,40,2021-09-06_18h32.04.360,rantool2,2021.1.4,Win32,60.0240096,6135e006383e6ea6c3d06a28,61364268e0b28d30957e71a7,,,,,,,,
j,1.786,0,45,45,53,1,6129099d13dfae11546b0a08,RRORORO,RRORORR,20.71309134,21.90565814,series_1,6129099d13dfae11546b0a08,Mężczyzna,40,2021-09-06_18h32.04.360,rantool2,2021.1.4,Win32,60.0240096,6135e006383e6ea6c3d06a28,61364268e0b28d30957e71a7,,,,,,,,
j,1.265,0,46,46,28,1,6129099d13dfae11546b0a08,ORRROOO,ORRROOR,22.24142883,22.53364006,series_1,6129099d13dfae11546b0a08,Mężczyzna,40,2021-09-06_18h32.04.360,rantool2,2021.1.4,Win32,60.0240096,6135e006383e6ea6c3d06a28,61364268e0b28d30957e71a7,,,,,,,,
f,1.077,0,47,47,8,1,6129099d13dfae11546b0a08,OOROOOO,OOROOOR,19.91402015,20.89823192,series_1,6129099d13dfae11546b0a08,Mężczyzna,40,2021-09-06_18h32.04.360,rantool2,2021.1.4,Win32,60.0240096,6135e006383e6ea6c3d06a28,61364268e0b28d30957e71a7,,,,,,,,
f,1.475,0,48,48,7,1,6129099d13dfae11546b0a08,OOORRRO,OOORRRR,21.6194508,21.899017,series_1,6129099d13dfae11546b0a08,Mężczyzna,40,2021-09-06_18h32.04.360,rantool2,2021.1.4,Win32,60.0240096,6135e006383e6ea6c3d06a28,61364268e0b28d30957e71a7,,,,,,,,
j,1.262,0,49,49,1,1,6129099d13dfae11546b0a08,OOOOORO,OOOOORR,19.92253567,20.74050628,series_1,6129099d13dfae11546b0a08,Mężczyzna,40,2021-09-06_18h32.04.360,rantool2,2021.1.4,Win32,60.0240096,6135e006383e6ea6c3d06a28,61364268e0b28d30957e71a7,,,,,,,,
f,1.38,0,50,50,44,1,6129099d13dfae11546b0a08,RORROOO,RORROOR,21.66733484,22.02566557,series_1,6129099d13dfae11546b0a08,Mężczyzna,40,2021-09-06_18h32.04.360,rantool2,2021.1.4,Win32,60.0240096,6135e006383e6ea6c3d06a28,61364268e0b28d30957e71a7,,,,,,,,
f,2.303,0,51,51,22,1,6129099d13dfae11546b0a08,ORORROO,ORORROR,22.02732763,21.57657071,series_0,6129099d13dfae11546b0a08,Mężczyzna,40,2021-09-06_18h32.04.360,rantool2,2021.1.4,Win32,60.0240096,6135e006383e6ea6c3d06a28,61364268e0b28d30957e71a7,,,,,,,,
j,1.777,0,52,52,54,1,6129099d13dfae11546b0a08,RRORROO,RRORROR,21.55250791,20.9984461,series_0,6129099d13dfae11546b0a08,Mężczyzna,40,2021-09-06_18h32.04.360,rantool2,2021.1.4,Win32,60.0240096,6135e006383e6ea6c3d06a28,61364268e0b28d30957e71a7,,,,,,,,
j,1.552,0,53,53,57,1,6129099d13dfae11546b0a08,RRROORO,RRROORR,21.82425538,22.07102821,series_1,6129099d13dfae11546b0a08,Mężczyzna,40,2021-09-06_18h32.04.360,rantool2,2021.1.4,Win32,60.0240096,6135e006383e6ea6c3d06a28,61364268e0b28d30957e71a7,,,,,,,,
j,1.338,0,54,54,10,1,6129099d13dfae11546b0a08,OOROROO,OOROROR,21.31236711,21.07490964,series_0,6129099d13dfae11546b0a08,Mężczyzna,40,2021-09-06_18h32.04.360,rantool2,2021.1.4,Win32,60.0240096,6135e006383e6ea6c3d06a28,61364268e0b28d30957e71a7,,,,,,,,
f,1.476,0,55,55,14,1,6129099d13dfae11546b0a08,OORRROO,OORRROR,22.24142883,22.16977179,series_0,6129099d13dfae11546b0a08,Mężczyzna,40,2021-09-06_18h32.04.360,rantool2,2021.1.4,Win32,60.0240096,6135e006383e6ea6c3d06a28,61364268e0b28d30957e71a7,,,,,,,,
j,1.505,0,56,56,60,1,6129099d13dfae11546b0a08,RRRROOO,RRRROOR,22.10108823,22.15934078,series_1,6129099d13dfae11546b0a08,Mężczyzna,40,2021-09-06_18h32.04.360,rantool2,2021.1.4,Win32,60.0240096,6135e006383e6ea6c3d06a28,61364268e0b28d30957e71a7,,,,,,,,
j,1.324,0,57,57,49,1,6129099d13dfae11546b0a08,RROOORO,RROOORR,21.76276513,22.53364006,series_1,6129099d13dfae11546b0a08,Mężczyzna,40,2021-09-06_18h32.04.360,rantool2,2021.1.4,Win32,60.0240096,6135e006383e6ea6c3d06a28,61364268e0b28d30957e71a7,,,,,,,,
j,1.304,0,58,58,52,1,6129099d13dfae11546b0a08,RROROOO,RROROOR,22.18365867,22.11097995,series_0,6129099d13dfae11546b0a08,Mężczyzna,40,2021-09-06_18h32.04.360,rantool2,2021.1.4,Win32,60.0240096,6135e006383e6ea6c3d06a28,61364268e0b28d30957e71a7,,,,,,,,
j,1.329,0,59,59,33,1,6129099d13dfae11546b0a08,ROOOORO,ROOOORR,20.83779602,22.03072203,series_1,6129099d13dfae11546b0a08,Mężczyzna,40,2021-09-06_18h32.04.360,rantool2,2021.1.4,Win32,60.0240096,6135e006383e6ea6c3d06a28,61364268e0b28d30957e71a7,,,,,,,,
f,1.37,0,60,60,3,1,6129099d13dfae11546b0a08,OOOORRO,OOOORRR,20.90986523,21.74922619,series_1,6129099d13dfae11546b0a08,Mężczyzna,40,2021-09-06_18h32.04.360,rantool2,2021.1.4,Win32,60.0240096,6135e006383e6ea6c3d06a28,61364268e0b28d30957e71a7,,,,,,,,
f,1.701,0,61,61,58,1,6129099d13dfae11546b0a08,RRROROO,RRROROR,22.1285618,21.37121559,series_0,6129099d13dfae11546b0a08,Mężczyzna,40,2021-09-06_18h32.04.360,rantool2,2021.1.4,Win32,60.0240096,6135e006383e6ea6c3d06a28,61364268e0b28d30957e71a7,,,,,,,,
j,1.344,0,62,62,6,1,6129099d13dfae11546b0a08,OOORROO,OOORROR,21.12383932,21.38562617,series_1,6129099d13dfae11546b0a08,Mężczyzna,40,2021-09-06_18h32.04.360,rantool2,2021.1.4,Win32,60.0240096,6135e006383e6ea6c3d06a28,61364268e0b28d30957e71a7,,,,,,,,
f,1.995,0,63,63,46,1,6129099d13dfae11546b0a08,RORRROO,RORRROR,22.00300695,21.24781509,series_0,6129099d13dfae11546b0a08,Mężczyzna,40,2021-09-06_18h32.04.360,rantool2,2021.1.4,Win32,60.0240096,6135e006383e6ea6c3d06a28,61364268e0b28d30957e71a7,,,,,,,,
,,,,,,,6129099d13dfae11546b0a08,,,,,,6129099d13dfae11546b0a08,Mężczyzna,40,2021-09-06_18h32.04.360,rantool2,2021.1.4,Win32,60.0240096,6135e006383e6ea6c3d06a28,61364268e0b28d30957e71a7,"[""comma""]",0,[1.8289999999999793],0,0,0,0,1
,,,,,,,6129099d13dfae11546b0a08,,,,,,6129099d13dfae11546b0a08,Mężczyzna,40,2021-09-06_18h32.04.360,rantool2,2021.1.4,Win32,60.0240096,6135e006383e6ea6c3d06a28,61364268e0b28d30957e71a7,"[""comma""]",0,[1.3410000000000082],1,0,1,0,1
,,,,,,,6129099d13dfae11546b0a08,,,,,,6129099d13dfae11546b0a08,Mężczyzna,40,2021-09-06_18h32.04.360,rantool2,2021.1.4,Win32,60.0240096,6135e006383e6ea6c3d06a28,61364268e0b28d30957e71a7,"[""period""]",0,[0.5169999999999959],2,0,2,0,1
,,,,,,,6129099d13dfae11546b0a08,,,,,,6129099d13dfae11546b0a08,Mężczyzna,40,2021-09-06_18h32.04.360,rantool2,2021.1.4,Win32,60.0240096,6135e006383e6ea6c3d06a28,61364268e0b28d30957e71a7,"[""comma""]",0,[0.3569999999999993],3,0,3,0,1
,,,,,,,6129099d13dfae11546b0a08,,,,,,6129099d13dfae11546b0a08,Mężczyzna,40,2021-09-06_18h32.04.360,rantool2,2021.1.4,Win32,60.0240096,6135e006383e6ea6c3d06a28,61364268e0b28d30957e71a7,"[""comma""]",0,[0.27000000000001023],4,0,4,0,1
,,,,,,,6129099d13dfae11546b0a08,,,,,,6129099d13dfae11546b0a08,Mężczyzna,40,2021-09-06_18h32.04.360,rantool2,2021.1.4,Win32,60.0240096,6135e006383e6ea6c3d06a28,61364268e0b28d30957e71a7,"[""period"",""comma""]",0,"[0.4130000000000109,1.9720000000000084]",5,0,5,0,1
,,,,,,,6129099d13dfae11546b0a08,,,,,,6129099d13dfae11546b0a08,Mężczyzna,40,2021-09-06_18h32.04.360,rantool2,2021.1.4,Win32,60.0240096,6135e006383e6ea6c3d06a28,61364268e0b28d30957e71a7,"[""comma""]",0,[1.1730000000000018],6,0,6,0,1
,,,,,,,6129099d13dfae11546b0a08,,,,,,6129099d13dfae11546b0a08,Mężczyzna,40,2021-09-06_18h32.04.360,rantool2,2021.1.4,Win32,60.0240096,6135e006383e6ea6c3d06a28,61364268e0b28d30957e71a7,"[""comma""]",0,[1.3850000000000193],7,0,7,0,1
,,,,,,,6129099d13dfae11546b0a08,,,,,,6129099d13dfae11546b0a08,Mężczyzna,40,2021-09-06_18h32.04.360,rantool2,2021.1.4,Win32,60.0240096,6135e006383e6ea6c3d06a28,61364268e0b28d30957e71a7,"[""period""]",0,[0.6450000000000102],8,0,8,0,1
,,,,,,,6129099d13dfae11546b0a08,,,,,,6129099d13dfae11546b0a08,Mężczyzna,40,2021-09-06_18h32.04.360,rantool2,2021.1.4,Win32,60.0240096,6135e006383e6ea6c3d06a28,61364268e0b28d30957e71a7,"[""comma""]",0,[0.271000000000015],9,0,9,0,1
,,,,,,,6129099d13dfae11546b0a08,,,,,,6129099d13dfae11546b0a08,Mężczyzna,40,2021-09-06_18h32.04.360,rantool2,2021.1.4,Win32,60.0240096,6135e006383e6ea6c3d06a28,61364268e0b28d30957e71a7,"[""period"",""comma""]",0,"[0.10800000000000409,1.938999999999993]",10,0,10,0,1
,,,,,,,6129099d13dfae11546b0a08,,,,,,6129099d13dfae11546b0a08,Mężczyzna,40,2021-09-06_18h32.04.360,rantool2,2021.1.4,Win32,60.0240096,6135e006383e6ea6c3d06a28,61364268e0b28d30957e71a7,0,0,,11,0,11,0,1
,,,,,,,6129099d13dfae11546b0a08,,,,,,6129099d13dfae11546b0a08,Mężczyzna,40,2021-09-06_18h32.04.360,rantool2,2021.1.4,Win32,60.0240096,6135e006383e6ea6c3d06a28,61364268e0b28d30957e71a7,"[""comma"",""period""]",0,"[0.021000000000015007,1.936000000000007]",12,0,12,0,1
,,,,,,,6129099d13dfae11546b0a08,,,,,,6129099d13dfae11546b0a08,Mężczyzna,40,2021-09-06_18h32.04.360,rantool2,2021.1.4,Win32,60.0240096,6135e006383e6ea6c3d06a28,61364268e0b28d30957e71a7,"[""comma""]",0,[1.2849999999999966],13,0,13,0,1
,,,,,,,6129099d13dfae11546b0a08,,,,,,6129099d13dfae11546b0a08,Mężczyzna,40,2021-09-06_18h32.04.360,rantool2,2021.1.4,Win32,60.0240096,6135e006383e6ea6c3d06a28,61364268e0b28d30957e71a7,"[""period""]",0,[0.5080000000000098],14,0,14,0,1
,,,,,,,6129099d13dfae11546b0a08,,,,,,6129099d13dfae11546b0a08,Mężczyzna,40,2021-09-06_18h32.04.360,rantool2,2021.1.4,Win32,60.0240096,6135e006383e6ea6c3d06a28,61364268e0b28d30957e71a7,"[""comma""]",0,[0.2669999999999959],15,0,15,0,1
,,,,,,,6129099d13dfae11546b0a08,,,,,,6129099d13dfae11546b0a08,Mężczyzna,40,2021-09-06_18h32.04.360,rantool2,2021.1.4,Win32,60.0240096,6135e006383e6ea6c3d06a28,61364268e0b28d30957e71a7,"[""comma""]",0,[0.22800000000000864],16,0,16,0,1
,,,,,,,6129099d13dfae11546b0a08,,,,,,6129099d13dfae11546b0a08,Mężczyzna,40,2021-09-06_18h32.04.360,rantool2,2021.1.4,Win32,60.0240096,6135e006383e6ea6c3d06a28,61364268e0b28d30957e71a7,"[""period"",""period""]",0,"[0.24399999999999977,1.8859999999999957]",17,0,17,0,1
,,,,,,,6129099d13dfae11546b0a08,,,,,,6129099d13dfae11546b0a08,Mężczyzna,40,2021-09-06_18h32.04.360,rantool2,2021.1.4,Win32,60.0240096,6135e006383e6ea6c3d06a28,61364268e0b28d30957e71a7,0,0,,18,0,18,0,1
,,,,,,,6129099d13dfae11546b0a08,,,,,,6129099d13dfae11546b0a08,Mężczyzna,40,2021-09-06_18h32.04.360,rantool2,2021.1.4,Win32,60.0240096,6135e006383e6ea6c3d06a28,61364268e0b28d30957e71a7,"[""period"",""period""]",0,"[0.27600000000001046,1.9809999999999945]",19,0,19,0,1
,,,,,,,6129099d13dfae11546b0a08,,,,,,6129099d13dfae11546b0a08,Mężczyzna,40,2021-09-06_18h32.04.360,rantool2,2021.1.4,Win32,60.0240096,6135e006383e6ea6c3d06a28,61364268e0b28d30957e71a7,"[""comma""]",0,[1.4120000000000061],20,0,20,0,1
,,,,,,,6129099d13dfae11546b0a08,,,,,,6129099d13dfae11546b0a08,Mężczyzna,40,2021-09-06_18h32.04.360,rantool2,2021.1.4,Win32,60.0240096,6135e006383e6ea6c3d06a28,61364268e0b28d30957e71a7,"[""period""]",0,[1.1189999999999998],21,0,21,0,1
,,,,,,,6129099d13dfae11546b0a08,,,,,,6129099d13dfae11546b0a08,Mężczyzna,40,2021-09-06_18h32.04.360,rantool2,2021.1.4,Win32,60.0240096,6135e006383e6ea6c3d06a28,61364268e0b28d30957e71a7,"[""comma""]",0,[0.36299999999999955],22,0,22,0,1
,,,,,,,6129099d13dfae11546b0a08,,,,,,6129099d13dfae11546b0a08,Mężczyzna,40,2021-09-06_18h32.04.360,rantool2,2021.1.4,Win32,60.0240096,6135e006383e6ea6c3d06a28,61364268e0b28d30957e71a7,"[""comma""]",0,[0.30100000000001614],23,0,23,0,1
,,,,,,,6129099d13dfae11546b0a08,,,,,,6129099d13dfae11546b0a08,Mężczyzna,40,2021-09-06_18h32.04.360,rantool2,2021.1.4,Win32,60.0240096,6135e006383e6ea6c3d06a28,61364268e0b28d30957e71a7,"[""period""]",0,[0.23500000000001364],24,0,24,0,1
,,,,,,,6129099d13dfae11546b0a08,,,,,,6129099d13dfae11546b0a08,Mężczyzna,40,2021-09-06_18h32.04.360,rantool2,2021.1.4,Win32,60.0240096,6135e006383e6ea6c3d06a28,61364268e0b28d30957e71a7,"[""comma""]",0,[0.5550000000000068],25,0,25,0,1
,,,,,,,6129099d13dfae11546b0a08,,,,,,6129099d13dfae11546b0a08,Mężczyzna,40,2021-09-06_18h32.04.360,rantool2,2021.1.4,Win32,60.0240096,6135e006383e6ea6c3d06a28,61364268e0b28d30957e71a7,"[""comma""]",0,[0.3230000000000075],26,0,26,0,1
,,,,,,,6129099d13dfae11546b0a08,,,,,,6129099d13dfae11546b0a08,Mężczyzna,40,2021-09-06_18h32.04.360,rantool2,2021.1.4,Win32,60.0240096,6135e006383e6ea6c3d06a28,61364268e0b28d30957e71a7,"[""period"",""period""]",0,"[0.25200000000000955,1.6520000000000152]",27,0,27,0,1
,,,,,,,6129099d13dfae11546b0a08,,,,,,6129099d13dfae11546b0a08,Mężczyzna,40,2021-09-06_18h32.04.360,rantool2,2021.1.4,Win32,60.0240096,6135e006383e6ea6c3d06a28,61364268e0b28d30957e71a7,"[""comma""]",0,[1.108000000000004],28,0,28,0,1
,,,,,,,6129099d13dfae11546b0a08,,,,,,6129099d13dfae11546b0a08,Mężczyzna,40,2021-09-06_18h32.04.360,rantool2,2021.1.4,Win32,60.0240096,6135e006383e6ea6c3d06a28,61364268e0b28d30957e71a7,"[""period""]",0,[0.367999999999995],29,0,29,0,1
,,,,,,,6129099d13dfae11546b0a08,,,,,,6129099d13dfae11546b0a08,Mężczyzna,40,2021-09-06_18h32.04.360,rantool2,2021.1.4,Win32,60.0240096,6135e006383e6ea6c3d06a28,61364268e0b28d30957e71a7,"[""comma"",""period""]",0,"[0.35599999999999454,1.9399999999999977]",30,0,30,0,1
,,,,,,,6129099d13dfae11546b0a08,,,,,,6129099d13dfae11546b0a08,Mężczyzna,40,2021-09-06_18h32.04.360,rantool2,2021.1.4,Win32,60.0240096,6135e006383e6ea6c3d06a28,61364268e0b28d30957e71a7,"[""comma""]",0,[1.5800000000000125],31,0,31,0,1
,,,,,,,6129099d13dfae11546b0a08,,,,,,6129099d13dfae11546b0a08,Mężczyzna,40,2021-09-06_18h32.04.360,rantool2,2021.1.4,Win32,60.0240096,6135e006383e6ea6c3d06a28,61364268e0b28d30957e71a7,"[""comma""]",0,[1.5380000000000393],32,0,32,0,1
,,,,,,,6129099d13dfae11546b0a08,,,,,,6129099d13dfae11546b0a08,Mężczyzna,40,2021-09-06_18h32.04.360,rantool2,2021.1.4,Win32,60.0240096,6135e006383e6ea6c3d06a28,61364268e0b28d30957e71a7,"[""period""]",0,[1.0909999999999513],33,0,33,0,1
,,,,,,,6129099d13dfae11546b0a08,,,,,,6129099d13dfae11546b0a08,Mężczyzna,40,2021-09-06_18h32.04.360,rantool2,2021.1.4,Win32,60.0240096,6135e006383e6ea6c3d06a28,61364268e0b28d30957e71a7,"[""period""]",0,[1.225999999999999],34,0,34,0,1
,,,,,,,6129099d13dfae11546b0a08,,,,,,6129099d13dfae11546b0a08,Mężczyzna,40,2021-09-06_18h32.04.360,rantool2,2021.1.4,Win32,60.0240096,6135e006383e6ea6c3d06a28,61364268e0b28d30957e71a7,"[""comma""]",0,[0.7939999999999827],35,0,35,0,1
,,,,,,,6129099d13dfae11546b0a08,,,,,,6129099d13dfae11546b0a08,Mężczyzna,40,2021-09-06_18h32.04.360,rantool2,2021.1.4,Win32,60.0240096,6135e006383e6ea6c3d06a28,61364268e0b28d30957e71a7,"[""comma""]",0,[0.9959999999999809],36,0,36,0,1
,,,,,,,6129099d13dfae11546b0a08,,,,,,6129099d13dfae11546b0a08,Mężczyzna,40,2021-09-06_18h32.04.360,rantool2,2021.1.4,Win32,60.0240096,6135e006383e6ea6c3d06a28,61364268e0b28d30957e71a7,"[""comma""]",0,[0.6200000000000045],37,0,37,0,1
,,,,,,,6129099d13dfae11546b0a08,,,,,,6129099d13dfae11546b0a08,Mężczyzna,40,2021-09-06_18h32.04.360,rantool2,2021.1.4,Win32,60.0240096,6135e006383e6ea6c3d06a28,61364268e0b28d30957e71a7,"[""period""]",0,[0.42799999999999727],38,0,38,0,1
,,,,,,,6129099d13dfae11546b0a08,,,,,,6129099d13dfae11546b0a08,Mężczyzna,40,2021-09-06_18h32.04.360,rantool2,2021.1.4,Win32,60.0240096,6135e006383e6ea6c3d06a28,61364268e0b28d30957e71a7,"[""period"",""comma""]",0,"[0.5779999999999745,1.9709999999999468]",39,0,39,0,1
,,,,,,,6129099d13dfae11546b0a08,,,,,,6129099d13dfae11546b0a08,Mężczyzna,40,2021-09-06_18h32.04.360,rantool2,2021.1.4,Win32,60.0240096,6135e006383e6ea6c3d06a28,61364268e0b28d30957e71a7,"[""period""]",0,[1.7959999999999923],40,0,40,0,1
,,,,,,,6129099d13dfae11546b0a08,,,,,,6129099d13dfae11546b0a08,Mężczyzna,40,2021-09-06_18h32.04.360,rantool2,2021.1.4,Win32,60.0240096,6135e006383e6ea6c3d06a28,61364268e0b28d30957e71a7,0,0,,41,0,41,0,1
,,,,,,,6129099d13dfae11546b0a08,,,,,,6129099d13dfae11546b0a08,Mężczyzna,40,2021-09-06_18h32.04.360,rantool2,2021.1.4,Win32,60.0240096,6135e006383e6ea6c3d06a28,61364268e0b28d30957e71a7,"[""comma"",""period""]",0,"[0.4440000000000168,1.5230000000000246]",42,0,42,0,1
,,,,,,,6129099d13dfae11546b0a08,,,,,,6129099d13dfae11546b0a08,Mężczyzna,40,2021-09-06_18h32.04.360,rantool2,2021.1.4,Win32,60.0240096,6135e006383e6ea6c3d06a28,61364268e0b28d30957e71a7,"[""period""]",0,[1.117999999999995],43,0,43,0,1
,,,,,,,6129099d13dfae11546b0a08,,,,,,6129099d13dfae11546b0a08,Mężczyzna,40,2021-09-06_18h32.04.360,rantool2,2021.1.4,Win32,60.0240096,6135e006383e6ea6c3d06a28,61364268e0b28d30957e71a7,"[""period""]",0,[0.922999999999945],44,0,44,0,1
,,,,,,,6129099d13dfae11546b0a08,,,,,,6129099d13dfae11546b0a08,Mężczyzna,40,2021-09-06_18h32.04.360,rantool2,2021.1.4,Win32,60.0240096,6135e006383e6ea6c3d06a28,61364268e0b28d30957e71a7,"[""comma""]",0,[0.46800000000001774],45,0,45,0,1
,,,,,,,6129099d13dfae11546b0a08,,,,,,6129099d13dfae11546b0a08,Mężczyzna,40,2021-09-06_18h32.04.360,rantool2,2021.1.4,Win32,60.0240096,6135e006383e6ea6c3d06a28,61364268e0b28d30957e71a7,"[""comma"",""period""]",0,"[0.42099999999999227,1.7959999999999923]",46,0,46,0,1
,,,,,,,6129099d13dfae11546b0a08,,,,,,6129099d13dfae11546b0a08,Mężczyzna,40,2021-09-06_18h32.04.360,rantool2,2021.1.4,Win32,60.0240096,6135e006383e6ea6c3d06a28,61364268e0b28d30957e71a7,"[""period""]",0,[1.7630000000000337],47,0,47,0,1
,,,,,,,6129099d13dfae11546b0a08,,,,,,6129099d13dfae11546b0a08,Mężczyzna,40,2021-09-06_18h32.04.360,rantool2,2021.1.4,Win32,60.0240096,6135e006383e6ea6c3d06a28,61364268e0b28d30957e71a7,"[""comma""]",0,[1.225999999999999],48,0,48,0,1
,,,,,,,6129099d13dfae11546b0a08,,,,,,6129099d13dfae11546b0a08,Mężczyzna,40,2021-09-06_18h32.04.360,rantool2,2021.1.4,Win32,60.0240096,6135e006383e6ea6c3d06a28,61364268e0b28d30957e71a7,"[""period""]",0,[0.978999999999985],49,0,49,0,1
,,,,,,,6129099d13dfae11546b0a08,,,,,,6129099d13dfae11546b0a08,Mężczyzna,40,2021-09-06_18h32.04.360,rantool2,2021.1.4,Win32,60.0240096,6135e006383e6ea6c3d06a28,61364268e0b28d30957e71a7,"[""period"",""comma""]",0,"[0.6689999999999827,1.9710000000000036]",50,0,50,0,1
,,,,,,,6129099d13dfae11546b0a08,,,,,,6129099d13dfae11546b0a08,Mężczyzna,40,2021-09-06_18h32.04.360,rantool2,2021.1.4,Win32,60.0240096,6135e006383e6ea6c3d06a28,61364268e0b28d30957e71a7,"[""period""]",0,[1.2280000000000086],51,0,51,0,1
,,,,,,,6129099d13dfae11546b0a08,,,,,,6129099d13dfae11546b0a08,Mężczyzna,40,2021-09-06_18h32.04.360,rantool2,2021.1.4,Win32,60.0240096,6135e006383e6ea6c3d06a28,61364268e0b28d30957e71a7,"[""comma""]",0,[0.49099999999998545],52,0,52,0,1
,,,,,,,6129099d13dfae11546b0a08,,,,,,6129099d13dfae11546b0a08,Mężczyzna,40,2021-09-06_18h32.04.360,rantool2,2021.1.4,Win32,60.0240096,6135e006383e6ea6c3d06a28,61364268e0b28d30957e71a7,"[""comma""]",0,[0.4200000000000159],53,0,53,0,1
,,,,,,,6129099d13dfae11546b0a08,,,,,,6129099d13dfae11546b0a08,Mężczyzna,40,2021-09-06_18h32.04.360,rantool2,2021.1.4,Win32,60.0240096,6135e006383e6ea6c3d06a28,61364268e0b28d30957e71a7,"[""comma"",""period""]",0,"[0.5020000000000095,1.853999999999985]",54,0,54,0,1
,,,,,,,6129099d13dfae11546b0a08,,,,,,6129099d13dfae11546b0a08,Mężczyzna,40,2021-09-06_18h32.04.360,rantool2,2021.1.4,Win32,60.0240096,6135e006383e6ea6c3d06a28,61364268e0b28d30957e71a7,"[""comma""]",0,[1.2520000000000095],55,0,55,0,1
,,,,,,,6129099d13dfae11546b0a08,,,,,,6129099d13dfae11546b0a08,Mężczyzna,40,2021-09-06_18h32.04.360,rantool2,2021.1.4,Win32,60.0240096,6135e006383e6ea6c3d06a28,61364268e0b28d30957e71a7,"[""period""]",0,[0.6170000000000186],56,0,56,0,1
,,,,,,,6129099d13dfae11546b0a08,,,,,,6129099d13dfae11546b0a08,Mężczyzna,40,2021-09-06_18h32.04.360,rantool2,2021.1.4,Win32,60.0240096,6135e006383e6ea6c3d06a28,61364268e0b28d30957e71a7,"[""comma""]",0,[0.4350000000000023],57,0,57,0,1
,,,,,,,6129099d13dfae11546b0a08,,,,,,6129099d13dfae11546b0a08,Mężczyzna,40,2021-09-06_18h32.04.360,rantool2,2021.1.4,Win32,60.0240096,6135e006383e6ea6c3d06a28,61364268e0b28d30957e71a7,"[""period"",""period""]",0,"[0.13899999999995316,1.745999999999981]",58,0,58,0,1
,,,,,,,6129099d13dfae11546b0a08,,,,,,6129099d13dfae11546b0a08,Mężczyzna,40,2021-09-06_18h32.04.360,rantool2,2021.1.4,Win32,60.0240096,6135e006383e6ea6c3d06a28,61364268e0b28d30957e71a7,"[""period""]",0,[1.1520000000000437],59,0,59,0,1
,,,,,,,6129099d13dfae11546b0a08,,,,,,6129099d13dfae11546b0a08,Mężczyzna,40,2021-09-06_18h32.04.360,rantool2,2021.1.4,Win32,60.0240096,6135e006383e6ea6c3d06a28,61364268e0b28d30957e71a7,"[""comma""]",0,[0.45699999999999363],60,0,60,0,1
,,,,,,,6129099d13dfae11546b0a08,,,,,,6129099d13dfae11546b0a08,Mężczyzna,40,2021-09-06_18h32.04.360,rantool2,2021.1.4,Win32,60.0240096,6135e006383e6ea6c3d06a28,61364268e0b28d30957e71a7,"[""period""]",0,[0.353999999999985],61,0,61,0,1
,,,,,,,6129099d13dfae11546b0a08,,,,,,6129099d13dfae11546b0a08,Mężczyzna,40,2021-09-06_18h32.04.360,rantool2,2021.1.4,Win32,60.0240096,6135e006383e6ea6c3d06a28,61364268e0b28d30957e71a7,"[""comma"",""comma""]",0,"[0.2909999999999968,1.5219999999999914]",62,0,62,0,1
,,,,,,,6129099d13dfae11546b0a08,,,,,,6129099d13dfae11546b0a08,Mężczyzna,40,2021-09-06_18h32.04.360,rantool2,2021.1.4,Win32,60.0240096,6135e006383e6ea6c3d06a28,61364268e0b28d30957e71a7,"[""period""]",0,[1.8109999999999786],63,0,63,0,1
,,,,,,,6129099d13dfae11546b0a08,,,,,,6129099d13dfae11546b0a08,Mężczyzna,40,2021-09-06_18h32.04.360,rantool2,2021.1.4,Win32,60.0240096,6135e006383e6ea6c3d06a28,61364268e0b28d30957e71a7,"[""comma""]",0,[1.9230000000000018],64,0,64,0,1
,,,,,,,6129099d13dfae11546b0a08,,,,,,6129099d13dfae11546b0a08,Mężczyzna,40,2021-09-06_18h32.04.360,rantool2,2021.1.4,Win32,60.0240096,6135e006383e6ea6c3d06a28,61364268e0b28d30957e71a7,0,0,,65,0,65,0,1
,,,,,,,6129099d13dfae11546b0a08,,,,,,6129099d13dfae11546b0a08,Mężczyzna,40,2021-09-06_18h32.04.360,rantool2,2021.1.4,Win32,60.0240096,6135e006383e6ea6c3d06a28,61364268e0b28d30957e71a7,"[""period""]",0,[0.2750000000000341],66,0,66,0,1
,,,,,,,6129099d13dfae11546b0a08,,,,,,6129099d13dfae11546b0a08,Mężczyzna,40,2021-09-06_18h32.04.360,rantool2,2021.1.4,Win32,60.0240096,6135e006383e6ea6c3d06a28,61364268e0b28d30957e71a7,"[""comma""]",0,[0.33299999999997],67,0,67,0,1
,,,,,,,6129099d13dfae11546b0a08,,,,,,6129099d13dfae11546b0a08,Mężczyzna,40,2021-09-06_18h32.04.360,rantool2,2021.1.4,Win32,60.0240096,6135e006383e6ea6c3d06a28,61364268e0b28d30957e71a7,"[""comma""]",0,[0.4359999999999786],68,0,68,0,1
,,,,,,,6129099d13dfae11546b0a08,,,,,,6129099d13dfae11546b0a08,Mężczyzna,40,2021-09-06_18h32.04.360,rantool2,2021.1.4,Win32,60.0240096,6135e006383e6ea6c3d06a28,61364268e0b28d30957e71a7,"[""period""]",0,[0.2189999999999941],69,0,69,0,1
,,,,,,,6129099d13dfae11546b0a08,,,,,,6129099d13dfae11546b0a08,Mężczyzna,40,2021-09-06_18h32.04.360,rantool2,2021.1.4,Win32,60.0240096,6135e006383e6ea6c3d06a28,61364268e0b28d30957e71a7,"[""period""]",0,[0.1169999999999618],70,0,70,0,1
,,,,,,,6129099d13dfae11546b0a08,,,,,,6129099d13dfae11546b0a08,Mężczyzna,40,2021-09-06_18h32.04.360,rantool2,2021.1.4,Win32,60.0240096,6135e006383e6ea6c3d06a28,61364268e0b28d30957e71a7,"[""comma""]",0,[0.4889999999999759],71,0,71,0,1
,,,,,,,6129099d13dfae11546b0a08,,,,,,6129099d13dfae11546b0a08,Mężczyzna,40,2021-09-06_18h32.04.360,rantool2,2021.1.4,Win32,60.0240096,6135e006383e6ea6c3d06a28,61364268e0b28d30957e71a7,"[""period""]",0,[0.353999999999985],72,0,72,0,1
,,,,,,,6129099d13dfae11546b0a08,,,,,,6129099d13dfae11546b0a08,Mężczyzna,40,2021-09-06_18h32.04.360,rantool2,2021.1.4,Win32,60.0240096,6135e006383e6ea6c3d06a28,61364268e0b28d30957e71a7,"[""period""]",0,[0.3219999999999459],73,0,73,0,1
,,,,,,,6129099d13dfae11546b0a08,,,,,,6129099d13dfae11546b0a08,Mężczyzna,40,2021-09-06_18h32.04.360,rantool2,2021.1.4,Win32,60.0240096,6135e006383e6ea6c3d06a28,61364268e0b28d30957e71a7,"[""period"",""comma""]",0,"[0.3849999999999909,1.6339999999999577]",74,0,74,0,1
,,,,,,,6129099d13dfae11546b0a08,,,,,,6129099d13dfae11546b0a08,Mężczyzna,40,2021-09-06_18h32.04.360,rantool2,2021.1.4,Win32,60.0240096,6135e006383e6ea6c3d06a28,61364268e0b28d30957e71a7,"[""comma""]",0,[1.0179999999999723],75,0,75,0,1
,,,,,,,6129099d13dfae11546b0a08,,,,,,6129099d13dfae11546b0a08,Mężczyzna,40,2021-09-06_18h32.04.360,rantool2,2021.1.4,Win32,60.0240096,6135e006383e6ea6c3d06a28,61364268e0b28d30957e71a7,"[""period""]",0,[0.7950000000000159],76,0,76,0,1
,,,,,,,6129099d13dfae11546b0a08,,,,,,6129099d13dfae11546b0a08,Mężczyzna,40,2021-09-06_18h32.04.360,rantool2,2021.1.4,Win32,60.0240096,6135e006383e6ea6c3d06a28,61364268e0b28d30957e71a7,"[""comma"",""comma""]",0,"[0.285000000000025,1.7789999999999964]",77,0,77,0,1
,,,,,,,6129099d13dfae11546b0a08,,,,,,6129099d13dfae11546b0a08,Mężczyzna,40,2021-09-06_18h32.04.360,rantool2,2021.1.4,Win32,60.0240096,6135e006383e6ea6c3d06a28,61364268e0b28d30957e71a7,"[""comma""]",0,[1.427000000000021],78,0,78,0,1
,,,,,,,6129099d13dfae11546b0a08,,,,,,6129099d13dfae11546b0a08,Mężczyzna,40,2021-09-06_18h32.04.360,rantool2,2021.1.4,Win32,60.0240096,6135e006383e6ea6c3d06a28,61364268e0b28d30957e71a7,"[""period""]",0,[0.8430000000000177],79,0,79,0,1
,,,,,,,6129099d13dfae11546b0a08,,,,,,6129099d13dfae11546b0a08,Mężczyzna,40,2021-09-06_18h32.04.360,rantool2,2021.1.4,Win32,60.0240096,6135e006383e6ea6c3d06a28,61364268e0b28d30957e71a7,"[""comma""]",0,[0.5459999999999923],80,0,80,0,1
,,,,,,,6129099d13dfae11546b0a08,,,,,,6129099d13dfae11546b0a08,Mężczyzna,40,2021-09-06_18h32.04.360,rantool2,2021.1.4,Win32,60.0240096,6135e006383e6ea6c3d06a28,61364268e0b28d30957e71a7,"[""period"",""period""]",0,"[0.20999999999997954,1.4259999999999877]",81,0,81,0,1
,,,,,,,6129099d13dfae11546b0a08,,,,,,6129099d13dfae11546b0a08,Mężczyzna,40,2021-09-06_18h32.04.360,rantool2,2021.1.4,Win32,60.0240096,6135e006383e6ea6c3d06a28,61364268e0b28d30957e71a7,"[""comma""]",0,[1.1229999999999905],82,0,82,0,1
,,,,,,,6129099d13dfae11546b0a08,,,,,,6129099d13dfae11546b0a08,Mężczyzna,40,2021-09-06_18h32.04.360,rantool2,2021.1.4,Win32,60.0240096,6135e006383e6ea6c3d06a28,61364268e0b28d30957e71a7,"[""period""]",0,[0.7470000000000141],83,0,83,0,1
,,,,,,,6129099d13dfae11546b0a08,,,,,,6129099d13dfae11546b0a08,Mężczyzna,40,2021-09-06_18h32.04.360,rantool2,2021.1.4,Win32,60.0240096,6135e006383e6ea6c3d06a28,61364268e0b28d30957e71a7,"[""period""]",0,[0.5009999999999764],84,0,84,0,1
,,,,,,,6129099d13dfae11546b0a08,,,,,,6129099d13dfae11546b0a08,Mężczyzna,40,2021-09-06_18h32.04.360,rantool2,2021.1.4,Win32,60.0240096,6135e006383e6ea6c3d06a28,61364268e0b28d30957e71a7,"[""comma"",""period""]",0,"[0.20999999999997954,1.5389999999999873]",85,0,85,0,1
,,,,,,,6129099d13dfae11546b0a08,,,,,,6129099d13dfae11546b0a08,Mężczyzna,40,2021-09-06_18h32.04.360,rantool2,2021.1.4,Win32,60.0240096,6135e006383e6ea6c3d06a28,61364268e0b28d30957e71a7,"[""comma""]",0,[1.8910000000000196],86,0,86,0,1
,,,,,,,6129099d13dfae11546b0a08,,,,,,6129099d13dfae11546b0a08,Mężczyzna,40,2021-09-06_18h32.04.360,rantool2,2021.1.4,Win32,60.0240096,6135e006383e6ea6c3d06a28,61364268e0b28d30957e71a7,"[""comma""]",0,[1.5769999999999982],87,0,87,0,1
,,,,,,,6129099d13dfae11546b0a08,,,,,,6129099d13dfae11546b0a08,Mężczyzna,40,2021-09-06_18h32.04.360,rantool2,2021.1.4,Win32,60.0240096,6135e006383e6ea6c3d06a28,61364268e0b28d30957e71a7,"[""period""]",0,[1.4349999999999454],88,0,88,0,1
,,,,,,,6129099d13dfae11546b0a08,,,,,,6129099d13dfae11546b0a08,Mężczyzna,40,2021-09-06_18h32.04.360,rantool2,2021.1.4,Win32,60.0240096,6135e006383e6ea6c3d06a28,61364268e0b28d30957e71a7,"[""comma""]",0,[0.7609999999999673],89,0,89,0,1
,,,,,,,6129099d13dfae11546b0a08,,,,,,6129099d13dfae11546b0a08,Mężczyzna,40,2021-09-06_18h32.04.360,rantool2,2021.1.4,Win32,60.0240096,6135e006383e6ea6c3d06a28,61364268e0b28d30957e71a7,"[""comma"",""comma""]",0,"[0.3459999999999468,1.9449999999999932]",90,0,90,0,1
,,,,,,,6129099d13dfae11546b0a08,,,,,,6129099d13dfae11546b0a08,Mężczyzna,40,2021-09-06_18h32.04.360,rantool2,2021.1.4,Win32,60.0240096,6135e006383e6ea6c3d06a28,61364268e0b28d30957e71a7,"[""period""]",0,[1.1370000000000005],91,0,91,0,1
,,,,,,,6129099d13dfae11546b0a08,,,,,,6129099d13dfae11546b0a08,Mężczyzna,40,2021-09-06_18h32.04.360,rantool2,2021.1.4,Win32,60.0240096,6135e006383e6ea6c3d06a28,61364268e0b28d30957e71a7,"[""comma""]",0,[0.5019999999999527],92,0,92,0,1
,,,,,,,6129099d13dfae11546b0a08,,,,,,6129099d13dfae11546b0a08,Mężczyzna,40,2021-09-06_18h32.04.360,rantool2,2021.1.4,Win32,60.0240096,6135e006383e6ea6c3d06a28,61364268e0b28d30957e71a7,"[""period""]",0,[0.34600000000000364],93,0,93,0,1
,,,,,,,6129099d13dfae11546b0a08,,,,,,6129099d13dfae11546b0a08,Mężczyzna,40,2021-09-06_18h32.04.360,rantool2,2021.1.4,Win32,60.0240096,6135e006383e6ea6c3d06a28,61364268e0b28d30957e71a7,"[""period"",""comma""]",0,"[0.25699999999994816,1.961999999999989]",94,0,94,0,1
,,,,,,,6129099d13dfae11546b0a08,,,,,,6129099d13dfae11546b0a08,Mężczyzna,40,2021-09-06_18h32.04.360,rantool2,2021.1.4,Win32,60.0240096,6135e006383e6ea6c3d06a28,61364268e0b28d30957e71a7,"[""period""]",0,[1.2200000000000273],95,0,95,0,1
,,,,,,,6129099d13dfae11546b0a08,,,,,,6129099d13dfae11546b0a08,Mężczyzna,40,2021-09-06_18h32.04.360,rantool2,2021.1.4,Win32,60.0240096,6135e006383e6ea6c3d06a28,61364268e0b28d30957e71a7,"[""period""]",0,[0.9379999999999882],96,0,96,0,1
,,,,,,,6129099d13dfae11546b0a08,,,,,,6129099d13dfae11546b0a08,Mężczyzna,40,2021-09-06_18h32.04.360,rantool2,2021.1.4,Win32,60.0240096,6135e006383e6ea6c3d06a28,61364268e0b28d30957e71a7,"[""comma"",""period""]",0,"[0.33799999999996544,1.7299999999999613]",97,0,97,0,1
,,,,,,,6129099d13dfae11546b0a08,,,,,,6129099d13dfae11546b0a08,Mężczyzna,40,2021-09-06_18h32.04.360,rantool2,2021.1.4,Win32,60.0240096,6135e006383e6ea6c3d06a28,61364268e0b28d30957e71a7,"[""comma""]",0,[1.5149999999999864],98,0,98,0,1
,,,,,,,6129099d13dfae11546b0a08,,,,,,6129099d13dfae11546b0a08,Mężczyzna,40,2021-09-06_18h32.04.360,rantool2,2021.1.4,Win32,60.0240096,6135e006383e6ea6c3d06a28,61364268e0b28d30957e71a7,"[""period""]",0,[0.8569999999999709],99,0,99,0,1
,,,,,,,6129099d13dfae11546b0a08,,,,,,6129099d13dfae11546b0a08,Mężczyzna,40,2021-09-06_18h32.04.360,rantool2,2021.1.4,Win32,60.0240096,6135e006383e6ea6c3d06a28,61364268e0b28d30957e71a7,"[""comma""]",0,[0.5219999999999914],100,0,100,0,1
,,,,,,,6129099d13dfae11546b0a08,,,,,,6129099d13dfae11546b0a08,Mężczyzna,40,2021-09-06_18h32.04.360,rantool2,2021.1.4,Win32,60.0240096,6135e006383e6ea6c3d06a28,61364268e0b28d30957e71a7,"[""period"",""comma""]",0,"[0.21100000000001273,1.684000000000026]",101,0,101,0,1
,,,,,,,6129099d13dfae11546b0a08,,,,,,6129099d13dfae11546b0a08,Mężczyzna,40,2021-09-06_18h32.04.360,rantool2,2021.1.4,Win32,60.0240096,6135e006383e6ea6c3d06a28,61364268e0b28d30957e71a7,"[""comma"",""comma"",""comma"",""comma"",""period""]",0,"[0.07299999999997908,0.5529999999999973,0.8509999999999991,1.1709999999999923,1.5369999999999777]",102,0,102,0,1
,,,,,,,6129099d13dfae11546b0a08,,,,,,6129099d13dfae11546b0a08,Mężczyzna,40,2021-09-06_18h32.04.360,rantool2,2021.1.4,Win32,60.0240096,6135e006383e6ea6c3d06a28,61364268e0b28d30957e71a7,"[""period"",""comma"",""period"",""comma""]",0,"[-0.005999999999971806,0.19400000000001683,0.4019999999999868,1.1469999999999914]",103,0,103,0,1
,,,,,,,6129099d13dfae11546b0a08,,,,,,6129099d13dfae11546b0a08,Mężczyzna,40,2021-09-06_18h32.04.360,rantool2,2021.1.4,Win32,60.0240096,6135e006383e6ea6c3d06a28,61364268e0b28d30957e71a7,"[""period"",""comma"",""comma""]",0,"[0.6809999999999832,1.30499999999995,1.5009999999999764]",104,0,104,0,1
,,,,,,,6129099d13dfae11546b0a08,,,,,,6129099d13dfae11546b0a08,Mężczyzna,40,2021-09-06_18h32.04.360,rantool2,2021.1.4,Win32,60.0240096,6135e006383e6ea6c3d06a28,61364268e0b28d30957e71a7,"[""period"",""period""]",0,"[0.6260000000000332,1.6190000000000282]",105,0,105,0,1
,,,,,,,6129099d13dfae11546b0a08,,,,,,6129099d13dfae11546b0a08,Mężczyzna,40,2021-09-06_18h32.04.360,rantool2,2021.1.4,Win32,60.0240096,6135e006383e6ea6c3d06a28,61364268e0b28d30957e71a7,"[""comma"",""comma""]",0,"[0.45800000000002683,1.9700000000000273]",106,0,106,0,1
,,,,,,,6129099d13dfae11546b0a08,,,,,,6129099d13dfae11546b0a08,Mężczyzna,40,2021-09-06_18h32.04.360,rantool2,2021.1.4,Win32,60.0240096,6135e006383e6ea6c3d06a28,61364268e0b28d30957e71a7,"[""period""]",0,[0.8369999999999891],107,0,107,0,1
,,,,,,,6129099d13dfae11546b0a08,,,,,,6129099d13dfae11546b0a08,Mężczyzna,40,2021-09-06_18h32.04.360,rantool2,2021.1.4,Win32,60.0240096,6135e006383e6ea6c3d06a28,61364268e0b28d30957e71a7,"[""comma"",""period""]",0,"[0.3380000000000223,1.468999999999994]",108,0,108,0,1
,,,,,,,6129099d13dfae11546b0a08,,,,,,6129099d13dfae11546b0a08,Mężczyzna,40,2021-09-06_18h32.04.360,rantool2,2021.1.4,Win32,60.0240096,6135e006383e6ea6c3d06a28,61364268e0b28d30957e71a7,"[""period"",""comma""]",0,"[0.32099999999996953,1.9769999999999754]",109,0,109,0,1
,,,,,,,6129099d13dfae11546b0a08,,,,,,6129099d13dfae11546b0a08,Mężczyzna,40,2021-09-06_18h32.04.360,rantool2,2021.1.4,Win32,60.0240096,6135e006383e6ea6c3d06a28,61364268e0b28d30957e71a7,"[""comma"",""comma""]",0,"[0.7529999999999859,1.6509999999999536]",110,0,110,0,1
,,,,,,,6129099d13dfae11546b0a08,,,,,,6129099d13dfae11546b0a08,Mężczyzna,40,2021-09-06_18h32.04.360,rantool2,2021.1.4,Win32,60.0240096,6135e006383e6ea6c3d06a28,61364268e0b28d30957e71a7,"[""period""]",0,[1.3310000000000173],111,0,111,0,1
,,,,,,,6129099d13dfae11546b0a08,,,,,,6129099d13dfae11546b0a08,Mężczyzna,40,2021-09-06_18h32.04.360,rantool2,2021.1.4,Win32,60.0240096,6135e006383e6ea6c3d06a28,61364268e0b28d30957e71a7,0,0,,112,0,112,0,1
,,,,,,,6129099d13dfae11546b0a08,,,,,,6129099d13dfae11546b0a08,Mężczyzna,40,2021-09-06_18h32.04.360,rantool2,2021.1.4,Win32,60.0240096,6135e006383e6ea6c3d06a28,61364268e0b28d30957e71a7,"[""comma"",""period""]",0,"[0.09000000000003183,1.2370000000000232]",113,0,113,0,1
,,,,,,,6129099d13dfae11546b0a08,,,,,,6129099d13dfae11546b0a08,Mężczyzna,40,2021-09-06_18h32.04.360,rantool2,2021.1.4,Win32,60.0240096,6135e006383e6ea6c3d06a28,61364268e0b28d30957e71a7,"[""period"",""comma""]",0,"[0.4259999999999877,1.7139999999999986]",114,0,114,0,1
,,,,,,,6129099d13dfae11546b0a08,,,,,,6129099d13dfae11546b0a08,Mężczyzna,40,2021-09-06_18h32.04.360,rantool2,2021.1.4,Win32,60.0240096,6135e006383e6ea6c3d06a28,61364268e0b28d30957e71a7,"[""period""]",0,[1.0509999999999877],115,0,115,0,1
,,,,,,,6129099d13dfae11546b0a08,,,,,,6129099d13dfae11546b0a08,Mężczyzna,40,2021-09-06_18h32.04.360,rantool2,2021.1.4,Win32,60.0240096,6135e006383e6ea6c3d06a28,61364268e0b28d30957e71a7,"[""comma""]",0,[0.5199999999999818],116,0,116,0,1
,,,,,,,6129099d13dfae11546b0a08,,,,,,6129099d13dfae11546b0a08,Mężczyzna,40,2021-09-06_18h32.04.360,rantool2,2021.1.4,Win32,60.0240096,6135e006383e6ea6c3d06a28,61364268e0b28d30957e71a7,"[""period"",""period"",""period"",""comma"",""comma""]",0,"[0.25799999999998136,0.5459999999999923,0.8520000000000323,1.3460000000000036,1.6739999999999782]",117,0,117,0,1
,,,,,,,6129099d13dfae11546b0a08,,,,,,6129099d13dfae11546b0a08,Mężczyzna,40,2021-09-06_18h32.04.360,rantool2,2021.1.4,Win32,60.0240096,6135e006383e6ea6c3d06a28,61364268e0b28d30957e71a7,"[""comma"",""period""]",0,"[1.217999999999961,1.850999999999999]",118,0,118,0,1
,,,,,,,6129099d13dfae11546b0a08,,,,,,6129099d13dfae11546b0a08,Mężczyzna,40,2021-09-06_18h32.04.360,rantool2,2021.1.4,Win32,60.0240096,6135e006383e6ea6c3d06a28,61364268e0b28d30957e71a7,"[""period""]",0,[0.992999999999995],119,0,119,0,1
