key_resp_7.keys,key_resp_7.rt,trials_2.thisRepN,trials_2.thisTrialN,trials_2.thisN,trials_2.thisIndex,trials_2.ran,id,series_0,series_1,acss_0,acss_1,comparison,id*,Płeć*,Wiek*,date,expName,psychopyVersion,OS,frameRate,STUDY_ID,SESSION_ID,key_resp_5.keys,key_resp_5.corr,key_resp_5.rt,trials.thisRepN,trials.thisTrialN,trials.thisN,trials.thisIndex,trials.ran
f,3.228,0,0,0,2,1,612925cb1db806a28c226d41,OOOOROO,OOOOROR,20.43051175,21.02936224,series_1,612925cb1db806a28c226d41,Kobieta,18,2021-09-06_19h07.22.210,rantool2,2021.1.4,Win32,59.94125757,6135e006383e6ea6c3d06a28,61364ab5ed6b4378241100f1,,,,,,,,
j,2.424,0,1,1,18,1,612925cb1db806a28c226d41,OROOROO,OROOROR,20.84860893,21.22513037,series_1,612925cb1db806a28c226d41,Kobieta,18,2021-09-06_19h07.22.210,rantool2,2021.1.4,Win32,59.94125757,6135e006383e6ea6c3d06a28,61364ab5ed6b4378241100f1,,,,,,,,
f,3.371,0,2,2,1,1,612925cb1db806a28c226d41,OOOOORO,OOOOORR,19.92253567,20.74050628,series_1,612925cb1db806a28c226d41,Kobieta,18,2021-09-06_19h07.22.210,rantool2,2021.1.4,Win32,59.94125757,6135e006383e6ea6c3d06a28,61364ab5ed6b4378241100f1,,,,,,,,
j,3.086,0,3,3,27,1,612925cb1db806a28c226d41,ORRORRO,ORRORRR,21.55250791,22.2428857,series_1,612925cb1db806a28c226d41,Kobieta,18,2021-09-06_19h07.22.210,rantool2,2021.1.4,Win32,59.94125757,6135e006383e6ea6c3d06a28,61364ab5ed6b4378241100f1,,,,,,,,
f,3.238,0,4,4,10,1,612925cb1db806a28c226d41,OOROROO,OOROROR,21.31236711,21.07490964,series_0,612925cb1db806a28c226d41,Kobieta,18,2021-09-06_19h07.22.210,rantool2,2021.1.4,Win32,59.94125757,6135e006383e6ea6c3d06a28,61364ab5ed6b4378241100f1,,,,,,,,
j,3.047,0,5,5,40,1,612925cb1db806a28c226d41,ROROOOO,ROROOOR,20.87963819,21.37121559,series_1,612925cb1db806a28c226d41,Kobieta,18,2021-09-06_19h07.22.210,rantool2,2021.1.4,Win32,59.94125757,6135e006383e6ea6c3d06a28,61364ab5ed6b4378241100f1,,,,,,,,
j,2.57,0,6,6,9,1,612925cb1db806a28c226d41,OOROORO,OOROORR,21.07991943,22.2428857,series_1,612925cb1db806a28c226d41,Kobieta,18,2021-09-06_19h07.22.210,rantool2,2021.1.4,Win32,59.94125757,6135e006383e6ea6c3d06a28,61364ab5ed6b4378241100f1,,,,,,,,
f,2.756,0,7,7,60,1,612925cb1db806a28c226d41,RRRROOO,RRRROOR,22.10108823,22.15934078,series_1,612925cb1db806a28c226d41,Kobieta,18,2021-09-06_19h07.22.210,rantool2,2021.1.4,Win32,59.94125757,6135e006383e6ea6c3d06a28,61364ab5ed6b4378241100f1,,,,,,,,
f,2.839,0,8,8,58,1,612925cb1db806a28c226d41,RRROROO,RRROROR,22.1285618,21.37121559,series_0,612925cb1db806a28c226d41,Kobieta,18,2021-09-06_19h07.22.210,rantool2,2021.1.4,Win32,59.94125757,6135e006383e6ea6c3d06a28,61364ab5ed6b4378241100f1,,,,,,,,
j,2.33,0,9,9,55,1,612925cb1db806a28c226d41,RRORRRO,RRORRRR,21.56657303,21.21223021,series_0,612925cb1db806a28c226d41,Kobieta,18,2021-09-06_19h07.22.210,rantool2,2021.1.4,Win32,59.94125757,6135e006383e6ea6c3d06a28,61364ab5ed6b4378241100f1,,,,,,,,
f,1.627,0,10,10,61,1,612925cb1db806a28c226d41,RRRRORO,RRRRORR,21.81333602,21.17347734,series_0,612925cb1db806a28c226d41,Kobieta,18,2021-09-06_19h07.22.210,rantool2,2021.1.4,Win32,59.94125757,6135e006383e6ea6c3d06a28,61364ab5ed6b4378241100f1,,,,,,,,
j,1.416,0,11,11,32,1,612925cb1db806a28c226d41,ROOOOOO,ROOOOOR,19.92253567,21.27974287,series_1,612925cb1db806a28c226d41,Kobieta,18,2021-09-06_19h07.22.210,rantool2,2021.1.4,Win32,59.94125757,6135e006383e6ea6c3d06a28,61364ab5ed6b4378241100f1,,,,,,,,
f,2.444,0,12,12,62,1,612925cb1db806a28c226d41,RRRRROO,RRRRROR,22.16413392,21.27974287,series_0,612925cb1db806a28c226d41,Kobieta,18,2021-09-06_19h07.22.210,rantool2,2021.1.4,Win32,59.94125757,6135e006383e6ea6c3d06a28,61364ab5ed6b4378241100f1,,,,,,,,
j,1.367,0,13,13,16,1,612925cb1db806a28c226d41,OROOOOO,OROOOOR,20.43051175,21.17347734,series_1,612925cb1db806a28c226d41,Kobieta,18,2021-09-06_19h07.22.210,rantool2,2021.1.4,Win32,59.94125757,6135e006383e6ea6c3d06a28,61364ab5ed6b4378241100f1,,,,,,,,
f,3.877,0,14,14,46,1,612925cb1db806a28c226d41,RORRROO,RORRROR,22.00300695,21.24781509,series_0,612925cb1db806a28c226d41,Kobieta,18,2021-09-06_19h07.22.210,rantool2,2021.1.4,Win32,59.94125757,6135e006383e6ea6c3d06a28,61364ab5ed6b4378241100f1,,,,,,,,
j,2.485,0,15,15,34,1,612925cb1db806a28c226d41,ROOOROO,ROOOROR,21.03750787,21.24781509,series_1,612925cb1db806a28c226d41,Kobieta,18,2021-09-06_19h07.22.210,rantool2,2021.1.4,Win32,59.94125757,6135e006383e6ea6c3d06a28,61364ab5ed6b4378241100f1,,,,,,,,
f,1.807,0,16,16,11,1,612925cb1db806a28c226d41,OORORRO,OORORRR,22.18365867,22.6797523,series_1,612925cb1db806a28c226d41,Kobieta,18,2021-09-06_19h07.22.210,rantool2,2021.1.4,Win32,59.94125757,6135e006383e6ea6c3d06a28,61364ab5ed6b4378241100f1,,,,,,,,
j,1.263,0,17,17,50,1,612925cb1db806a28c226d41,RROOROO,RROOROR,21.73568164,22.02566557,series_1,612925cb1db806a28c226d41,Kobieta,18,2021-09-06_19h07.22.210,rantool2,2021.1.4,Win32,59.94125757,6135e006383e6ea6c3d06a28,61364ab5ed6b4378241100f1,,,,,,,,
f,1.608,0,18,18,57,1,612925cb1db806a28c226d41,RRROORO,RRROORR,21.82425538,22.07102821,series_1,612925cb1db806a28c226d41,Kobieta,18,2021-09-06_19h07.22.210,rantool2,2021.1.4,Win32,59.94125757,6135e006383e6ea6c3d06a28,61364ab5ed6b4378241100f1,,,,,,,,
j,1.152,0,19,19,43,1,612925cb1db806a28c226d41,RORORRO,RORORRR,20.71309134,21.07490964,series_1,612925cb1db806a28c226d41,Kobieta,18,2021-09-06_19h07.22.210,rantool2,2021.1.4,Win32,59.94125757,6135e006383e6ea6c3d06a28,61364ab5ed6b4378241100f1,,,,,,,,
f,1.072,0,20,20,17,1,612925cb1db806a28c226d41,OROOORO,OROOORR,21.03750787,22.12173012,series_1,612925cb1db806a28c226d41,Kobieta,18,2021-09-06_19h07.22.210,rantool2,2021.1.4,Win32,59.94125757,6135e006383e6ea6c3d06a28,61364ab5ed6b4378241100f1,,,,,,,,
j,1.321,0,21,21,14,1,612925cb1db806a28c226d41,OORRROO,OORRROR,22.24142883,22.16977179,series_0,612925cb1db806a28c226d41,Kobieta,18,2021-09-06_19h07.22.210,rantool2,2021.1.4,Win32,59.94125757,6135e006383e6ea6c3d06a28,61364ab5ed6b4378241100f1,,,,,,,,
j,1.476,0,22,22,22,1,612925cb1db806a28c226d41,ORORROO,ORORROR,22.02732763,21.57657071,series_0,612925cb1db806a28c226d41,Kobieta,18,2021-09-06_19h07.22.210,rantool2,2021.1.4,Win32,59.94125757,6135e006383e6ea6c3d06a28,61364ab5ed6b4378241100f1,,,,,,,,
f,1.159,0,23,23,25,1,612925cb1db806a28c226d41,ORROORO,ORROORR,21.79500819,22.61624387,series_1,612925cb1db806a28c226d41,Kobieta,18,2021-09-06_19h07.22.210,rantool2,2021.1.4,Win32,59.94125757,6135e006383e6ea6c3d06a28,61364ab5ed6b4378241100f1,,,,,,,,
f,0.951,0,24,24,28,1,612925cb1db806a28c226d41,ORRROOO,ORRROOR,22.24142883,22.53364006,series_1,612925cb1db806a28c226d41,Kobieta,18,2021-09-06_19h07.22.210,rantool2,2021.1.4,Win32,59.94125757,6135e006383e6ea6c3d06a28,61364ab5ed6b4378241100f1,,,,,,,,
f,2.236,0,25,25,7,1,612925cb1db806a28c226d41,OOORRRO,OOORRRR,21.6194508,21.899017,series_1,612925cb1db806a28c226d41,Kobieta,18,2021-09-06_19h07.22.210,rantool2,2021.1.4,Win32,59.94125757,6135e006383e6ea6c3d06a28,61364ab5ed6b4378241100f1,,,,,,,,
f,1.293,0,26,26,44,1,612925cb1db806a28c226d41,RORROOO,RORROOR,21.66733484,22.02566557,series_1,612925cb1db806a28c226d41,Kobieta,18,2021-09-06_19h07.22.210,rantool2,2021.1.4,Win32,59.94125757,6135e006383e6ea6c3d06a28,61364ab5ed6b4378241100f1,,,,,,,,
j,0.835,0,27,27,56,1,612925cb1db806a28c226d41,RRROOOO,RRROOOR,21.6194508,22.31681875,series_1,612925cb1db806a28c226d41,Kobieta,18,2021-09-06_19h07.22.210,rantool2,2021.1.4,Win32,59.94125757,6135e006383e6ea6c3d06a28,61364ab5ed6b4378241100f1,,,,,,,,
f,1.902,0,28,28,42,1,612925cb1db806a28c226d41,ROROROO,ROROROR,20.39515459,19.8361834,series_0,612925cb1db806a28c226d41,Kobieta,18,2021-09-06_19h07.22.210,rantool2,2021.1.4,Win32,59.94125757,6135e006383e6ea6c3d06a28,61364ab5ed6b4378241100f1,,,,,,,,
f,1.54,0,29,29,23,1,612925cb1db806a28c226d41,ORORRRO,ORORRRR,22.1285618,21.9921709,series_0,612925cb1db806a28c226d41,Kobieta,18,2021-09-06_19h07.22.210,rantool2,2021.1.4,Win32,59.94125757,6135e006383e6ea6c3d06a28,61364ab5ed6b4378241100f1,,,,,,,,
j,1.168,0,30,30,19,1,612925cb1db806a28c226d41,OROORRO,OROORRR,21.73568164,22.11181017,series_1,612925cb1db806a28c226d41,Kobieta,18,2021-09-06_19h07.22.210,rantool2,2021.1.4,Win32,59.94125757,6135e006383e6ea6c3d06a28,61364ab5ed6b4378241100f1,,,,,,,,
f,2.67,0,31,31,13,1,612925cb1db806a28c226d41,OORRORO,OORRORR,21.66733484,22.11181017,series_1,612925cb1db806a28c226d41,Kobieta,18,2021-09-06_19h07.22.210,rantool2,2021.1.4,Win32,59.94125757,6135e006383e6ea6c3d06a28,61364ab5ed6b4378241100f1,,,,,,,,
j,1.551,0,32,32,15,1,612925cb1db806a28c226d41,OORRRRO,OORRRRR,22.10108823,21.74922619,series_0,612925cb1db806a28c226d41,Kobieta,18,2021-09-06_19h07.22.210,rantool2,2021.1.4,Win32,59.94125757,6135e006383e6ea6c3d06a28,61364ab5ed6b4378241100f1,,,,,,,,
j,1.423,0,33,33,53,1,612925cb1db806a28c226d41,RRORORO,RRORORR,20.71309134,21.90565814,series_1,612925cb1db806a28c226d41,Kobieta,18,2021-09-06_19h07.22.210,rantool2,2021.1.4,Win32,59.94125757,6135e006383e6ea6c3d06a28,61364ab5ed6b4378241100f1,,,,,,,,
j,2.2,0,34,34,59,1,612925cb1db806a28c226d41,RRRORRO,RRRORRR,21.56657303,20.89823192,series_0,612925cb1db806a28c226d41,Kobieta,18,2021-09-06_19h07.22.210,rantool2,2021.1.4,Win32,59.94125757,6135e006383e6ea6c3d06a28,61364ab5ed6b4378241100f1,,,,,,,,
j,1.282,0,35,35,3,1,612925cb1db806a28c226d41,OOOORRO,OOOORRR,20.90986523,21.74922619,series_1,612925cb1db806a28c226d41,Kobieta,18,2021-09-06_19h07.22.210,rantool2,2021.1.4,Win32,59.94125757,6135e006383e6ea6c3d06a28,61364ab5ed6b4378241100f1,,,,,,,,
j,1.993,0,36,36,51,1,612925cb1db806a28c226d41,RROORRO,RROORRR,21.89852628,22.02786418,series_1,612925cb1db806a28c226d41,Kobieta,18,2021-09-06_19h07.22.210,rantool2,2021.1.4,Win32,59.94125757,6135e006383e6ea6c3d06a28,61364ab5ed6b4378241100f1,,,,,,,,
j,1.465,0,37,37,20,1,612925cb1db806a28c226d41,OROROOO,OROROOR,21.31236711,21.90565814,series_1,612925cb1db806a28c226d41,Kobieta,18,2021-09-06_19h07.22.210,rantool2,2021.1.4,Win32,59.94125757,6135e006383e6ea6c3d06a28,61364ab5ed6b4378241100f1,,,,,,,,
j,2.085,0,38,38,39,1,612925cb1db806a28c226d41,ROORRRO,ROORRRR,21.82425538,21.38562617,series_0,612925cb1db806a28c226d41,Kobieta,18,2021-09-06_19h07.22.210,rantool2,2021.1.4,Win32,59.94125757,6135e006383e6ea6c3d06a28,61364ab5ed6b4378241100f1,,,,,,,,
j,1.26,0,39,39,48,1,612925cb1db806a28c226d41,RROOOOO,RROOOOR,20.90986523,22.15934078,series_1,612925cb1db806a28c226d41,Kobieta,18,2021-09-06_19h07.22.210,rantool2,2021.1.4,Win32,59.94125757,6135e006383e6ea6c3d06a28,61364ab5ed6b4378241100f1,,,,,,,,
f,1.928,0,40,40,35,1,612925cb1db806a28c226d41,ROOORRO,ROOORRR,21.76276513,22.16977179,series_1,612925cb1db806a28c226d41,Kobieta,18,2021-09-06_19h07.22.210,rantool2,2021.1.4,Win32,59.94125757,6135e006383e6ea6c3d06a28,61364ab5ed6b4378241100f1,,,,,,,,
j,2.226,0,41,41,49,1,612925cb1db806a28c226d41,RROOORO,RROOORR,21.76276513,22.53364006,series_1,612925cb1db806a28c226d41,Kobieta,18,2021-09-06_19h07.22.210,rantool2,2021.1.4,Win32,59.94125757,6135e006383e6ea6c3d06a28,61364ab5ed6b4378241100f1,,,,,,,,
f,1.303,0,42,42,5,1,612925cb1db806a28c226d41,OOORORO,OOORORR,20.87963819,21.9921709,series_1,612925cb1db806a28c226d41,Kobieta,18,2021-09-06_19h07.22.210,rantool2,2021.1.4,Win32,59.94125757,6135e006383e6ea6c3d06a28,61364ab5ed6b4378241100f1,,,,,,,,
f,1.863,0,43,43,45,1,612925cb1db806a28c226d41,RORRORO,RORRORR,20.78182524,21.22513037,series_1,612925cb1db806a28c226d41,Kobieta,18,2021-09-06_19h07.22.210,rantool2,2021.1.4,Win32,59.94125757,6135e006383e6ea6c3d06a28,61364ab5ed6b4378241100f1,,,,,,,,
j,1.371,0,44,44,12,1,612925cb1db806a28c226d41,OORROOO,OORROOR,21.30250474,22.02786418,series_1,612925cb1db806a28c226d41,Kobieta,18,2021-09-06_19h07.22.210,rantool2,2021.1.4,Win32,59.94125757,6135e006383e6ea6c3d06a28,61364ab5ed6b4378241100f1,,,,,,,,
j,1.786,0,45,45,38,1,612925cb1db806a28c226d41,ROORROO,ROORROR,21.79500819,21.36812781,series_0,612925cb1db806a28c226d41,Kobieta,18,2021-09-06_19h07.22.210,rantool2,2021.1.4,Win32,59.94125757,6135e006383e6ea6c3d06a28,61364ab5ed6b4378241100f1,,,,,,,,
f,2.761,0,46,46,4,1,612925cb1db806a28c226d41,OOOROOO,OOOROOR,19.91402015,21.21223021,series_1,612925cb1db806a28c226d41,Kobieta,18,2021-09-06_19h07.22.210,rantool2,2021.1.4,Win32,59.94125757,6135e006383e6ea6c3d06a28,61364ab5ed6b4378241100f1,,,,,,,,
f,2.006,0,47,47,47,1,612925cb1db806a28c226d41,RORRRRO,RORRRRR,21.81333602,21.02936224,series_0,612925cb1db806a28c226d41,Kobieta,18,2021-09-06_19h07.22.210,rantool2,2021.1.4,Win32,59.94125757,6135e006383e6ea6c3d06a28,61364ab5ed6b4378241100f1,,,,,,,,
j,1.933,0,48,48,29,1,612925cb1db806a28c226d41,ORRRORO,ORRRORR,22.00300695,22.12173012,series_1,612925cb1db806a28c226d41,Kobieta,18,2021-09-06_19h07.22.210,rantool2,2021.1.4,Win32,59.94125757,6135e006383e6ea6c3d06a28,61364ab5ed6b4378241100f1,,,,,,,,
j,3.388,0,49,49,24,1,612925cb1db806a28c226d41,ORROOOO,ORROOOR,21.12383932,22.07102821,series_1,612925cb1db806a28c226d41,Kobieta,18,2021-09-06_19h07.22.210,rantool2,2021.1.4,Win32,59.94125757,6135e006383e6ea6c3d06a28,61364ab5ed6b4378241100f1,,,,,,,,
f,1.977,0,50,50,30,1,612925cb1db806a28c226d41,ORRRROO,ORRRROR,22.46748491,22.03072203,series_0,612925cb1db806a28c226d41,Kobieta,18,2021-09-06_19h07.22.210,rantool2,2021.1.4,Win32,59.94125757,6135e006383e6ea6c3d06a28,61364ab5ed6b4378241100f1,,,,,,,,
f,1.68,0,51,51,63,1,612925cb1db806a28c226d41,RRRRRRO,RRRRRRR,21.35278725,19.62521613,series_0,612925cb1db806a28c226d41,Kobieta,18,2021-09-06_19h07.22.210,rantool2,2021.1.4,Win32,59.94125757,6135e006383e6ea6c3d06a28,61364ab5ed6b4378241100f1,,,,,,,,
j,1.953,0,52,52,33,1,612925cb1db806a28c226d41,ROOOORO,ROOOORR,20.83779602,22.03072203,series_1,612925cb1db806a28c226d41,Kobieta,18,2021-09-06_19h07.22.210,rantool2,2021.1.4,Win32,59.94125757,6135e006383e6ea6c3d06a28,61364ab5ed6b4378241100f1,,,,,,,,
j,2.586,0,53,53,26,1,612925cb1db806a28c226d41,ORROROO,ORROROR,22.02732763,21.71443381,series_0,612925cb1db806a28c226d41,Kobieta,18,2021-09-06_19h07.22.210,rantool2,2021.1.4,Win32,59.94125757,6135e006383e6ea6c3d06a28,61364ab5ed6b4378241100f1,,,,,,,,
j,2.287,0,54,54,37,1,612925cb1db806a28c226d41,ROORORO,ROORORR,20.42602454,21.57657071,series_1,612925cb1db806a28c226d41,Kobieta,18,2021-09-06_19h07.22.210,rantool2,2021.1.4,Win32,59.94125757,6135e006383e6ea6c3d06a28,61364ab5ed6b4378241100f1,,,,,,,,
f,2.119,0,55,55,31,1,612925cb1db806a28c226d41,ORRRRRO,ORRRRRR,22.16413392,20.74050628,series_0,612925cb1db806a28c226d41,Kobieta,18,2021-09-06_19h07.22.210,rantool2,2021.1.4,Win32,59.94125757,6135e006383e6ea6c3d06a28,61364ab5ed6b4378241100f1,,,,,,,,
f,2.576,0,56,56,6,1,612925cb1db806a28c226d41,OOORROO,OOORROR,21.12383932,21.38562617,series_1,612925cb1db806a28c226d41,Kobieta,18,2021-09-06_19h07.22.210,rantool2,2021.1.4,Win32,59.94125757,6135e006383e6ea6c3d06a28,61364ab5ed6b4378241100f1,,,,,,,,
j,1.354,0,57,57,0,1,612925cb1db806a28c226d41,OOOOOOO,OOOOOOR,18.52739004,19.62521613,series_1,612925cb1db806a28c226d41,Kobieta,18,2021-09-06_19h07.22.210,rantool2,2021.1.4,Win32,59.94125757,6135e006383e6ea6c3d06a28,61364ab5ed6b4378241100f1,,,,,,,,
f,3.247,0,58,58,52,1,612925cb1db806a28c226d41,RROROOO,RROROOR,22.18365867,22.11097995,series_0,612925cb1db806a28c226d41,Kobieta,18,2021-09-06_19h07.22.210,rantool2,2021.1.4,Win32,59.94125757,6135e006383e6ea6c3d06a28,61364ab5ed6b4378241100f1,,,,,,,,
j,1.688,0,59,59,36,1,612925cb1db806a28c226d41,ROOROOO,ROOROOR,21.07991943,20.9984461,series_0,612925cb1db806a28c226d41,Kobieta,18,2021-09-06_19h07.22.210,rantool2,2021.1.4,Win32,59.94125757,6135e006383e6ea6c3d06a28,61364ab5ed6b4378241100f1,,,,,,,,
j,1.547,0,60,60,41,1,612925cb1db806a28c226d41,ROROORO,ROROORR,20.42602454,21.71443381,series_1,612925cb1db806a28c226d41,Kobieta,18,2021-09-06_19h07.22.210,rantool2,2021.1.4,Win32,59.94125757,6135e006383e6ea6c3d06a28,61364ab5ed6b4378241100f1,,,,,,,,
f,1.719,0,61,61,54,1,612925cb1db806a28c226d41,RRORROO,RRORROR,21.55250791,20.9984461,series_0,612925cb1db806a28c226d41,Kobieta,18,2021-09-06_19h07.22.210,rantool2,2021.1.4,Win32,59.94125757,6135e006383e6ea6c3d06a28,61364ab5ed6b4378241100f1,,,,,,,,
j,1.031,0,62,62,21,1,612925cb1db806a28c226d41,ORORORO,ORORORR,20.39515459,22.06781359,series_1,612925cb1db806a28c226d41,Kobieta,18,2021-09-06_19h07.22.210,rantool2,2021.1.4,Win32,59.94125757,6135e006383e6ea6c3d06a28,61364ab5ed6b4378241100f1,,,,,,,,
j,1.217,0,63,63,8,1,612925cb1db806a28c226d41,OOROOOO,OOROOOR,19.91402015,20.89823192,series_1,612925cb1db806a28c226d41,Kobieta,18,2021-09-06_19h07.22.210,rantool2,2021.1.4,Win32,59.94125757,6135e006383e6ea6c3d06a28,61364ab5ed6b4378241100f1,,,,,,,,
,,,,,,,612925cb1db806a28c226d41,,,,,,612925cb1db806a28c226d41,Kobieta,18,2021-09-06_19h07.22.210,rantool2,2021.1.4,Win32,59.94125757,6135e006383e6ea6c3d06a28,61364ab5ed6b4378241100f1,0,,,0,0,0,0,1
,,,,,,,612925cb1db806a28c226d41,,,,,,612925cb1db806a28c226d41,Kobieta,18,2021-09-06_19h07.22.210,rantool2,2021.1.4,Win32,59.94125757,6135e006383e6ea6c3d06a28,61364ab5ed6b4378241100f1,"[""comma""]",0,[0.6090000000000089],1,0,1,0,1
,,,,,,,612925cb1db806a28c226d41,,,,,,612925cb1db806a28c226d41,Kobieta,18,2021-09-06_19h07.22.210,rantool2,2021.1.4,Win32,59.94125757,6135e006383e6ea6c3d06a28,61364ab5ed6b4378241100f1,"[""period""]",0,[0.48599999999999],2,0,2,0,1
,,,,,,,612925cb1db806a28c226d41,,,,,,612925cb1db806a28c226d41,Kobieta,18,2021-09-06_19h07.22.210,rantool2,2021.1.4,Win32,59.94125757,6135e006383e6ea6c3d06a28,61364ab5ed6b4378241100f1,"[""comma"",""comma""]",0,"[0.3259999999999934,0.9899999999999807]",3,0,3,0,1
,,,,,,,612925cb1db806a28c226d41,,,,,,612925cb1db806a28c226d41,Kobieta,18,2021-09-06_19h07.22.210,rantool2,2021.1.4,Win32,59.94125757,6135e006383e6ea6c3d06a28,61364ab5ed6b4378241100f1,"[""period""]",0,[0.33300000000002683],4,0,4,0,1
,,,,,,,612925cb1db806a28c226d41,,,,,,612925cb1db806a28c226d41,Kobieta,18,2021-09-06_19h07.22.210,rantool2,2021.1.4,Win32,59.94125757,6135e006383e6ea6c3d06a28,61364ab5ed6b4378241100f1,"[""comma""]",0,[0.5939999999999941],5,0,5,0,1
,,,,,,,612925cb1db806a28c226d41,,,,,,612925cb1db806a28c226d41,Kobieta,18,2021-09-06_19h07.22.210,rantool2,2021.1.4,Win32,59.94125757,6135e006383e6ea6c3d06a28,61364ab5ed6b4378241100f1,"[""period""]",0,[0.3830000000000382],6,0,6,0,1
,,,,,,,612925cb1db806a28c226d41,,,,,,612925cb1db806a28c226d41,Kobieta,18,2021-09-06_19h07.22.210,rantool2,2021.1.4,Win32,59.94125757,6135e006383e6ea6c3d06a28,61364ab5ed6b4378241100f1,"[""comma""]",0,[0.37100000000003774],7,0,7,0,1
,,,,,,,612925cb1db806a28c226d41,,,,,,612925cb1db806a28c226d41,Kobieta,18,2021-09-06_19h07.22.210,rantool2,2021.1.4,Win32,59.94125757,6135e006383e6ea6c3d06a28,61364ab5ed6b4378241100f1,"[""period""]",0,[0.3550000000000182],8,0,8,0,1
,,,,,,,612925cb1db806a28c226d41,,,,,,612925cb1db806a28c226d41,Kobieta,18,2021-09-06_19h07.22.210,rantool2,2021.1.4,Win32,59.94125757,6135e006383e6ea6c3d06a28,61364ab5ed6b4378241100f1,"[""comma""]",0,[1.0910000000000082],9,0,9,0,1
,,,,,,,612925cb1db806a28c226d41,,,,,,612925cb1db806a28c226d41,Kobieta,18,2021-09-06_19h07.22.210,rantool2,2021.1.4,Win32,59.94125757,6135e006383e6ea6c3d06a28,61364ab5ed6b4378241100f1,"[""period""]",0,[0.3039999999999736],10,0,10,0,1
,,,,,,,612925cb1db806a28c226d41,,,,,,612925cb1db806a28c226d41,Kobieta,18,2021-09-06_19h07.22.210,rantool2,2021.1.4,Win32,59.94125757,6135e006383e6ea6c3d06a28,61364ab5ed6b4378241100f1,"[""comma""]",0,[0.30000000000001137],11,0,11,0,1
,,,,,,,612925cb1db806a28c226d41,,,,,,612925cb1db806a28c226d41,Kobieta,18,2021-09-06_19h07.22.210,rantool2,2021.1.4,Win32,59.94125757,6135e006383e6ea6c3d06a28,61364ab5ed6b4378241100f1,"[""period""]",0,[0.2839999999999918],12,0,12,0,1
,,,,,,,612925cb1db806a28c226d41,,,,,,612925cb1db806a28c226d41,Kobieta,18,2021-09-06_19h07.22.210,rantool2,2021.1.4,Win32,59.94125757,6135e006383e6ea6c3d06a28,61364ab5ed6b4378241100f1,"[""comma""]",0,[0.2740000000000009],13,0,13,0,1
,,,,,,,612925cb1db806a28c226d41,,,,,,612925cb1db806a28c226d41,Kobieta,18,2021-09-06_19h07.22.210,rantool2,2021.1.4,Win32,59.94125757,6135e006383e6ea6c3d06a28,61364ab5ed6b4378241100f1,"[""period""]",0,[0.2839999999999918],14,0,14,0,1
,,,,,,,612925cb1db806a28c226d41,,,,,,612925cb1db806a28c226d41,Kobieta,18,2021-09-06_19h07.22.210,rantool2,2021.1.4,Win32,59.94125757,6135e006383e6ea6c3d06a28,61364ab5ed6b4378241100f1,"[""period""]",0,[0.30299999999999727],15,0,15,0,1
,,,,,,,612925cb1db806a28c226d41,,,,,,612925cb1db806a28c226d41,Kobieta,18,2021-09-06_19h07.22.210,rantool2,2021.1.4,Win32,59.94125757,6135e006383e6ea6c3d06a28,61364ab5ed6b4378241100f1,"[""comma""]",0,[0.2980000000000018],16,0,16,0,1
,,,,,,,612925cb1db806a28c226d41,,,,,,612925cb1db806a28c226d41,Kobieta,18,2021-09-06_19h07.22.210,rantool2,2021.1.4,Win32,59.94125757,6135e006383e6ea6c3d06a28,61364ab5ed6b4378241100f1,"[""period""]",0,[0.26400000000001],17,0,17,0,1
,,,,,,,612925cb1db806a28c226d41,,,,,,612925cb1db806a28c226d41,Kobieta,18,2021-09-06_19h07.22.210,rantool2,2021.1.4,Win32,59.94125757,6135e006383e6ea6c3d06a28,61364ab5ed6b4378241100f1,"[""comma""]",0,[0.07200000000000273],18,0,18,0,1
,,,,,,,612925cb1db806a28c226d41,,,,,,612925cb1db806a28c226d41,Kobieta,18,2021-09-06_19h07.22.210,rantool2,2021.1.4,Win32,59.94125757,6135e006383e6ea6c3d06a28,61364ab5ed6b4378241100f1,"[""comma""]",0,[0.12999999999999545],19,0,19,0,1
,,,,,,,612925cb1db806a28c226d41,,,,,,612925cb1db806a28c226d41,Kobieta,18,2021-09-06_19h07.22.210,rantool2,2021.1.4,Win32,59.94125757,6135e006383e6ea6c3d06a28,61364ab5ed6b4378241100f1,"[""period""]",0,[0.2980000000000018],20,0,20,0,1
,,,,,,,612925cb1db806a28c226d41,,,,,,612925cb1db806a28c226d41,Kobieta,18,2021-09-06_19h07.22.210,rantool2,2021.1.4,Win32,59.94125757,6135e006383e6ea6c3d06a28,61364ab5ed6b4378241100f1,"[""comma""]",0,[0.3149999999999977],21,0,21,0,1
,,,,,,,612925cb1db806a28c226d41,,,,,,612925cb1db806a28c226d41,Kobieta,18,2021-09-06_19h07.22.210,rantool2,2021.1.4,Win32,59.94125757,6135e006383e6ea6c3d06a28,61364ab5ed6b4378241100f1,"[""period""]",0,[0.30100000000004457],22,0,22,0,1
,,,,,,,612925cb1db806a28c226d41,,,,,,612925cb1db806a28c226d41,Kobieta,18,2021-09-06_19h07.22.210,rantool2,2021.1.4,Win32,59.94125757,6135e006383e6ea6c3d06a28,61364ab5ed6b4378241100f1,"[""comma""]",0,[0.30700000000001637],23,0,23,0,1
,,,,,,,612925cb1db806a28c226d41,,,,,,612925cb1db806a28c226d41,Kobieta,18,2021-09-06_19h07.22.210,rantool2,2021.1.4,Win32,59.94125757,6135e006383e6ea6c3d06a28,61364ab5ed6b4378241100f1,"[""period""]",0,[0.2880000000000109],24,0,24,0,1
,,,,,,,612925cb1db806a28c226d41,,,,,,612925cb1db806a28c226d41,Kobieta,18,2021-09-06_19h07.22.210,rantool2,2021.1.4,Win32,59.94125757,6135e006383e6ea6c3d06a28,61364ab5ed6b4378241100f1,"[""comma""]",0,[0.32000000000005],25,0,25,0,1
,,,,,,,612925cb1db806a28c226d41,,,,,,612925cb1db806a28c226d41,Kobieta,18,2021-09-06_19h07.22.210,rantool2,2021.1.4,Win32,59.94125757,6135e006383e6ea6c3d06a28,61364ab5ed6b4378241100f1,"[""period""]",0,[0.35599999999999454],26,0,26,0,1
,,,,,,,612925cb1db806a28c226d41,,,,,,612925cb1db806a28c226d41,Kobieta,18,2021-09-06_19h07.22.210,rantool2,2021.1.4,Win32,59.94125757,6135e006383e6ea6c3d06a28,61364ab5ed6b4378241100f1,"[""comma""]",0,[0.33499999999997954],27,0,27,0,1
,,,,,,,612925cb1db806a28c226d41,,,,,,612925cb1db806a28c226d41,Kobieta,18,2021-09-06_19h07.22.210,rantool2,2021.1.4,Win32,59.94125757,6135e006383e6ea6c3d06a28,61364ab5ed6b4378241100f1,"[""period""]",0,[0.3350000000000364],28,0,28,0,1
,,,,,,,612925cb1db806a28c226d41,,,,,,612925cb1db806a28c226d41,Kobieta,18,2021-09-06_19h07.22.210,rantool2,2021.1.4,Win32,59.94125757,6135e006383e6ea6c3d06a28,61364ab5ed6b4378241100f1,"[""comma""]",0,[0.3050000000000068],29,0,29,0,1
,,,,,,,612925cb1db806a28c226d41,,,,,,612925cb1db806a28c226d41,Kobieta,18,2021-09-06_19h07.22.210,rantool2,2021.1.4,Win32,59.94125757,6135e006383e6ea6c3d06a28,61364ab5ed6b4378241100f1,"[""period""]",0,[0.31799999999998363],30,0,30,0,1
,,,,,,,612925cb1db806a28c226d41,,,,,,612925cb1db806a28c226d41,Kobieta,18,2021-09-06_19h07.22.210,rantool2,2021.1.4,Win32,59.94125757,6135e006383e6ea6c3d06a28,61364ab5ed6b4378241100f1,"[""comma""]",0,[0.17200000000002547],31,0,31,0,1
,,,,,,,612925cb1db806a28c226d41,,,,,,612925cb1db806a28c226d41,Kobieta,18,2021-09-06_19h07.22.210,rantool2,2021.1.4,Win32,59.94125757,6135e006383e6ea6c3d06a28,61364ab5ed6b4378241100f1,"[""period""]",0,[0.3550000000000182],32,0,32,0,1
,,,,,,,612925cb1db806a28c226d41,,,,,,612925cb1db806a28c226d41,Kobieta,18,2021-09-06_19h07.22.210,rantool2,2021.1.4,Win32,59.94125757,6135e006383e6ea6c3d06a28,61364ab5ed6b4378241100f1,"[""comma""]",0,[0.3059999999999832],33,0,33,0,1
,,,,,,,612925cb1db806a28c226d41,,,,,,612925cb1db806a28c226d41,Kobieta,18,2021-09-06_19h07.22.210,rantool2,2021.1.4,Win32,59.94125757,6135e006383e6ea6c3d06a28,61364ab5ed6b4378241100f1,"[""comma""]",0,[0.3050000000000068],34,0,34,0,1
,,,,,,,612925cb1db806a28c226d41,,,,,,612925cb1db806a28c226d41,Kobieta,18,2021-09-06_19h07.22.210,rantool2,2021.1.4,Win32,59.94125757,6135e006383e6ea6c3d06a28,61364ab5ed6b4378241100f1,"[""period""]",0,[0.31100000000003547],35,0,35,0,1
,,,,,,,612925cb1db806a28c226d41,,,,,,612925cb1db806a28c226d41,Kobieta,18,2021-09-06_19h07.22.210,rantool2,2021.1.4,Win32,59.94125757,6135e006383e6ea6c3d06a28,61364ab5ed6b4378241100f1,"[""period""]",0,[0.14100000000001955],36,0,36,0,1
,,,,,,,612925cb1db806a28c226d41,,,,,,612925cb1db806a28c226d41,Kobieta,18,2021-09-06_19h07.22.210,rantool2,2021.1.4,Win32,59.94125757,6135e006383e6ea6c3d06a28,61364ab5ed6b4378241100f1,"[""period""]",0,[0.2909999999999968],37,0,37,0,1
,,,,,,,612925cb1db806a28c226d41,,,,,,612925cb1db806a28c226d41,Kobieta,18,2021-09-06_19h07.22.210,rantool2,2021.1.4,Win32,59.94125757,6135e006383e6ea6c3d06a28,61364ab5ed6b4378241100f1,"[""comma""]",0,[0.3050000000000068],38,0,38,0,1
,,,,,,,612925cb1db806a28c226d41,,,,,,612925cb1db806a28c226d41,Kobieta,18,2021-09-06_19h07.22.210,rantool2,2021.1.4,Win32,59.94125757,6135e006383e6ea6c3d06a28,61364ab5ed6b4378241100f1,"[""period""]",0,[0.3020000000000209],39,0,39,0,1
,,,,,,,612925cb1db806a28c226d41,,,,,,612925cb1db806a28c226d41,Kobieta,18,2021-09-06_19h07.22.210,rantool2,2021.1.4,Win32,59.94125757,6135e006383e6ea6c3d06a28,61364ab5ed6b4378241100f1,"[""comma""]",0,[0.32099999999996953],40,0,40,0,1
,,,,,,,612925cb1db806a28c226d41,,,,,,612925cb1db806a28c226d41,Kobieta,18,2021-09-06_19h07.22.210,rantool2,2021.1.4,Win32,59.94125757,6135e006383e6ea6c3d06a28,61364ab5ed6b4378241100f1,"[""period""]",0,[0.3340000000000032],41,0,41,0,1
,,,,,,,612925cb1db806a28c226d41,,,,,,612925cb1db806a28c226d41,Kobieta,18,2021-09-06_19h07.22.210,rantool2,2021.1.4,Win32,59.94125757,6135e006383e6ea6c3d06a28,61364ab5ed6b4378241100f1,"[""comma""]",0,[0.3039999999999736],42,0,42,0,1
,,,,,,,612925cb1db806a28c226d41,,,,,,612925cb1db806a28c226d41,Kobieta,18,2021-09-06_19h07.22.210,rantool2,2021.1.4,Win32,59.94125757,6135e006383e6ea6c3d06a28,61364ab5ed6b4378241100f1,"[""period""]",0,[0.2909999999999968],43,0,43,0,1
,,,,,,,612925cb1db806a28c226d41,,,,,,612925cb1db806a28c226d41,Kobieta,18,2021-09-06_19h07.22.210,rantool2,2021.1.4,Win32,59.94125757,6135e006383e6ea6c3d06a28,61364ab5ed6b4378241100f1,"[""period""]",0,[0.3340000000000032],44,0,44,0,1
,,,,,,,612925cb1db806a28c226d41,,,,,,612925cb1db806a28c226d41,Kobieta,18,2021-09-06_19h07.22.210,rantool2,2021.1.4,Win32,59.94125757,6135e006383e6ea6c3d06a28,61364ab5ed6b4378241100f1,"[""comma""]",0,[0.24600000000003774],45,0,45,0,1
,,,,,,,612925cb1db806a28c226d41,,,,,,612925cb1db806a28c226d41,Kobieta,18,2021-09-06_19h07.22.210,rantool2,2021.1.4,Win32,59.94125757,6135e006383e6ea6c3d06a28,61364ab5ed6b4378241100f1,"[""comma""]",0,[0.30000000000001137],46,0,46,0,1
,,,,,,,612925cb1db806a28c226d41,,,,,,612925cb1db806a28c226d41,Kobieta,18,2021-09-06_19h07.22.210,rantool2,2021.1.4,Win32,59.94125757,6135e006383e6ea6c3d06a28,61364ab5ed6b4378241100f1,"[""comma""]",0,[0.3779999999999859],47,0,47,0,1
,,,,,,,612925cb1db806a28c226d41,,,,,,612925cb1db806a28c226d41,Kobieta,18,2021-09-06_19h07.22.210,rantool2,2021.1.4,Win32,59.94125757,6135e006383e6ea6c3d06a28,61364ab5ed6b4378241100f1,"[""period""]",0,[0.313000000000045],48,0,48,0,1
,,,,,,,612925cb1db806a28c226d41,,,,,,612925cb1db806a28c226d41,Kobieta,18,2021-09-06_19h07.22.210,rantool2,2021.1.4,Win32,59.94125757,6135e006383e6ea6c3d06a28,61364ab5ed6b4378241100f1,"[""period""]",0,[0.27899999999999636],49,0,49,0,1
,,,,,,,612925cb1db806a28c226d41,,,,,,612925cb1db806a28c226d41,Kobieta,18,2021-09-06_19h07.22.210,rantool2,2021.1.4,Win32,59.94125757,6135e006383e6ea6c3d06a28,61364ab5ed6b4378241100f1,"[""comma""]",0,[0.28499999999996817],50,0,50,0,1
,,,,,,,612925cb1db806a28c226d41,,,,,,612925cb1db806a28c226d41,Kobieta,18,2021-09-06_19h07.22.210,rantool2,2021.1.4,Win32,59.94125757,6135e006383e6ea6c3d06a28,61364ab5ed6b4378241100f1,"[""period""]",0,[0.28300000000001546],51,0,51,0,1
,,,,,,,612925cb1db806a28c226d41,,,,,,612925cb1db806a28c226d41,Kobieta,18,2021-09-06_19h07.22.210,rantool2,2021.1.4,Win32,59.94125757,6135e006383e6ea6c3d06a28,61364ab5ed6b4378241100f1,"[""comma""]",0,[0.3860000000000241],52,0,52,0,1
,,,,,,,612925cb1db806a28c226d41,,,,,,612925cb1db806a28c226d41,Kobieta,18,2021-09-06_19h07.22.210,rantool2,2021.1.4,Win32,59.94125757,6135e006383e6ea6c3d06a28,61364ab5ed6b4378241100f1,"[""period""]",0,[0.3509999999999991],53,0,53,0,1
,,,,,,,612925cb1db806a28c226d41,,,,,,612925cb1db806a28c226d41,Kobieta,18,2021-09-06_19h07.22.210,rantool2,2021.1.4,Win32,59.94125757,6135e006383e6ea6c3d06a28,61364ab5ed6b4378241100f1,0,0,,54,0,54,0,1
,,,,,,,612925cb1db806a28c226d41,,,,,,612925cb1db806a28c226d41,Kobieta,18,2021-09-06_19h07.22.210,rantool2,2021.1.4,Win32,59.94125757,6135e006383e6ea6c3d06a28,61364ab5ed6b4378241100f1,0,0,,55,0,55,0,1
,,,,,,,612925cb1db806a28c226d41,,,,,,612925cb1db806a28c226d41,Kobieta,18,2021-09-06_19h07.22.210,rantool2,2021.1.4,Win32,59.94125757,6135e006383e6ea6c3d06a28,61364ab5ed6b4378241100f1,"[""period""]",0,[0.35000000000002274],56,0,56,0,1
,,,,,,,612925cb1db806a28c226d41,,,,,,612925cb1db806a28c226d41,Kobieta,18,2021-09-06_19h07.22.210,rantool2,2021.1.4,Win32,59.94125757,6135e006383e6ea6c3d06a28,61364ab5ed6b4378241100f1,"[""comma""]",0,[0.40100000000001046],57,0,57,0,1
,,,,,,,612925cb1db806a28c226d41,,,,,,612925cb1db806a28c226d41,Kobieta,18,2021-09-06_19h07.22.210,rantool2,2021.1.4,Win32,59.94125757,6135e006383e6ea6c3d06a28,61364ab5ed6b4378241100f1,"[""period""]",0,[0.3650000000000091],58,0,58,0,1
,,,,,,,612925cb1db806a28c226d41,,,,,,612925cb1db806a28c226d41,Kobieta,18,2021-09-06_19h07.22.210,rantool2,2021.1.4,Win32,59.94125757,6135e006383e6ea6c3d06a28,61364ab5ed6b4378241100f1,"[""comma""]",0,[0.46800000000001774],59,0,59,0,1
,,,,,,,612925cb1db806a28c226d41,,,,,,612925cb1db806a28c226d41,Kobieta,18,2021-09-06_19h07.22.210,rantool2,2021.1.4,Win32,59.94125757,6135e006383e6ea6c3d06a28,61364ab5ed6b4378241100f1,"[""period""]",0,[0.48900000000003274],60,0,60,0,1
,,,,,,,612925cb1db806a28c226d41,,,,,,612925cb1db806a28c226d41,Kobieta,18,2021-09-06_19h07.22.210,rantool2,2021.1.4,Win32,59.94125757,6135e006383e6ea6c3d06a28,61364ab5ed6b4378241100f1,"[""period""]",0,[0.48900000000003274],61,0,61,0,1
,,,,,,,612925cb1db806a28c226d41,,,,,,612925cb1db806a28c226d41,Kobieta,18,2021-09-06_19h07.22.210,rantool2,2021.1.4,Win32,59.94125757,6135e006383e6ea6c3d06a28,61364ab5ed6b4378241100f1,"[""comma""]",0,[0.38400000000001455],62,0,62,0,1
,,,,,,,612925cb1db806a28c226d41,,,,,,612925cb1db806a28c226d41,Kobieta,18,2021-09-06_19h07.22.210,rantool2,2021.1.4,Win32,59.94125757,6135e006383e6ea6c3d06a28,61364ab5ed6b4378241100f1,"[""period""]",0,[0.35899999999998045],63,0,63,0,1
,,,,,,,612925cb1db806a28c226d41,,,,,,612925cb1db806a28c226d41,Kobieta,18,2021-09-06_19h07.22.210,rantool2,2021.1.4,Win32,59.94125757,6135e006383e6ea6c3d06a28,61364ab5ed6b4378241100f1,"[""comma""]",0,[0.3089999999999691],64,0,64,0,1
,,,,,,,612925cb1db806a28c226d41,,,,,,612925cb1db806a28c226d41,Kobieta,18,2021-09-06_19h07.22.210,rantool2,2021.1.4,Win32,59.94125757,6135e006383e6ea6c3d06a28,61364ab5ed6b4378241100f1,"[""period""]",0,[0.30700000000001637],65,0,65,0,1
,,,,,,,612925cb1db806a28c226d41,,,,,,612925cb1db806a28c226d41,Kobieta,18,2021-09-06_19h07.22.210,rantool2,2021.1.4,Win32,59.94125757,6135e006383e6ea6c3d06a28,61364ab5ed6b4378241100f1,"[""period""]",0,[0.3550000000000182],66,0,66,0,1
,,,,,,,612925cb1db806a28c226d41,,,,,,612925cb1db806a28c226d41,Kobieta,18,2021-09-06_19h07.22.210,rantool2,2021.1.4,Win32,59.94125757,6135e006383e6ea6c3d06a28,61364ab5ed6b4378241100f1,"[""comma""]",0,[0.4399999999999977],67,0,67,0,1
,,,,,,,612925cb1db806a28c226d41,,,,,,612925cb1db806a28c226d41,Kobieta,18,2021-09-06_19h07.22.210,rantool2,2021.1.4,Win32,59.94125757,6135e006383e6ea6c3d06a28,61364ab5ed6b4378241100f1,"[""period""]",0,[0.3410000000000082],68,0,68,0,1
,,,,,,,612925cb1db806a28c226d41,,,,,,612925cb1db806a28c226d41,Kobieta,18,2021-09-06_19h07.22.210,rantool2,2021.1.4,Win32,59.94125757,6135e006383e6ea6c3d06a28,61364ab5ed6b4378241100f1,"[""comma""]",0,[0.3199999999999932],69,0,69,0,1
,,,,,,,612925cb1db806a28c226d41,,,,,,612925cb1db806a28c226d41,Kobieta,18,2021-09-06_19h07.22.210,rantool2,2021.1.4,Win32,59.94125757,6135e006383e6ea6c3d06a28,61364ab5ed6b4378241100f1,"[""period""]",0,[0.2939999999999827],70,0,70,0,1
,,,,,,,612925cb1db806a28c226d41,,,,,,612925cb1db806a28c226d41,Kobieta,18,2021-09-06_19h07.22.210,rantool2,2021.1.4,Win32,59.94125757,6135e006383e6ea6c3d06a28,61364ab5ed6b4378241100f1,"[""comma""]",0,[0.3340000000000032],71,0,71,0,1
,,,,,,,612925cb1db806a28c226d41,,,,,,612925cb1db806a28c226d41,Kobieta,18,2021-09-06_19h07.22.210,rantool2,2021.1.4,Win32,59.94125757,6135e006383e6ea6c3d06a28,61364ab5ed6b4378241100f1,"[""period""]",0,[0.3050000000000068],72,0,72,0,1
,,,,,,,612925cb1db806a28c226d41,,,,,,612925cb1db806a28c226d41,Kobieta,18,2021-09-06_19h07.22.210,rantool2,2021.1.4,Win32,59.94125757,6135e006383e6ea6c3d06a28,61364ab5ed6b4378241100f1,"[""comma""]",0,[0.3199999999999932],73,0,73,0,1
,,,,,,,612925cb1db806a28c226d41,,,,,,612925cb1db806a28c226d41,Kobieta,18,2021-09-06_19h07.22.210,rantool2,2021.1.4,Win32,59.94125757,6135e006383e6ea6c3d06a28,61364ab5ed6b4378241100f1,"[""period""]",0,[0.07000000000005002],74,0,74,0,1
,,,,,,,612925cb1db806a28c226d41,,,,,,612925cb1db806a28c226d41,Kobieta,18,2021-09-06_19h07.22.210,rantool2,2021.1.4,Win32,59.94125757,6135e006383e6ea6c3d06a28,61364ab5ed6b4378241100f1,"[""comma""]",0,[0.1400000000000432],75,0,75,0,1
,,,,,,,612925cb1db806a28c226d41,,,,,,612925cb1db806a28c226d41,Kobieta,18,2021-09-06_19h07.22.210,rantool2,2021.1.4,Win32,59.94125757,6135e006383e6ea6c3d06a28,61364ab5ed6b4378241100f1,"[""period""]",0,[0.2899999999999636],76,0,76,0,1
,,,,,,,612925cb1db806a28c226d41,,,,,,612925cb1db806a28c226d41,Kobieta,18,2021-09-06_19h07.22.210,rantool2,2021.1.4,Win32,59.94125757,6135e006383e6ea6c3d06a28,61364ab5ed6b4378241100f1,"[""comma""]",0,[0.3079999999999927],77,0,77,0,1
,,,,,,,612925cb1db806a28c226d41,,,,,,612925cb1db806a28c226d41,Kobieta,18,2021-09-06_19h07.22.210,rantool2,2021.1.4,Win32,59.94125757,6135e006383e6ea6c3d06a28,61364ab5ed6b4378241100f1,"[""period""]",0,[0.30000000000001137],78,0,78,0,1
,,,,,,,612925cb1db806a28c226d41,,,,,,612925cb1db806a28c226d41,Kobieta,18,2021-09-06_19h07.22.210,rantool2,2021.1.4,Win32,59.94125757,6135e006383e6ea6c3d06a28,61364ab5ed6b4378241100f1,"[""comma""]",0,[0.3129999999999882],79,0,79,0,1
,,,,,,,612925cb1db806a28c226d41,,,,,,612925cb1db806a28c226d41,Kobieta,18,2021-09-06_19h07.22.210,rantool2,2021.1.4,Win32,59.94125757,6135e006383e6ea6c3d06a28,61364ab5ed6b4378241100f1,"[""period""]",0,[0.34199999999998454],80,0,80,0,1
,,,,,,,612925cb1db806a28c226d41,,,,,,612925cb1db806a28c226d41,Kobieta,18,2021-09-06_19h07.22.210,rantool2,2021.1.4,Win32,59.94125757,6135e006383e6ea6c3d06a28,61364ab5ed6b4378241100f1,"[""comma""]",0,[0.32399999999995543],81,0,81,0,1
,,,,,,,612925cb1db806a28c226d41,,,,,,612925cb1db806a28c226d41,Kobieta,18,2021-09-06_19h07.22.210,rantool2,2021.1.4,Win32,59.94125757,6135e006383e6ea6c3d06a28,61364ab5ed6b4378241100f1,"[""period""]",0,[0.24200000000001864],82,0,82,0,1
,,,,,,,612925cb1db806a28c226d41,,,,,,612925cb1db806a28c226d41,Kobieta,18,2021-09-06_19h07.22.210,rantool2,2021.1.4,Win32,59.94125757,6135e006383e6ea6c3d06a28,61364ab5ed6b4378241100f1,"[""comma""]",0,[0.30400000000003047],83,0,83,0,1
,,,,,,,612925cb1db806a28c226d41,,,,,,612925cb1db806a28c226d41,Kobieta,18,2021-09-06_19h07.22.210,rantool2,2021.1.4,Win32,59.94125757,6135e006383e6ea6c3d06a28,61364ab5ed6b4378241100f1,"[""period""]",0,[0.2680000000000291],84,0,84,0,1
,,,,,,,612925cb1db806a28c226d41,,,,,,612925cb1db806a28c226d41,Kobieta,18,2021-09-06_19h07.22.210,rantool2,2021.1.4,Win32,59.94125757,6135e006383e6ea6c3d06a28,61364ab5ed6b4378241100f1,"[""comma""]",0,[0.3560000000000514],85,0,85,0,1
,,,,,,,612925cb1db806a28c226d41,,,,,,612925cb1db806a28c226d41,Kobieta,18,2021-09-06_19h07.22.210,rantool2,2021.1.4,Win32,59.94125757,6135e006383e6ea6c3d06a28,61364ab5ed6b4378241100f1,"[""period""]",0,[0.36299999999999955],86,0,86,0,1
,,,,,,,612925cb1db806a28c226d41,,,,,,612925cb1db806a28c226d41,Kobieta,18,2021-09-06_19h07.22.210,rantool2,2021.1.4,Win32,59.94125757,6135e006383e6ea6c3d06a28,61364ab5ed6b4378241100f1,"[""period""]",0,[0.4550000000000409],87,0,87,0,1
,,,,,,,612925cb1db806a28c226d41,,,,,,612925cb1db806a28c226d41,Kobieta,18,2021-09-06_19h07.22.210,rantool2,2021.1.4,Win32,59.94125757,6135e006383e6ea6c3d06a28,61364ab5ed6b4378241100f1,"[""comma""]",0,[0.34699999999998],88,0,88,0,1
,,,,,,,612925cb1db806a28c226d41,,,,,,612925cb1db806a28c226d41,Kobieta,18,2021-09-06_19h07.22.210,rantool2,2021.1.4,Win32,59.94125757,6135e006383e6ea6c3d06a28,61364ab5ed6b4378241100f1,"[""period""]",0,[0.33700000000004593],89,0,89,0,1
,,,,,,,612925cb1db806a28c226d41,,,,,,612925cb1db806a28c226d41,Kobieta,18,2021-09-06_19h07.22.210,rantool2,2021.1.4,Win32,59.94125757,6135e006383e6ea6c3d06a28,61364ab5ed6b4378241100f1,"[""comma""]",0,[0.3420000000000414],90,0,90,0,1
,,,,,,,612925cb1db806a28c226d41,,,,,,612925cb1db806a28c226d41,Kobieta,18,2021-09-06_19h07.22.210,rantool2,2021.1.4,Win32,59.94125757,6135e006383e6ea6c3d06a28,61364ab5ed6b4378241100f1,"[""period""]",0,[0.3009999999999877],91,0,91,0,1
,,,,,,,612925cb1db806a28c226d41,,,,,,612925cb1db806a28c226d41,Kobieta,18,2021-09-06_19h07.22.210,rantool2,2021.1.4,Win32,59.94125757,6135e006383e6ea6c3d06a28,61364ab5ed6b4378241100f1,"[""comma""]",0,[0.3140000000000214],92,0,92,0,1
,,,,,,,612925cb1db806a28c226d41,,,,,,612925cb1db806a28c226d41,Kobieta,18,2021-09-06_19h07.22.210,rantool2,2021.1.4,Win32,59.94125757,6135e006383e6ea6c3d06a28,61364ab5ed6b4378241100f1,"[""period""]",0,[0.3079999999999927],93,0,93,0,1
,,,,,,,612925cb1db806a28c226d41,,,,,,612925cb1db806a28c226d41,Kobieta,18,2021-09-06_19h07.22.210,rantool2,2021.1.4,Win32,59.94125757,6135e006383e6ea6c3d06a28,61364ab5ed6b4378241100f1,"[""comma""]",0,[0.3020000000000209],94,0,94,0,1
,,,,,,,612925cb1db806a28c226d41,,,,,,612925cb1db806a28c226d41,Kobieta,18,2021-09-06_19h07.22.210,rantool2,2021.1.4,Win32,59.94125757,6135e006383e6ea6c3d06a28,61364ab5ed6b4378241100f1,"[""period""]",0,[0.3160000000000309],95,0,95,0,1
,,,,,,,612925cb1db806a28c226d41,,,,,,612925cb1db806a28c226d41,Kobieta,18,2021-09-06_19h07.22.210,rantool2,2021.1.4,Win32,59.94125757,6135e006383e6ea6c3d06a28,61364ab5ed6b4378241100f1,"[""comma""]",0,[0.3380000000000223],96,0,96,0,1
,,,,,,,612925cb1db806a28c226d41,,,,,,612925cb1db806a28c226d41,Kobieta,18,2021-09-06_19h07.22.210,rantool2,2021.1.4,Win32,59.94125757,6135e006383e6ea6c3d06a28,61364ab5ed6b4378241100f1,"[""period""]",0,[0.30400000000003047],97,0,97,0,1
,,,,,,,612925cb1db806a28c226d41,,,,,,612925cb1db806a28c226d41,Kobieta,18,2021-09-06_19h07.22.210,rantool2,2021.1.4,Win32,59.94125757,6135e006383e6ea6c3d06a28,61364ab5ed6b4378241100f1,"[""comma""]",0,[0.3180000000000405],98,0,98,0,1
,,,,,,,612925cb1db806a28c226d41,,,,,,612925cb1db806a28c226d41,Kobieta,18,2021-09-06_19h07.22.210,rantool2,2021.1.4,Win32,59.94125757,6135e006383e6ea6c3d06a28,61364ab5ed6b4378241100f1,"[""period""]",0,[0.3240000000000123],99,0,99,0,1
,,,,,,,612925cb1db806a28c226d41,,,,,,612925cb1db806a28c226d41,Kobieta,18,2021-09-06_19h07.22.210,rantool2,2021.1.4,Win32,59.94125757,6135e006383e6ea6c3d06a28,61364ab5ed6b4378241100f1,"[""period""]",0,[0.3509999999999991],100,0,100,0,1
,,,,,,,612925cb1db806a28c226d41,,,,,,612925cb1db806a28c226d41,Kobieta,18,2021-09-06_19h07.22.210,rantool2,2021.1.4,Win32,59.94125757,6135e006383e6ea6c3d06a28,61364ab5ed6b4378241100f1,"[""period""]",0,[0.39699999999999136],101,0,101,0,1
,,,,,,,612925cb1db806a28c226d41,,,,,,612925cb1db806a28c226d41,Kobieta,18,2021-09-06_19h07.22.210,rantool2,2021.1.4,Win32,59.94125757,6135e006383e6ea6c3d06a28,61364ab5ed6b4378241100f1,"[""comma""]",0,[0.271000000000015],102,0,102,0,1
,,,,,,,612925cb1db806a28c226d41,,,,,,612925cb1db806a28c226d41,Kobieta,18,2021-09-06_19h07.22.210,rantool2,2021.1.4,Win32,59.94125757,6135e006383e6ea6c3d06a28,61364ab5ed6b4378241100f1,"[""comma""]",0,[0.32499999999998863],103,0,103,0,1
,,,,,,,612925cb1db806a28c226d41,,,,,,612925cb1db806a28c226d41,Kobieta,18,2021-09-06_19h07.22.210,rantool2,2021.1.4,Win32,59.94125757,6135e006383e6ea6c3d06a28,61364ab5ed6b4378241100f1,"[""comma""]",0,[0.3199999999999932],104,0,104,0,1
,,,,,,,612925cb1db806a28c226d41,,,,,,612925cb1db806a28c226d41,Kobieta,18,2021-09-06_19h07.22.210,rantool2,2021.1.4,Win32,59.94125757,6135e006383e6ea6c3d06a28,61364ab5ed6b4378241100f1,"[""period""]",0,[0.34600000000000364],105,0,105,0,1
,,,,,,,612925cb1db806a28c226d41,,,,,,612925cb1db806a28c226d41,Kobieta,18,2021-09-06_19h07.22.210,rantool2,2021.1.4,Win32,59.94125757,6135e006383e6ea6c3d06a28,61364ab5ed6b4378241100f1,"[""comma""]",0,[0.25499999999999545],106,0,106,0,1
,,,,,,,612925cb1db806a28c226d41,,,,,,612925cb1db806a28c226d41,Kobieta,18,2021-09-06_19h07.22.210,rantool2,2021.1.4,Win32,59.94125757,6135e006383e6ea6c3d06a28,61364ab5ed6b4378241100f1,"[""period""]",0,[0.32600000000002183],107,0,107,0,1
,,,,,,,612925cb1db806a28c226d41,,,,,,612925cb1db806a28c226d41,Kobieta,18,2021-09-06_19h07.22.210,rantool2,2021.1.4,Win32,59.94125757,6135e006383e6ea6c3d06a28,61364ab5ed6b4378241100f1,"[""comma""]",0,[0.32499999999998863],108,0,108,0,1
,,,,,,,612925cb1db806a28c226d41,,,,,,612925cb1db806a28c226d41,Kobieta,18,2021-09-06_19h07.22.210,rantool2,2021.1.4,Win32,59.94125757,6135e006383e6ea6c3d06a28,61364ab5ed6b4378241100f1,"[""period""]",0,[0.3369999999999891],109,0,109,0,1
,,,,,,,612925cb1db806a28c226d41,,,,,,612925cb1db806a28c226d41,Kobieta,18,2021-09-06_19h07.22.210,rantool2,2021.1.4,Win32,59.94125757,6135e006383e6ea6c3d06a28,61364ab5ed6b4378241100f1,"[""comma""]",0,[0.3509999999999991],110,0,110,0,1
,,,,,,,612925cb1db806a28c226d41,,,,,,612925cb1db806a28c226d41,Kobieta,18,2021-09-06_19h07.22.210,rantool2,2021.1.4,Win32,59.94125757,6135e006383e6ea6c3d06a28,61364ab5ed6b4378241100f1,"[""comma""]",0,[0.3410000000000082],111,0,111,0,1
,,,,,,,612925cb1db806a28c226d41,,,,,,612925cb1db806a28c226d41,Kobieta,18,2021-09-06_19h07.22.210,rantool2,2021.1.4,Win32,59.94125757,6135e006383e6ea6c3d06a28,61364ab5ed6b4378241100f1,"[""period""]",0,[0.3059999999999832],112,0,112,0,1
,,,,,,,612925cb1db806a28c226d41,,,,,,612925cb1db806a28c226d41,Kobieta,18,2021-09-06_19h07.22.210,rantool2,2021.1.4,Win32,59.94125757,6135e006383e6ea6c3d06a28,61364ab5ed6b4378241100f1,"[""comma""]",0,[0.33199999999999363],113,0,113,0,1
,,,,,,,612925cb1db806a28c226d41,,,,,,612925cb1db806a28c226d41,Kobieta,18,2021-09-06_19h07.22.210,rantool2,2021.1.4,Win32,59.94125757,6135e006383e6ea6c3d06a28,61364ab5ed6b4378241100f1,"[""period""]",0,[0.3050000000000068],114,0,114,0,1
,,,,,,,612925cb1db806a28c226d41,,,,,,612925cb1db806a28c226d41,Kobieta,18,2021-09-06_19h07.22.210,rantool2,2021.1.4,Win32,59.94125757,6135e006383e6ea6c3d06a28,61364ab5ed6b4378241100f1,"[""comma""]",0,[0.3090000000000259],115,0,115,0,1
,,,,,,,612925cb1db806a28c226d41,,,,,,612925cb1db806a28c226d41,Kobieta,18,2021-09-06_19h07.22.210,rantool2,2021.1.4,Win32,59.94125757,6135e006383e6ea6c3d06a28,61364ab5ed6b4378241100f1,"[""period""]",0,[0.3149999999999977],116,0,116,0,1
,,,,,,,612925cb1db806a28c226d41,,,,,,612925cb1db806a28c226d41,Kobieta,18,2021-09-06_19h07.22.210,rantool2,2021.1.4,Win32,59.94125757,6135e006383e6ea6c3d06a28,61364ab5ed6b4378241100f1,"[""period""]",0,[0.30700000000001637],117,0,117,0,1
,,,,,,,612925cb1db806a28c226d41,,,,,,612925cb1db806a28c226d41,Kobieta,18,2021-09-06_19h07.22.210,rantool2,2021.1.4,Win32,59.94125757,6135e006383e6ea6c3d06a28,61364ab5ed6b4378241100f1,"[""period""]",0,[0.3190000000000168],118,0,118,0,1
,,,,,,,612925cb1db806a28c226d41,,,,,,612925cb1db806a28c226d41,Kobieta,18,2021-09-06_19h07.22.210,rantool2,2021.1.4,Win32,59.94125757,6135e006383e6ea6c3d06a28,61364ab5ed6b4378241100f1,"[""comma""]",0,[0.34199999999998454],119,0,119,0,1
