key_resp_7.keys,key_resp_7.rt,trials_2.thisRepN,trials_2.thisTrialN,trials_2.thisN,trials_2.thisIndex,trials_2.ran,id,series_0,series_1,acss_0,acss_1,comparison,id*,Płeć*,Wiek*,date,expName,psychopyVersion,OS,frameRate,STUDY_ID,SESSION_ID,key_resp_5.keys,key_resp_5.corr,key_resp_5.rt,trials.thisRepN,trials.thisTrialN,trials.thisN,trials.thisIndex,trials.ran
j,2.8304,0,0,0,34,1,60bf82f3c529f061fc50b33c,ROOOROO,ROOOROR,21.03750787,21.24781509,series_1,60bf82f3c529f061fc50b33c,Mężczyzna,19,2021-09-06_20h25.39.586,rantool2,2021.1.4,Linux x86_64,60.0024001,6135e006383e6ea6c3d06a28,61365c78fb916b0240a22fb4,,,,,,,,
f,2.6242,0,1,1,13,1,60bf82f3c529f061fc50b33c,OORRORO,OORRORR,21.66733484,22.11181017,series_1,60bf82f3c529f061fc50b33c,Mężczyzna,19,2021-09-06_20h25.39.586,rantool2,2021.1.4,Linux x86_64,60.0024001,6135e006383e6ea6c3d06a28,61365c78fb916b0240a22fb4,,,,,,,,
f,1.7831,0,2,2,7,1,60bf82f3c529f061fc50b33c,OOORRRO,OOORRRR,21.6194508,21.899017,series_1,60bf82f3c529f061fc50b33c,Mężczyzna,19,2021-09-06_20h25.39.586,rantool2,2021.1.4,Linux x86_64,60.0024001,6135e006383e6ea6c3d06a28,61365c78fb916b0240a22fb4,,,,,,,,
f,2.1331,0,3,3,48,1,60bf82f3c529f061fc50b33c,RROOOOO,RROOOOR,20.90986523,22.15934078,series_1,60bf82f3c529f061fc50b33c,Mężczyzna,19,2021-09-06_20h25.39.586,rantool2,2021.1.4,Linux x86_64,60.0024001,6135e006383e6ea6c3d06a28,61365c78fb916b0240a22fb4,,,,,,,,
j,1.6668,0,4,4,26,1,60bf82f3c529f061fc50b33c,ORROROO,ORROROR,22.02732763,21.71443381,series_0,60bf82f3c529f061fc50b33c,Mężczyzna,19,2021-09-06_20h25.39.586,rantool2,2021.1.4,Linux x86_64,60.0024001,6135e006383e6ea6c3d06a28,61365c78fb916b0240a22fb4,,,,,,,,
f,2.8063,0,5,5,6,1,60bf82f3c529f061fc50b33c,OOORROO,OOORROR,21.12383932,21.38562617,series_1,60bf82f3c529f061fc50b33c,Mężczyzna,19,2021-09-06_20h25.39.586,rantool2,2021.1.4,Linux x86_64,60.0024001,6135e006383e6ea6c3d06a28,61365c78fb916b0240a22fb4,,,,,,,,
f,2.2047,0,6,6,49,1,60bf82f3c529f061fc50b33c,RROOORO,RROOORR,21.76276513,22.53364006,series_1,60bf82f3c529f061fc50b33c,Mężczyzna,19,2021-09-06_20h25.39.586,rantool2,2021.1.4,Linux x86_64,60.0024001,6135e006383e6ea6c3d06a28,61365c78fb916b0240a22fb4,,,,,,,,
f,2.4924,0,7,7,0,1,60bf82f3c529f061fc50b33c,OOOOOOO,OOOOOOR,18.52739004,19.62521613,series_1,60bf82f3c529f061fc50b33c,Mężczyzna,19,2021-09-06_20h25.39.586,rantool2,2021.1.4,Linux x86_64,60.0024001,6135e006383e6ea6c3d06a28,61365c78fb916b0240a22fb4,,,,,,,,
j,1.1931,0,8,8,19,1,60bf82f3c529f061fc50b33c,OROORRO,OROORRR,21.73568164,22.11181017,series_1,60bf82f3c529f061fc50b33c,Mężczyzna,19,2021-09-06_20h25.39.586,rantool2,2021.1.4,Linux x86_64,60.0024001,6135e006383e6ea6c3d06a28,61365c78fb916b0240a22fb4,,,,,,,,
j,2.5218,0,9,9,43,1,60bf82f3c529f061fc50b33c,RORORRO,RORORRR,20.71309134,21.07490964,series_1,60bf82f3c529f061fc50b33c,Mężczyzna,19,2021-09-06_20h25.39.586,rantool2,2021.1.4,Linux x86_64,60.0024001,6135e006383e6ea6c3d06a28,61365c78fb916b0240a22fb4,,,,,,,,
j,2.5051,0,10,10,31,1,60bf82f3c529f061fc50b33c,ORRRRRO,ORRRRRR,22.16413392,20.74050628,series_0,60bf82f3c529f061fc50b33c,Mężczyzna,19,2021-09-06_20h25.39.586,rantool2,2021.1.4,Linux x86_64,60.0024001,6135e006383e6ea6c3d06a28,61365c78fb916b0240a22fb4,,,,,,,,
f,1.5117,0,11,11,22,1,60bf82f3c529f061fc50b33c,ORORROO,ORORROR,22.02732763,21.57657071,series_0,60bf82f3c529f061fc50b33c,Mężczyzna,19,2021-09-06_20h25.39.586,rantool2,2021.1.4,Linux x86_64,60.0024001,6135e006383e6ea6c3d06a28,61365c78fb916b0240a22fb4,,,,,,,,
j,1.7557,0,12,12,58,1,60bf82f3c529f061fc50b33c,RRROROO,RRROROR,22.1285618,21.37121559,series_0,60bf82f3c529f061fc50b33c,Mężczyzna,19,2021-09-06_20h25.39.586,rantool2,2021.1.4,Linux x86_64,60.0024001,6135e006383e6ea6c3d06a28,61365c78fb916b0240a22fb4,,,,,,,,
f,1.3248,0,13,13,50,1,60bf82f3c529f061fc50b33c,RROOROO,RROOROR,21.73568164,22.02566557,series_1,60bf82f3c529f061fc50b33c,Mężczyzna,19,2021-09-06_20h25.39.586,rantool2,2021.1.4,Linux x86_64,60.0024001,6135e006383e6ea6c3d06a28,61365c78fb916b0240a22fb4,,,,,,,,
j,1.504,0,14,14,32,1,60bf82f3c529f061fc50b33c,ROOOOOO,ROOOOOR,19.92253567,21.27974287,series_1,60bf82f3c529f061fc50b33c,Mężczyzna,19,2021-09-06_20h25.39.586,rantool2,2021.1.4,Linux x86_64,60.0024001,6135e006383e6ea6c3d06a28,61365c78fb916b0240a22fb4,,,,,,,,
f,2.1189,0,15,15,16,1,60bf82f3c529f061fc50b33c,OROOOOO,OROOOOR,20.43051175,21.17347734,series_1,60bf82f3c529f061fc50b33c,Mężczyzna,19,2021-09-06_20h25.39.586,rantool2,2021.1.4,Linux x86_64,60.0024001,6135e006383e6ea6c3d06a28,61365c78fb916b0240a22fb4,,,,,,,,
f,1.9827,0,16,16,54,1,60bf82f3c529f061fc50b33c,RRORROO,RRORROR,21.55250791,20.9984461,series_0,60bf82f3c529f061fc50b33c,Mężczyzna,19,2021-09-06_20h25.39.586,rantool2,2021.1.4,Linux x86_64,60.0024001,6135e006383e6ea6c3d06a28,61365c78fb916b0240a22fb4,,,,,,,,
f,1.7175,0,17,17,63,1,60bf82f3c529f061fc50b33c,RRRRRRO,RRRRRRR,21.35278725,19.62521613,series_0,60bf82f3c529f061fc50b33c,Mężczyzna,19,2021-09-06_20h25.39.586,rantool2,2021.1.4,Linux x86_64,60.0024001,6135e006383e6ea6c3d06a28,61365c78fb916b0240a22fb4,,,,,,,,
f,1.2505,0,18,18,59,1,60bf82f3c529f061fc50b33c,RRRORRO,RRRORRR,21.56657303,20.89823192,series_0,60bf82f3c529f061fc50b33c,Mężczyzna,19,2021-09-06_20h25.39.586,rantool2,2021.1.4,Linux x86_64,60.0024001,6135e006383e6ea6c3d06a28,61365c78fb916b0240a22fb4,,,,,,,,
f,3.6697,0,19,19,42,1,60bf82f3c529f061fc50b33c,ROROROO,ROROROR,20.39515459,19.8361834,series_0,60bf82f3c529f061fc50b33c,Mężczyzna,19,2021-09-06_20h25.39.586,rantool2,2021.1.4,Linux x86_64,60.0024001,6135e006383e6ea6c3d06a28,61365c78fb916b0240a22fb4,,,,,,,,
j,1.1014,0,20,20,44,1,60bf82f3c529f061fc50b33c,RORROOO,RORROOR,21.66733484,22.02566557,series_1,60bf82f3c529f061fc50b33c,Mężczyzna,19,2021-09-06_20h25.39.586,rantool2,2021.1.4,Linux x86_64,60.0024001,6135e006383e6ea6c3d06a28,61365c78fb916b0240a22fb4,,,,,,,,
f,0.8381,0,21,21,56,1,60bf82f3c529f061fc50b33c,RRROOOO,RRROOOR,21.6194508,22.31681875,series_1,60bf82f3c529f061fc50b33c,Mężczyzna,19,2021-09-06_20h25.39.586,rantool2,2021.1.4,Linux x86_64,60.0024001,6135e006383e6ea6c3d06a28,61365c78fb916b0240a22fb4,,,,,,,,
j,1.3888,0,22,22,8,1,60bf82f3c529f061fc50b33c,OOROOOO,OOROOOR,19.91402015,20.89823192,series_1,60bf82f3c529f061fc50b33c,Mężczyzna,19,2021-09-06_20h25.39.586,rantool2,2021.1.4,Linux x86_64,60.0024001,6135e006383e6ea6c3d06a28,61365c78fb916b0240a22fb4,,,,,,,,
f,0.7175,0,23,23,33,1,60bf82f3c529f061fc50b33c,ROOOORO,ROOOORR,20.83779602,22.03072203,series_1,60bf82f3c529f061fc50b33c,Mężczyzna,19,2021-09-06_20h25.39.586,rantool2,2021.1.4,Linux x86_64,60.0024001,6135e006383e6ea6c3d06a28,61365c78fb916b0240a22fb4,,,,,,,,
f,0.719,0,24,24,62,1,60bf82f3c529f061fc50b33c,RRRRROO,RRRRROR,22.16413392,21.27974287,series_0,60bf82f3c529f061fc50b33c,Mężczyzna,19,2021-09-06_20h25.39.586,rantool2,2021.1.4,Linux x86_64,60.0024001,6135e006383e6ea6c3d06a28,61365c78fb916b0240a22fb4,,,,,,,,
f,0.9775,0,25,25,5,1,60bf82f3c529f061fc50b33c,OOORORO,OOORORR,20.87963819,21.9921709,series_1,60bf82f3c529f061fc50b33c,Mężczyzna,19,2021-09-06_20h25.39.586,rantool2,2021.1.4,Linux x86_64,60.0024001,6135e006383e6ea6c3d06a28,61365c78fb916b0240a22fb4,,,,,,,,
j,1.2828,0,26,26,23,1,60bf82f3c529f061fc50b33c,ORORRRO,ORORRRR,22.1285618,21.9921709,series_0,60bf82f3c529f061fc50b33c,Mężczyzna,19,2021-09-06_20h25.39.586,rantool2,2021.1.4,Linux x86_64,60.0024001,6135e006383e6ea6c3d06a28,61365c78fb916b0240a22fb4,,,,,,,,
f,0.8379,0,27,27,24,1,60bf82f3c529f061fc50b33c,ORROOOO,ORROOOR,21.12383932,22.07102821,series_1,60bf82f3c529f061fc50b33c,Mężczyzna,19,2021-09-06_20h25.39.586,rantool2,2021.1.4,Linux x86_64,60.0024001,6135e006383e6ea6c3d06a28,61365c78fb916b0240a22fb4,,,,,,,,
j,1.14,0,28,28,39,1,60bf82f3c529f061fc50b33c,ROORRRO,ROORRRR,21.82425538,21.38562617,series_0,60bf82f3c529f061fc50b33c,Mężczyzna,19,2021-09-06_20h25.39.586,rantool2,2021.1.4,Linux x86_64,60.0024001,6135e006383e6ea6c3d06a28,61365c78fb916b0240a22fb4,,,,,,,,
f,0.6941,0,29,29,46,1,60bf82f3c529f061fc50b33c,RORRROO,RORRROR,22.00300695,21.24781509,series_0,60bf82f3c529f061fc50b33c,Mężczyzna,19,2021-09-06_20h25.39.586,rantool2,2021.1.4,Linux x86_64,60.0024001,6135e006383e6ea6c3d06a28,61365c78fb916b0240a22fb4,,,,,,,,
j,0.8032,0,30,30,57,1,60bf82f3c529f061fc50b33c,RRROORO,RRROORR,21.82425538,22.07102821,series_1,60bf82f3c529f061fc50b33c,Mężczyzna,19,2021-09-06_20h25.39.586,rantool2,2021.1.4,Linux x86_64,60.0024001,6135e006383e6ea6c3d06a28,61365c78fb916b0240a22fb4,,,,,,,,
j,1.3164,0,31,31,40,1,60bf82f3c529f061fc50b33c,ROROOOO,ROROOOR,20.87963819,21.37121559,series_1,60bf82f3c529f061fc50b33c,Mężczyzna,19,2021-09-06_20h25.39.586,rantool2,2021.1.4,Linux x86_64,60.0024001,6135e006383e6ea6c3d06a28,61365c78fb916b0240a22fb4,,,,,,,,
f,0.9088,0,32,32,53,1,60bf82f3c529f061fc50b33c,RRORORO,RRORORR,20.71309134,21.90565814,series_1,60bf82f3c529f061fc50b33c,Mężczyzna,19,2021-09-06_20h25.39.586,rantool2,2021.1.4,Linux x86_64,60.0024001,6135e006383e6ea6c3d06a28,61365c78fb916b0240a22fb4,,,,,,,,
f,0.6565,0,33,33,35,1,60bf82f3c529f061fc50b33c,ROOORRO,ROOORRR,21.76276513,22.16977179,series_1,60bf82f3c529f061fc50b33c,Mężczyzna,19,2021-09-06_20h25.39.586,rantool2,2021.1.4,Linux x86_64,60.0024001,6135e006383e6ea6c3d06a28,61365c78fb916b0240a22fb4,,,,,,,,
j,0.8367,0,34,34,51,1,60bf82f3c529f061fc50b33c,RROORRO,RROORRR,21.89852628,22.02786418,series_1,60bf82f3c529f061fc50b33c,Mężczyzna,19,2021-09-06_20h25.39.586,rantool2,2021.1.4,Linux x86_64,60.0024001,6135e006383e6ea6c3d06a28,61365c78fb916b0240a22fb4,,,,,,,,
j,1.0579,0,35,35,1,1,60bf82f3c529f061fc50b33c,OOOOORO,OOOOORR,19.92253567,20.74050628,series_1,60bf82f3c529f061fc50b33c,Mężczyzna,19,2021-09-06_20h25.39.586,rantool2,2021.1.4,Linux x86_64,60.0024001,6135e006383e6ea6c3d06a28,61365c78fb916b0240a22fb4,,,,,,,,
j,1.163,0,36,36,2,1,60bf82f3c529f061fc50b33c,OOOOROO,OOOOROR,20.43051175,21.02936224,series_1,60bf82f3c529f061fc50b33c,Mężczyzna,19,2021-09-06_20h25.39.586,rantool2,2021.1.4,Linux x86_64,60.0024001,6135e006383e6ea6c3d06a28,61365c78fb916b0240a22fb4,,,,,,,,
j,1.1693,0,37,37,11,1,60bf82f3c529f061fc50b33c,OORORRO,OORORRR,22.18365867,22.6797523,series_1,60bf82f3c529f061fc50b33c,Mężczyzna,19,2021-09-06_20h25.39.586,rantool2,2021.1.4,Linux x86_64,60.0024001,6135e006383e6ea6c3d06a28,61365c78fb916b0240a22fb4,,,,,,,,
f,0.749,0,38,38,38,1,60bf82f3c529f061fc50b33c,ROORROO,ROORROR,21.79500819,21.36812781,series_0,60bf82f3c529f061fc50b33c,Mężczyzna,19,2021-09-06_20h25.39.586,rantool2,2021.1.4,Linux x86_64,60.0024001,6135e006383e6ea6c3d06a28,61365c78fb916b0240a22fb4,,,,,,,,
f,1.9342,0,39,39,15,1,60bf82f3c529f061fc50b33c,OORRRRO,OORRRRR,22.10108823,21.74922619,series_0,60bf82f3c529f061fc50b33c,Mężczyzna,19,2021-09-06_20h25.39.586,rantool2,2021.1.4,Linux x86_64,60.0024001,6135e006383e6ea6c3d06a28,61365c78fb916b0240a22fb4,,,,,,,,
f,1.1656,0,40,40,52,1,60bf82f3c529f061fc50b33c,RROROOO,RROROOR,22.18365867,22.11097995,series_0,60bf82f3c529f061fc50b33c,Mężczyzna,19,2021-09-06_20h25.39.586,rantool2,2021.1.4,Linux x86_64,60.0024001,6135e006383e6ea6c3d06a28,61365c78fb916b0240a22fb4,,,,,,,,
f,0.9835,0,41,41,10,1,60bf82f3c529f061fc50b33c,OOROROO,OOROROR,21.31236711,21.07490964,series_0,60bf82f3c529f061fc50b33c,Mężczyzna,19,2021-09-06_20h25.39.586,rantool2,2021.1.4,Linux x86_64,60.0024001,6135e006383e6ea6c3d06a28,61365c78fb916b0240a22fb4,,,,,,,,
j,1.0668,0,42,42,29,1,60bf82f3c529f061fc50b33c,ORRRORO,ORRRORR,22.00300695,22.12173012,series_1,60bf82f3c529f061fc50b33c,Mężczyzna,19,2021-09-06_20h25.39.586,rantool2,2021.1.4,Linux x86_64,60.0024001,6135e006383e6ea6c3d06a28,61365c78fb916b0240a22fb4,,,,,,,,
j,1.0209,0,43,43,60,1,60bf82f3c529f061fc50b33c,RRRROOO,RRRROOR,22.10108823,22.15934078,series_1,60bf82f3c529f061fc50b33c,Mężczyzna,19,2021-09-06_20h25.39.586,rantool2,2021.1.4,Linux x86_64,60.0024001,6135e006383e6ea6c3d06a28,61365c78fb916b0240a22fb4,,,,,,,,
j,0.8753,0,44,44,14,1,60bf82f3c529f061fc50b33c,OORRROO,OORRROR,22.24142883,22.16977179,series_0,60bf82f3c529f061fc50b33c,Mężczyzna,19,2021-09-06_20h25.39.586,rantool2,2021.1.4,Linux x86_64,60.0024001,6135e006383e6ea6c3d06a28,61365c78fb916b0240a22fb4,,,,,,,,
f,0.6564,0,45,45,41,1,60bf82f3c529f061fc50b33c,ROROORO,ROROORR,20.42602454,21.71443381,series_1,60bf82f3c529f061fc50b33c,Mężczyzna,19,2021-09-06_20h25.39.586,rantool2,2021.1.4,Linux x86_64,60.0024001,6135e006383e6ea6c3d06a28,61365c78fb916b0240a22fb4,,,,,,,,
j,0.9412,0,46,46,61,1,60bf82f3c529f061fc50b33c,RRRRORO,RRRRORR,21.81333602,21.17347734,series_0,60bf82f3c529f061fc50b33c,Mężczyzna,19,2021-09-06_20h25.39.586,rantool2,2021.1.4,Linux x86_64,60.0024001,6135e006383e6ea6c3d06a28,61365c78fb916b0240a22fb4,,,,,,,,
f,0.976,0,47,47,3,1,60bf82f3c529f061fc50b33c,OOOORRO,OOOORRR,20.90986523,21.74922619,series_1,60bf82f3c529f061fc50b33c,Mężczyzna,19,2021-09-06_20h25.39.586,rantool2,2021.1.4,Linux x86_64,60.0024001,6135e006383e6ea6c3d06a28,61365c78fb916b0240a22fb4,,,,,,,,
f,1.4332,0,48,48,37,1,60bf82f3c529f061fc50b33c,ROORORO,ROORORR,20.42602454,21.57657071,series_1,60bf82f3c529f061fc50b33c,Mężczyzna,19,2021-09-06_20h25.39.586,rantool2,2021.1.4,Linux x86_64,60.0024001,6135e006383e6ea6c3d06a28,61365c78fb916b0240a22fb4,,,,,,,,
j,0.2622,0,49,49,18,1,60bf82f3c529f061fc50b33c,OROOROO,OROOROR,20.84860893,21.22513037,series_1,60bf82f3c529f061fc50b33c,Mężczyzna,19,2021-09-06_20h25.39.586,rantool2,2021.1.4,Linux x86_64,60.0024001,6135e006383e6ea6c3d06a28,61365c78fb916b0240a22fb4,,,,,,,,
f,0.8277,0,50,50,4,1,60bf82f3c529f061fc50b33c,OOOROOO,OOOROOR,19.91402015,21.21223021,series_1,60bf82f3c529f061fc50b33c,Mężczyzna,19,2021-09-06_20h25.39.586,rantool2,2021.1.4,Linux x86_64,60.0024001,6135e006383e6ea6c3d06a28,61365c78fb916b0240a22fb4,,,,,,,,
j,1.0491,0,51,51,17,1,60bf82f3c529f061fc50b33c,OROOORO,OROOORR,21.03750787,22.12173012,series_1,60bf82f3c529f061fc50b33c,Mężczyzna,19,2021-09-06_20h25.39.586,rantool2,2021.1.4,Linux x86_64,60.0024001,6135e006383e6ea6c3d06a28,61365c78fb916b0240a22fb4,,,,,,,,
j,1.7274,0,52,52,47,1,60bf82f3c529f061fc50b33c,RORRRRO,RORRRRR,21.81333602,21.02936224,series_0,60bf82f3c529f061fc50b33c,Mężczyzna,19,2021-09-06_20h25.39.586,rantool2,2021.1.4,Linux x86_64,60.0024001,6135e006383e6ea6c3d06a28,61365c78fb916b0240a22fb4,,,,,,,,
f,0.9234,0,53,53,30,1,60bf82f3c529f061fc50b33c,ORRRROO,ORRRROR,22.46748491,22.03072203,series_0,60bf82f3c529f061fc50b33c,Mężczyzna,19,2021-09-06_20h25.39.586,rantool2,2021.1.4,Linux x86_64,60.0024001,6135e006383e6ea6c3d06a28,61365c78fb916b0240a22fb4,,,,,,,,
j,1.4529,0,54,54,36,1,60bf82f3c529f061fc50b33c,ROOROOO,ROOROOR,21.07991943,20.9984461,series_0,60bf82f3c529f061fc50b33c,Mężczyzna,19,2021-09-06_20h25.39.586,rantool2,2021.1.4,Linux x86_64,60.0024001,6135e006383e6ea6c3d06a28,61365c78fb916b0240a22fb4,,,,,,,,
f,1.0666,0,55,55,12,1,60bf82f3c529f061fc50b33c,OORROOO,OORROOR,21.30250474,22.02786418,series_1,60bf82f3c529f061fc50b33c,Mężczyzna,19,2021-09-06_20h25.39.586,rantool2,2021.1.4,Linux x86_64,60.0024001,6135e006383e6ea6c3d06a28,61365c78fb916b0240a22fb4,,,,,,,,
j,0.2234,0,56,56,20,1,60bf82f3c529f061fc50b33c,OROROOO,OROROOR,21.31236711,21.90565814,series_1,60bf82f3c529f061fc50b33c,Mężczyzna,19,2021-09-06_20h25.39.586,rantool2,2021.1.4,Linux x86_64,60.0024001,6135e006383e6ea6c3d06a28,61365c78fb916b0240a22fb4,,,,,,,,
f,1.102,0,57,57,21,1,60bf82f3c529f061fc50b33c,ORORORO,ORORORR,20.39515459,22.06781359,series_1,60bf82f3c529f061fc50b33c,Mężczyzna,19,2021-09-06_20h25.39.586,rantool2,2021.1.4,Linux x86_64,60.0024001,6135e006383e6ea6c3d06a28,61365c78fb916b0240a22fb4,,,,,,,,
f,1.176,0,58,58,45,1,60bf82f3c529f061fc50b33c,RORRORO,RORRORR,20.78182524,21.22513037,series_1,60bf82f3c529f061fc50b33c,Mężczyzna,19,2021-09-06_20h25.39.586,rantool2,2021.1.4,Linux x86_64,60.0024001,6135e006383e6ea6c3d06a28,61365c78fb916b0240a22fb4,,,,,,,,
j,1.5484,0,59,59,28,1,60bf82f3c529f061fc50b33c,ORRROOO,ORRROOR,22.24142883,22.53364006,series_1,60bf82f3c529f061fc50b33c,Mężczyzna,19,2021-09-06_20h25.39.586,rantool2,2021.1.4,Linux x86_64,60.0024001,6135e006383e6ea6c3d06a28,61365c78fb916b0240a22fb4,,,,,,,,
f,0.6443,0,60,60,55,1,60bf82f3c529f061fc50b33c,RRORRRO,RRORRRR,21.56657303,21.21223021,series_0,60bf82f3c529f061fc50b33c,Mężczyzna,19,2021-09-06_20h25.39.586,rantool2,2021.1.4,Linux x86_64,60.0024001,6135e006383e6ea6c3d06a28,61365c78fb916b0240a22fb4,,,,,,,,
f,0.7305,0,61,61,27,1,60bf82f3c529f061fc50b33c,ORRORRO,ORRORRR,21.55250791,22.2428857,series_1,60bf82f3c529f061fc50b33c,Mężczyzna,19,2021-09-06_20h25.39.586,rantool2,2021.1.4,Linux x86_64,60.0024001,6135e006383e6ea6c3d06a28,61365c78fb916b0240a22fb4,,,,,,,,
j,1.3004,0,62,62,25,1,60bf82f3c529f061fc50b33c,ORROORO,ORROORR,21.79500819,22.61624387,series_1,60bf82f3c529f061fc50b33c,Mężczyzna,19,2021-09-06_20h25.39.586,rantool2,2021.1.4,Linux x86_64,60.0024001,6135e006383e6ea6c3d06a28,61365c78fb916b0240a22fb4,,,,,,,,
f,1.0674,0,63,63,9,1,60bf82f3c529f061fc50b33c,OOROORO,OOROORR,21.07991943,22.2428857,series_1,60bf82f3c529f061fc50b33c,Mężczyzna,19,2021-09-06_20h25.39.586,rantool2,2021.1.4,Linux x86_64,60.0024001,6135e006383e6ea6c3d06a28,61365c78fb916b0240a22fb4,,,,,,,,
,,,,,,,60bf82f3c529f061fc50b33c,,,,,,60bf82f3c529f061fc50b33c,Mężczyzna,19,2021-09-06_20h25.39.586,rantool2,2021.1.4,Linux x86_64,60.0024001,6135e006383e6ea6c3d06a28,61365c78fb916b0240a22fb4,0,,,0,0,0,0,1
,,,,,,,60bf82f3c529f061fc50b33c,,,,,,60bf82f3c529f061fc50b33c,Mężczyzna,19,2021-09-06_20h25.39.586,rantool2,2021.1.4,Linux x86_64,60.0024001,6135e006383e6ea6c3d06a28,61365c78fb916b0240a22fb4,"[""comma""]",0,[0.41799999999997794],1,0,1,0,1
,,,,,,,60bf82f3c529f061fc50b33c,,,,,,60bf82f3c529f061fc50b33c,Mężczyzna,19,2021-09-06_20h25.39.586,rantool2,2021.1.4,Linux x86_64,60.0024001,6135e006383e6ea6c3d06a28,61365c78fb916b0240a22fb4,"[""period""]",0,[1.3785000000000025],2,0,2,0,1
,,,,,,,60bf82f3c529f061fc50b33c,,,,,,60bf82f3c529f061fc50b33c,Mężczyzna,19,2021-09-06_20h25.39.586,rantool2,2021.1.4,Linux x86_64,60.0024001,6135e006383e6ea6c3d06a28,61365c78fb916b0240a22fb4,"[""comma""]",0,[0.5395999999996377],3,0,3,0,1
,,,,,,,60bf82f3c529f061fc50b33c,,,,,,60bf82f3c529f061fc50b33c,Mężczyzna,19,2021-09-06_20h25.39.586,rantool2,2021.1.4,Linux x86_64,60.0024001,6135e006383e6ea6c3d06a28,61365c78fb916b0240a22fb4,"[""period""]",0,[0.45869999999925426],4,0,4,0,1
,,,,,,,60bf82f3c529f061fc50b33c,,,,,,60bf82f3c529f061fc50b33c,Mężczyzna,19,2021-09-06_20h25.39.586,rantool2,2021.1.4,Linux x86_64,60.0024001,6135e006383e6ea6c3d06a28,61365c78fb916b0240a22fb4,"[""comma""]",0,[0.2826000000005422],5,0,5,0,1
,,,,,,,60bf82f3c529f061fc50b33c,,,,,,60bf82f3c529f061fc50b33c,Mężczyzna,19,2021-09-06_20h25.39.586,rantool2,2021.1.4,Linux x86_64,60.0024001,6135e006383e6ea6c3d06a28,61365c78fb916b0240a22fb4,"[""comma""]",0,[0.2750999999996395],6,0,6,0,1
,,,,,,,60bf82f3c529f061fc50b33c,,,,,,60bf82f3c529f061fc50b33c,Mężczyzna,19,2021-09-06_20h25.39.586,rantool2,2021.1.4,Linux x86_64,60.0024001,6135e006383e6ea6c3d06a28,61365c78fb916b0240a22fb4,"[""period""]",0,[0.37000000000000455],7,0,7,0,1
,,,,,,,60bf82f3c529f061fc50b33c,,,,,,60bf82f3c529f061fc50b33c,Mężczyzna,19,2021-09-06_20h25.39.586,rantool2,2021.1.4,Linux x86_64,60.0024001,6135e006383e6ea6c3d06a28,61365c78fb916b0240a22fb4,"[""period""]",0,[0.14929999999981192],8,0,8,0,1
,,,,,,,60bf82f3c529f061fc50b33c,,,,,,60bf82f3c529f061fc50b33c,Mężczyzna,19,2021-09-06_20h25.39.586,rantool2,2021.1.4,Linux x86_64,60.0024001,6135e006383e6ea6c3d06a28,61365c78fb916b0240a22fb4,"[""comma""]",0,[0.3464000000003864],9,0,9,0,1
,,,,,,,60bf82f3c529f061fc50b33c,,,,,,60bf82f3c529f061fc50b33c,Mężczyzna,19,2021-09-06_20h25.39.586,rantool2,2021.1.4,Linux x86_64,60.0024001,6135e006383e6ea6c3d06a28,61365c78fb916b0240a22fb4,"[""period""]",0,[0.26739999999944075],10,0,10,0,1
,,,,,,,60bf82f3c529f061fc50b33c,,,,,,60bf82f3c529f061fc50b33c,Mężczyzna,19,2021-09-06_20h25.39.586,rantool2,2021.1.4,Linux x86_64,60.0024001,6135e006383e6ea6c3d06a28,61365c78fb916b0240a22fb4,"[""comma""]",0,[0.2835999999996375],11,0,11,0,1
,,,,,,,60bf82f3c529f061fc50b33c,,,,,,60bf82f3c529f061fc50b33c,Mężczyzna,19,2021-09-06_20h25.39.586,rantool2,2021.1.4,Linux x86_64,60.0024001,6135e006383e6ea6c3d06a28,61365c78fb916b0240a22fb4,"[""comma""]",0,[0.23449999999999704],12,0,12,0,1
,,,,,,,60bf82f3c529f061fc50b33c,,,,,,60bf82f3c529f061fc50b33c,Mężczyzna,19,2021-09-06_20h25.39.586,rantool2,2021.1.4,Linux x86_64,60.0024001,6135e006383e6ea6c3d06a28,61365c78fb916b0240a22fb4,"[""comma""]",0,[0.1171999999992579],13,0,13,0,1
,,,,,,,60bf82f3c529f061fc50b33c,,,,,,60bf82f3c529f061fc50b33c,Mężczyzna,19,2021-09-06_20h25.39.586,rantool2,2021.1.4,Linux x86_64,60.0024001,6135e006383e6ea6c3d06a28,61365c78fb916b0240a22fb4,"[""period""]",0,[0.21919999999926176],14,0,14,0,1
,,,,,,,60bf82f3c529f061fc50b33c,,,,,,60bf82f3c529f061fc50b33c,Mężczyzna,19,2021-09-06_20h25.39.586,rantool2,2021.1.4,Linux x86_64,60.0024001,6135e006383e6ea6c3d06a28,61365c78fb916b0240a22fb4,"[""period""]",0,[0.05179999999981533],15,0,15,0,1
,,,,,,,60bf82f3c529f061fc50b33c,,,,,,60bf82f3c529f061fc50b33c,Mężczyzna,19,2021-09-06_20h25.39.586,rantool2,2021.1.4,Linux x86_64,60.0024001,6135e006383e6ea6c3d06a28,61365c78fb916b0240a22fb4,"[""comma""]",0,[0.05940000000035184],16,0,16,0,1
,,,,,,,60bf82f3c529f061fc50b33c,,,,,,60bf82f3c529f061fc50b33c,Mężczyzna,19,2021-09-06_20h25.39.586,rantool2,2021.1.4,Linux x86_64,60.0024001,6135e006383e6ea6c3d06a28,61365c78fb916b0240a22fb4,"[""period"",""comma""]",0,"[0.09199999999998454,1.95569999999924]",17,0,17,0,1
,,,,,,,60bf82f3c529f061fc50b33c,,,,,,60bf82f3c529f061fc50b33c,Mężczyzna,19,2021-09-06_20h25.39.586,rantool2,2021.1.4,Linux x86_64,60.0024001,6135e006383e6ea6c3d06a28,61365c78fb916b0240a22fb4,0,0,,18,0,18,0,1
,,,,,,,60bf82f3c529f061fc50b33c,,,,,,60bf82f3c529f061fc50b33c,Mężczyzna,19,2021-09-06_20h25.39.586,rantool2,2021.1.4,Linux x86_64,60.0024001,6135e006383e6ea6c3d06a28,61365c78fb916b0240a22fb4,"[""period""]",0,[0.5072000000001822],19,0,19,0,1
,,,,,,,60bf82f3c529f061fc50b33c,,,,,,60bf82f3c529f061fc50b33c,Mężczyzna,19,2021-09-06_20h25.39.586,rantool2,2021.1.4,Linux x86_64,60.0024001,6135e006383e6ea6c3d06a28,61365c78fb916b0240a22fb4,"[""period""]",0,[0.24379999999979418],20,0,20,0,1
,,,,,,,60bf82f3c529f061fc50b33c,,,,,,60bf82f3c529f061fc50b33c,Mężczyzna,19,2021-09-06_20h25.39.586,rantool2,2021.1.4,Linux x86_64,60.0024001,6135e006383e6ea6c3d06a28,61365c78fb916b0240a22fb4,"[""comma""]",0,[0.2758999999994103],21,0,21,0,1
,,,,,,,60bf82f3c529f061fc50b33c,,,,,,60bf82f3c529f061fc50b33c,Mężczyzna,19,2021-09-06_20h25.39.586,rantool2,2021.1.4,Linux x86_64,60.0024001,6135e006383e6ea6c3d06a28,61365c78fb916b0240a22fb4,"[""period"",""comma""]",0,"[0.12410000000056698,1.7826000000005706]",22,0,22,0,1
,,,,,,,60bf82f3c529f061fc50b33c,,,,,,60bf82f3c529f061fc50b33c,Mężczyzna,19,2021-09-06_20h25.39.586,rantool2,2021.1.4,Linux x86_64,60.0024001,6135e006383e6ea6c3d06a28,61365c78fb916b0240a22fb4,0,0,,23,0,23,0,1
,,,,,,,60bf82f3c529f061fc50b33c,,,,,,60bf82f3c529f061fc50b33c,Mężczyzna,19,2021-09-06_20h25.39.586,rantool2,2021.1.4,Linux x86_64,60.0024001,6135e006383e6ea6c3d06a28,61365c78fb916b0240a22fb4,"[""period""]",0,[0.11639999999943029],24,0,24,0,1
,,,,,,,60bf82f3c529f061fc50b33c,,,,,,60bf82f3c529f061fc50b33c,Mężczyzna,19,2021-09-06_20h25.39.586,rantool2,2021.1.4,Linux x86_64,60.0024001,6135e006383e6ea6c3d06a28,61365c78fb916b0240a22fb4,"[""period""]",0,[0.028900000000362525],25,0,25,0,1
,,,,,,,60bf82f3c529f061fc50b33c,,,,,,60bf82f3c529f061fc50b33c,Mężczyzna,19,2021-09-06_20h25.39.586,rantool2,2021.1.4,Linux x86_64,60.0024001,6135e006383e6ea6c3d06a28,61365c78fb916b0240a22fb4,"[""comma"",""period""]",0,"[0.22809999999958563,1.787999999999954]",26,0,26,0,1
,,,,,,,60bf82f3c529f061fc50b33c,,,,,,60bf82f3c529f061fc50b33c,Mężczyzna,19,2021-09-06_20h25.39.586,rantool2,2021.1.4,Linux x86_64,60.0024001,6135e006383e6ea6c3d06a28,61365c78fb916b0240a22fb4,0,0,,27,0,27,0,1
,,,,,,,60bf82f3c529f061fc50b33c,,,,,,60bf82f3c529f061fc50b33c,Mężczyzna,19,2021-09-06_20h25.39.586,rantool2,2021.1.4,Linux x86_64,60.0024001,6135e006383e6ea6c3d06a28,61365c78fb916b0240a22fb4,"[""comma""]",0,[0.284700000000214],28,0,28,0,1
,,,,,,,60bf82f3c529f061fc50b33c,,,,,,60bf82f3c529f061fc50b33c,Mężczyzna,19,2021-09-06_20h25.39.586,rantool2,2021.1.4,Linux x86_64,60.0024001,6135e006383e6ea6c3d06a28,61365c78fb916b0240a22fb4,"[""comma""]",0,[0.060199999999213105],29,0,29,0,1
,,,,,,,60bf82f3c529f061fc50b33c,,,,,,60bf82f3c529f061fc50b33c,Mężczyzna,19,2021-09-06_20h25.39.586,rantool2,2021.1.4,Linux x86_64,60.0024001,6135e006383e6ea6c3d06a28,61365c78fb916b0240a22fb4,"[""period""]",0,[0.23679999999978918],30,0,30,0,1
,,,,,,,60bf82f3c529f061fc50b33c,,,,,,60bf82f3c529f061fc50b33c,Mężczyzna,19,2021-09-06_20h25.39.586,rantool2,2021.1.4,Linux x86_64,60.0024001,6135e006383e6ea6c3d06a28,61365c78fb916b0240a22fb4,"[""period"",""comma""]",0,"[0.18920000000019854,1.7729000000003907]",31,0,31,0,1
,,,,,,,60bf82f3c529f061fc50b33c,,,,,,60bf82f3c529f061fc50b33c,Mężczyzna,19,2021-09-06_20h25.39.586,rantool2,2021.1.4,Linux x86_64,60.0024001,6135e006383e6ea6c3d06a28,61365c78fb916b0240a22fb4,0,0,,32,0,32,0,1
,,,,,,,60bf82f3c529f061fc50b33c,,,,,,60bf82f3c529f061fc50b33c,Mężczyzna,19,2021-09-06_20h25.39.586,rantool2,2021.1.4,Linux x86_64,60.0024001,6135e006383e6ea6c3d06a28,61365c78fb916b0240a22fb4,"[""period"",""comma""]",0,"[0.2529999999999859,1.8934000000003834]",33,0,33,0,1
,,,,,,,60bf82f3c529f061fc50b33c,,,,,,60bf82f3c529f061fc50b33c,Mężczyzna,19,2021-09-06_20h25.39.586,rantool2,2021.1.4,Linux x86_64,60.0024001,6135e006383e6ea6c3d06a28,61365c78fb916b0240a22fb4,"[""period""]",0,[1.8455000000000155],34,0,34,0,1
,,,,,,,60bf82f3c529f061fc50b33c,,,,,,60bf82f3c529f061fc50b33c,Mężczyzna,19,2021-09-06_20h25.39.586,rantool2,2021.1.4,Linux x86_64,60.0024001,6135e006383e6ea6c3d06a28,61365c78fb916b0240a22fb4,"[""period""]",0,[1.8534999999999968],35,0,35,0,1
,,,,,,,60bf82f3c529f061fc50b33c,,,,,,60bf82f3c529f061fc50b33c,Mężczyzna,19,2021-09-06_20h25.39.586,rantool2,2021.1.4,Linux x86_64,60.0024001,6135e006383e6ea6c3d06a28,61365c78fb916b0240a22fb4,"[""comma""]",0,[1.8609000000003562],36,0,36,0,1
,,,,,,,60bf82f3c529f061fc50b33c,,,,,,60bf82f3c529f061fc50b33c,Mężczyzna,19,2021-09-06_20h25.39.586,rantool2,2021.1.4,Linux x86_64,60.0024001,6135e006383e6ea6c3d06a28,61365c78fb916b0240a22fb4,"[""period""]",0,[1.7732000000002017],37,0,37,0,1
,,,,,,,60bf82f3c529f061fc50b33c,,,,,,60bf82f3c529f061fc50b33c,Mężczyzna,19,2021-09-06_20h25.39.586,rantool2,2021.1.4,Linux x86_64,60.0024001,6135e006383e6ea6c3d06a28,61365c78fb916b0240a22fb4,"[""comma""]",0,[1.8520000000000323],38,0,38,0,1
,,,,,,,60bf82f3c529f061fc50b33c,,,,,,60bf82f3c529f061fc50b33c,Mężczyzna,19,2021-09-06_20h25.39.586,rantool2,2021.1.4,Linux x86_64,60.0024001,6135e006383e6ea6c3d06a28,61365c78fb916b0240a22fb4,0,0,,39,0,39,0,1
,,,,,,,60bf82f3c529f061fc50b33c,,,,,,60bf82f3c529f061fc50b33c,Mężczyzna,19,2021-09-06_20h25.39.586,rantool2,2021.1.4,Linux x86_64,60.0024001,6135e006383e6ea6c3d06a28,61365c78fb916b0240a22fb4,"[""comma"",""period""]",0,"[0.166799999999796,1.8772999999998206]",40,0,40,0,1
,,,,,,,60bf82f3c529f061fc50b33c,,,,,,60bf82f3c529f061fc50b33c,Mężczyzna,19,2021-09-06_20h25.39.586,rantool2,2021.1.4,Linux x86_64,60.0024001,6135e006383e6ea6c3d06a28,61365c78fb916b0240a22fb4,0,0,,41,0,41,0,1
,,,,,,,60bf82f3c529f061fc50b33c,,,,,,60bf82f3c529f061fc50b33c,Mężczyzna,19,2021-09-06_20h25.39.586,rantool2,2021.1.4,Linux x86_64,60.0024001,6135e006383e6ea6c3d06a28,61365c78fb916b0240a22fb4,"[""comma""]",0,[0.1888000000007537],42,0,42,0,1
,,,,,,,60bf82f3c529f061fc50b33c,,,,,,60bf82f3c529f061fc50b33c,Mężczyzna,19,2021-09-06_20h25.39.586,rantool2,2021.1.4,Linux x86_64,60.0024001,6135e006383e6ea6c3d06a28,61365c78fb916b0240a22fb4,"[""period""]",0,[0.05299999999999727],43,0,43,0,1
,,,,,,,60bf82f3c529f061fc50b33c,,,,,,60bf82f3c529f061fc50b33c,Mężczyzna,19,2021-09-06_20h25.39.586,rantool2,2021.1.4,Linux x86_64,60.0024001,6135e006383e6ea6c3d06a28,61365c78fb916b0240a22fb4,"[""comma""]",0,[0.2459999999999809],44,0,44,0,1
,,,,,,,60bf82f3c529f061fc50b33c,,,,,,60bf82f3c529f061fc50b33c,Mężczyzna,19,2021-09-06_20h25.39.586,rantool2,2021.1.4,Linux x86_64,60.0024001,6135e006383e6ea6c3d06a28,61365c78fb916b0240a22fb4,"[""period""]",0,[0.021000000000015007],45,0,45,0,1
,,,,,,,60bf82f3c529f061fc50b33c,,,,,,60bf82f3c529f061fc50b33c,Mężczyzna,19,2021-09-06_20h25.39.586,rantool2,2021.1.4,Linux x86_64,60.0024001,6135e006383e6ea6c3d06a28,61365c78fb916b0240a22fb4,"[""comma""]",0,[0.13400000000001455],46,0,46,0,1
,,,,,,,60bf82f3c529f061fc50b33c,,,,,,60bf82f3c529f061fc50b33c,Mężczyzna,19,2021-09-06_20h25.39.586,rantool2,2021.1.4,Linux x86_64,60.0024001,6135e006383e6ea6c3d06a28,61365c78fb916b0240a22fb4,"[""period""]",0,[0.6774000000003753],47,0,47,0,1
,,,,,,,60bf82f3c529f061fc50b33c,,,,,,60bf82f3c529f061fc50b33c,Mężczyzna,19,2021-09-06_20h25.39.586,rantool2,2021.1.4,Linux x86_64,60.0024001,6135e006383e6ea6c3d06a28,61365c78fb916b0240a22fb4,"[""comma""]",0,[0.5741000000005556],48,0,48,0,1
,,,,,,,60bf82f3c529f061fc50b33c,,,,,,60bf82f3c529f061fc50b33c,Mężczyzna,19,2021-09-06_20h25.39.586,rantool2,2021.1.4,Linux x86_64,60.0024001,6135e006383e6ea6c3d06a28,61365c78fb916b0240a22fb4,"[""period"",""comma""]",0,"[0.3675999999995838,1.9587000000001353]",49,0,49,0,1
,,,,,,,60bf82f3c529f061fc50b33c,,,,,,60bf82f3c529f061fc50b33c,Mężczyzna,19,2021-09-06_20h25.39.586,rantool2,2021.1.4,Linux x86_64,60.0024001,6135e006383e6ea6c3d06a28,61365c78fb916b0240a22fb4,0,0,,50,0,50,0,1
,,,,,,,60bf82f3c529f061fc50b33c,,,,,,60bf82f3c529f061fc50b33c,Mężczyzna,19,2021-09-06_20h25.39.586,rantool2,2021.1.4,Linux x86_64,60.0024001,6135e006383e6ea6c3d06a28,61365c78fb916b0240a22fb4,"[""period""]",0,[0.23849999999998772],51,0,51,0,1
,,,,,,,60bf82f3c529f061fc50b33c,,,,,,60bf82f3c529f061fc50b33c,Mężczyzna,19,2021-09-06_20h25.39.586,rantool2,2021.1.4,Linux x86_64,60.0024001,6135e006383e6ea6c3d06a28,61365c78fb916b0240a22fb4,"[""period""]",0,[0.015900000000328873],52,0,52,0,1
,,,,,,,60bf82f3c529f061fc50b33c,,,,,,60bf82f3c529f061fc50b33c,Mężczyzna,19,2021-09-06_20h25.39.586,rantool2,2021.1.4,Linux x86_64,60.0024001,6135e006383e6ea6c3d06a28,61365c78fb916b0240a22fb4,"[""comma""]",0,[0.35729999999983875],53,0,53,0,1
,,,,,,,60bf82f3c529f061fc50b33c,,,,,,60bf82f3c529f061fc50b33c,Mężczyzna,19,2021-09-06_20h25.39.586,rantool2,2021.1.4,Linux x86_64,60.0024001,6135e006383e6ea6c3d06a28,61365c78fb916b0240a22fb4,"[""comma""]",0,[0.25430000000079644],54,0,54,0,1
,,,,,,,60bf82f3c529f061fc50b33c,,,,,,60bf82f3c529f061fc50b33c,Mężczyzna,19,2021-09-06_20h25.39.586,rantool2,2021.1.4,Linux x86_64,60.0024001,6135e006383e6ea6c3d06a28,61365c78fb916b0240a22fb4,"[""period""]",0,[0.2489999999999668],55,0,55,0,1
,,,,,,,60bf82f3c529f061fc50b33c,,,,,,60bf82f3c529f061fc50b33c,Mężczyzna,19,2021-09-06_20h25.39.586,rantool2,2021.1.4,Linux x86_64,60.0024001,6135e006383e6ea6c3d06a28,61365c78fb916b0240a22fb4,"[""period""]",0,[-0.009500000000002728],56,0,56,0,1
,,,,,,,60bf82f3c529f061fc50b33c,,,,,,60bf82f3c529f061fc50b33c,Mężczyzna,19,2021-09-06_20h25.39.586,rantool2,2021.1.4,Linux x86_64,60.0024001,6135e006383e6ea6c3d06a28,61365c78fb916b0240a22fb4,"[""comma""]",0,[0.3905999999996652],57,0,57,0,1
,,,,,,,60bf82f3c529f061fc50b33c,,,,,,60bf82f3c529f061fc50b33c,Mężczyzna,19,2021-09-06_20h25.39.586,rantool2,2021.1.4,Linux x86_64,60.0024001,6135e006383e6ea6c3d06a28,61365c78fb916b0240a22fb4,"[""period""]",0,[0.2627999999998565],58,0,58,0,1
,,,,,,,60bf82f3c529f061fc50b33c,,,,,,60bf82f3c529f061fc50b33c,Mężczyzna,19,2021-09-06_20h25.39.586,rantool2,2021.1.4,Linux x86_64,60.0024001,6135e006383e6ea6c3d06a28,61365c78fb916b0240a22fb4,"[""period""]",0,[0.25520000000022947],59,0,59,0,1
,,,,,,,60bf82f3c529f061fc50b33c,,,,,,60bf82f3c529f061fc50b33c,Mężczyzna,19,2021-09-06_20h25.39.586,rantool2,2021.1.4,Linux x86_64,60.0024001,6135e006383e6ea6c3d06a28,61365c78fb916b0240a22fb4,"[""comma""]",0,[0.42250000000001364],60,0,60,0,1
,,,,,,,60bf82f3c529f061fc50b33c,,,,,,60bf82f3c529f061fc50b33c,Mężczyzna,19,2021-09-06_20h25.39.586,rantool2,2021.1.4,Linux x86_64,60.0024001,6135e006383e6ea6c3d06a28,61365c78fb916b0240a22fb4,"[""period""]",0,[0.36599999999998545],61,0,61,0,1
,,,,,,,60bf82f3c529f061fc50b33c,,,,,,60bf82f3c529f061fc50b33c,Mężczyzna,19,2021-09-06_20h25.39.586,rantool2,2021.1.4,Linux x86_64,60.0024001,6135e006383e6ea6c3d06a28,61365c78fb916b0240a22fb4,"[""comma""]",0,[0.45009999999962247],62,0,62,0,1
,,,,,,,60bf82f3c529f061fc50b33c,,,,,,60bf82f3c529f061fc50b33c,Mężczyzna,19,2021-09-06_20h25.39.586,rantool2,2021.1.4,Linux x86_64,60.0024001,6135e006383e6ea6c3d06a28,61365c78fb916b0240a22fb4,"[""period""]",0,[0.007000000000005002],63,0,63,0,1
,,,,,,,60bf82f3c529f061fc50b33c,,,,,,60bf82f3c529f061fc50b33c,Mężczyzna,19,2021-09-06_20h25.39.586,rantool2,2021.1.4,Linux x86_64,60.0024001,6135e006383e6ea6c3d06a28,61365c78fb916b0240a22fb4,"[""period""]",0,[1.5422000000001503],64,0,64,0,1
,,,,,,,60bf82f3c529f061fc50b33c,,,,,,60bf82f3c529f061fc50b33c,Mężczyzna,19,2021-09-06_20h25.39.586,rantool2,2021.1.4,Linux x86_64,60.0024001,6135e006383e6ea6c3d06a28,61365c78fb916b0240a22fb4,"[""comma""]",0,[1.4164000000003512],65,0,65,0,1
,,,,,,,60bf82f3c529f061fc50b33c,,,,,,60bf82f3c529f061fc50b33c,Mężczyzna,19,2021-09-06_20h25.39.586,rantool2,2021.1.4,Linux x86_64,60.0024001,6135e006383e6ea6c3d06a28,61365c78fb916b0240a22fb4,0,0,,66,0,66,0,1
,,,,,,,60bf82f3c529f061fc50b33c,,,,,,60bf82f3c529f061fc50b33c,Mężczyzna,19,2021-09-06_20h25.39.586,rantool2,2021.1.4,Linux x86_64,60.0024001,6135e006383e6ea6c3d06a28,61365c78fb916b0240a22fb4,"[""period""]",0,[0.6399000000003525],67,0,67,0,1
,,,,,,,60bf82f3c529f061fc50b33c,,,,,,60bf82f3c529f061fc50b33c,Mężczyzna,19,2021-09-06_20h25.39.586,rantool2,2021.1.4,Linux x86_64,60.0024001,6135e006383e6ea6c3d06a28,61365c78fb916b0240a22fb4,"[""period""]",0,[1.5753999999994903],68,0,68,0,1
,,,,,,,60bf82f3c529f061fc50b33c,,,,,,60bf82f3c529f061fc50b33c,Mężczyzna,19,2021-09-06_20h25.39.586,rantool2,2021.1.4,Linux x86_64,60.0024001,6135e006383e6ea6c3d06a28,61365c78fb916b0240a22fb4,0,0,,69,0,69,0,1
,,,,,,,60bf82f3c529f061fc50b33c,,,,,,60bf82f3c529f061fc50b33c,Mężczyzna,19,2021-09-06_20h25.39.586,rantool2,2021.1.4,Linux x86_64,60.0024001,6135e006383e6ea6c3d06a28,61365c78fb916b0240a22fb4,"[""comma""]",0,[0.08779999999978827],70,0,70,0,1
,,,,,,,60bf82f3c529f061fc50b33c,,,,,,60bf82f3c529f061fc50b33c,Mężczyzna,19,2021-09-06_20h25.39.586,rantool2,2021.1.4,Linux x86_64,60.0024001,6135e006383e6ea6c3d06a28,61365c78fb916b0240a22fb4,"[""period""]",0,[0.444799999999816],71,0,71,0,1
,,,,,,,60bf82f3c529f061fc50b33c,,,,,,60bf82f3c529f061fc50b33c,Mężczyzna,19,2021-09-06_20h25.39.586,rantool2,2021.1.4,Linux x86_64,60.0024001,6135e006383e6ea6c3d06a28,61365c78fb916b0240a22fb4,"[""period""]",0,[0.6876999999992677],72,0,72,0,1
,,,,,,,60bf82f3c529f061fc50b33c,,,,,,60bf82f3c529f061fc50b33c,Mężczyzna,19,2021-09-06_20h25.39.586,rantool2,2021.1.4,Linux x86_64,60.0024001,6135e006383e6ea6c3d06a28,61365c78fb916b0240a22fb4,"[""comma""]",0,[1.672300000000746],73,0,73,0,1
,,,,,,,60bf82f3c529f061fc50b33c,,,,,,60bf82f3c529f061fc50b33c,Mężczyzna,19,2021-09-06_20h25.39.586,rantool2,2021.1.4,Linux x86_64,60.0024001,6135e006383e6ea6c3d06a28,61365c78fb916b0240a22fb4,"[""period""]",0,[1.360400000000368],74,0,74,0,1
,,,,,,,60bf82f3c529f061fc50b33c,,,,,,60bf82f3c529f061fc50b33c,Mężczyzna,19,2021-09-06_20h25.39.586,rantool2,2021.1.4,Linux x86_64,60.0024001,6135e006383e6ea6c3d06a28,61365c78fb916b0240a22fb4,"[""period""]",0,[0.7276000000005638],75,0,75,0,1
,,,,,,,60bf82f3c529f061fc50b33c,,,,,,60bf82f3c529f061fc50b33c,Mężczyzna,19,2021-09-06_20h25.39.586,rantool2,2021.1.4,Linux x86_64,60.0024001,6135e006383e6ea6c3d06a28,61365c78fb916b0240a22fb4,"[""comma""]",0,[0.46699999999998454],76,0,76,0,1
,,,,,,,60bf82f3c529f061fc50b33c,,,,,,60bf82f3c529f061fc50b33c,Mężczyzna,19,2021-09-06_20h25.39.586,rantool2,2021.1.4,Linux x86_64,60.0024001,6135e006383e6ea6c3d06a28,61365c78fb916b0240a22fb4,"[""comma""]",0,[0.5127000000001658],77,0,77,0,1
,,,,,,,60bf82f3c529f061fc50b33c,,,,,,60bf82f3c529f061fc50b33c,Mężczyzna,19,2021-09-06_20h25.39.586,rantool2,2021.1.4,Linux x86_64,60.0024001,6135e006383e6ea6c3d06a28,61365c78fb916b0240a22fb4,"[""period"",""period""]",0,"[0.4337000000002149,1.8669000000003848]",78,0,78,0,1
,,,,,,,60bf82f3c529f061fc50b33c,,,,,,60bf82f3c529f061fc50b33c,Mężczyzna,19,2021-09-06_20h25.39.586,rantool2,2021.1.4,Linux x86_64,60.0024001,6135e006383e6ea6c3d06a28,61365c78fb916b0240a22fb4,0,0,,79,0,79,0,1
,,,,,,,60bf82f3c529f061fc50b33c,,,,,,60bf82f3c529f061fc50b33c,Mężczyzna,19,2021-09-06_20h25.39.586,rantool2,2021.1.4,Linux x86_64,60.0024001,6135e006383e6ea6c3d06a28,61365c78fb916b0240a22fb4,"[""comma""]",0,[0.6724999999999568],80,0,80,0,1
,,,,,,,60bf82f3c529f061fc50b33c,,,,,,60bf82f3c529f061fc50b33c,Mężczyzna,19,2021-09-06_20h25.39.586,rantool2,2021.1.4,Linux x86_64,60.0024001,6135e006383e6ea6c3d06a28,61365c78fb916b0240a22fb4,"[""period""]",0,[0.4837000000002263],81,0,81,0,1
,,,,,,,60bf82f3c529f061fc50b33c,,,,,,60bf82f3c529f061fc50b33c,Mężczyzna,19,2021-09-06_20h25.39.586,rantool2,2021.1.4,Linux x86_64,60.0024001,6135e006383e6ea6c3d06a28,61365c78fb916b0240a22fb4,"[""period""]",0,[0.20109999999959882],82,0,82,0,1
,,,,,,,60bf82f3c529f061fc50b33c,,,,,,60bf82f3c529f061fc50b33c,Mężczyzna,19,2021-09-06_20h25.39.586,rantool2,2021.1.4,Linux x86_64,60.0024001,6135e006383e6ea6c3d06a28,61365c78fb916b0240a22fb4,"[""comma""]",0,[0.10490000000032751],83,0,83,0,1
,,,,,,,60bf82f3c529f061fc50b33c,,,,,,60bf82f3c529f061fc50b33c,Mężczyzna,19,2021-09-06_20h25.39.586,rantool2,2021.1.4,Linux x86_64,60.0024001,6135e006383e6ea6c3d06a28,61365c78fb916b0240a22fb4,"[""period"",""comma""]",0,"[0.25009999999963384,1.8250999999996225]",84,0,84,0,1
,,,,,,,60bf82f3c529f061fc50b33c,,,,,,60bf82f3c529f061fc50b33c,Mężczyzna,19,2021-09-06_20h25.39.586,rantool2,2021.1.4,Linux x86_64,60.0024001,6135e006383e6ea6c3d06a28,61365c78fb916b0240a22fb4,0,0,,85,0,85,0,1
,,,,,,,60bf82f3c529f061fc50b33c,,,,,,60bf82f3c529f061fc50b33c,Mężczyzna,19,2021-09-06_20h25.39.586,rantool2,2021.1.4,Linux x86_64,60.0024001,6135e006383e6ea6c3d06a28,61365c78fb916b0240a22fb4,"[""period""]",0,[0.25799999999998136],86,0,86,0,1
,,,,,,,60bf82f3c529f061fc50b33c,,,,,,60bf82f3c529f061fc50b33c,Mężczyzna,19,2021-09-06_20h25.39.586,rantool2,2021.1.4,Linux x86_64,60.0024001,6135e006383e6ea6c3d06a28,61365c78fb916b0240a22fb4,"[""comma""]",0,[0.1751000000005547],87,0,87,0,1
,,,,,,,60bf82f3c529f061fc50b33c,,,,,,60bf82f3c529f061fc50b33c,Mężczyzna,19,2021-09-06_20h25.39.586,rantool2,2021.1.4,Linux x86_64,60.0024001,6135e006383e6ea6c3d06a28,61365c78fb916b0240a22fb4,"[""comma""]",0,[0.2734000000003789],88,0,88,0,1
,,,,,,,60bf82f3c529f061fc50b33c,,,,,,60bf82f3c529f061fc50b33c,Mężczyzna,19,2021-09-06_20h25.39.586,rantool2,2021.1.4,Linux x86_64,60.0024001,6135e006383e6ea6c3d06a28,61365c78fb916b0240a22fb4,"[""period""]",0,[0.4256999999992104],89,0,89,0,1
,,,,,,,60bf82f3c529f061fc50b33c,,,,,,60bf82f3c529f061fc50b33c,Mężczyzna,19,2021-09-06_20h25.39.586,rantool2,2021.1.4,Linux x86_64,60.0024001,6135e006383e6ea6c3d06a28,61365c78fb916b0240a22fb4,"[""comma""]",0,[0.4007000000001426],90,0,90,0,1
,,,,,,,60bf82f3c529f061fc50b33c,,,,,,60bf82f3c529f061fc50b33c,Mężczyzna,19,2021-09-06_20h25.39.586,rantool2,2021.1.4,Linux x86_64,60.0024001,6135e006383e6ea6c3d06a28,61365c78fb916b0240a22fb4,"[""period""]",0,[0.3942000000001826],91,0,91,0,1
,,,,,,,60bf82f3c529f061fc50b33c,,,,,,60bf82f3c529f061fc50b33c,Mężczyzna,19,2021-09-06_20h25.39.586,rantool2,2021.1.4,Linux x86_64,60.0024001,6135e006383e6ea6c3d06a28,61365c78fb916b0240a22fb4,"[""comma""]",0,[0.37770000000023174],92,0,92,0,1
,,,,,,,60bf82f3c529f061fc50b33c,,,,,,60bf82f3c529f061fc50b33c,Mężczyzna,19,2021-09-06_20h25.39.586,rantool2,2021.1.4,Linux x86_64,60.0024001,6135e006383e6ea6c3d06a28,61365c78fb916b0240a22fb4,"[""period""]",0,[0.3050999999995838],93,0,93,0,1
,,,,,,,60bf82f3c529f061fc50b33c,,,,,,60bf82f3c529f061fc50b33c,Mężczyzna,19,2021-09-06_20h25.39.586,rantool2,2021.1.4,Linux x86_64,60.0024001,6135e006383e6ea6c3d06a28,61365c78fb916b0240a22fb4,"[""comma""]",0,[0.5457000000001813],94,0,94,0,1
,,,,,,,60bf82f3c529f061fc50b33c,,,,,,60bf82f3c529f061fc50b33c,Mężczyzna,19,2021-09-06_20h25.39.586,rantool2,2021.1.4,Linux x86_64,60.0024001,6135e006383e6ea6c3d06a28,61365c78fb916b0240a22fb4,"[""period"",""period""]",0,"[0.3035999999996193,1.9354000000003566]",95,0,95,0,1
,,,,,,,60bf82f3c529f061fc50b33c,,,,,,60bf82f3c529f061fc50b33c,Mężczyzna,19,2021-09-06_20h25.39.586,rantool2,2021.1.4,Linux x86_64,60.0024001,6135e006383e6ea6c3d06a28,61365c78fb916b0240a22fb4,"[""comma""]",0,[1.8423999999994294],96,0,96,0,1
,,,,,,,60bf82f3c529f061fc50b33c,,,,,,60bf82f3c529f061fc50b33c,Mężczyzna,19,2021-09-06_20h25.39.586,rantool2,2021.1.4,Linux x86_64,60.0024001,6135e006383e6ea6c3d06a28,61365c78fb916b0240a22fb4,"[""comma""]",0,[1.683700000000215],97,0,97,0,1
,,,,,,,60bf82f3c529f061fc50b33c,,,,,,60bf82f3c529f061fc50b33c,Mężczyzna,19,2021-09-06_20h25.39.586,rantool2,2021.1.4,Linux x86_64,60.0024001,6135e006383e6ea6c3d06a28,61365c78fb916b0240a22fb4,0,0,,98,0,98,0,1
,,,,,,,60bf82f3c529f061fc50b33c,,,,,,60bf82f3c529f061fc50b33c,Mężczyzna,19,2021-09-06_20h25.39.586,rantool2,2021.1.4,Linux x86_64,60.0024001,6135e006383e6ea6c3d06a28,61365c78fb916b0240a22fb4,"[""comma""]",0,[0.26659999999964157],99,0,99,0,1
,,,,,,,60bf82f3c529f061fc50b33c,,,,,,60bf82f3c529f061fc50b33c,Mężczyzna,19,2021-09-06_20h25.39.586,rantool2,2021.1.4,Linux x86_64,60.0024001,6135e006383e6ea6c3d06a28,61365c78fb916b0240a22fb4,"[""comma""]",0,[0.2192999999998051],100,0,100,0,1
,,,,,,,60bf82f3c529f061fc50b33c,,,,,,60bf82f3c529f061fc50b33c,Mężczyzna,19,2021-09-06_20h25.39.586,rantool2,2021.1.4,Linux x86_64,60.0024001,6135e006383e6ea6c3d06a28,61365c78fb916b0240a22fb4,"[""comma""]",0,[-0.0052999999998064595],101,0,101,0,1
,,,,,,,60bf82f3c529f061fc50b33c,,,,,,60bf82f3c529f061fc50b33c,Mężczyzna,19,2021-09-06_20h25.39.586,rantool2,2021.1.4,Linux x86_64,60.0024001,6135e006383e6ea6c3d06a28,61365c78fb916b0240a22fb4,"[""period""]",0,[0.2511000000005197],102,0,102,0,1
,,,,,,,60bf82f3c529f061fc50b33c,,,,,,60bf82f3c529f061fc50b33c,Mężczyzna,19,2021-09-06_20h25.39.586,rantool2,2021.1.4,Linux x86_64,60.0024001,6135e006383e6ea6c3d06a28,61365c78fb916b0240a22fb4,"[""comma""]",0,[0.8838999999994144],103,0,103,0,1
,,,,,,,60bf82f3c529f061fc50b33c,,,,,,60bf82f3c529f061fc50b33c,Mężczyzna,19,2021-09-06_20h25.39.586,rantool2,2021.1.4,Linux x86_64,60.0024001,6135e006383e6ea6c3d06a28,61365c78fb916b0240a22fb4,"[""period""]",0,[0.4035000000000082],104,0,104,0,1
,,,,,,,60bf82f3c529f061fc50b33c,,,,,,60bf82f3c529f061fc50b33c,Mężczyzna,19,2021-09-06_20h25.39.586,rantool2,2021.1.4,Linux x86_64,60.0024001,6135e006383e6ea6c3d06a28,61365c78fb916b0240a22fb4,"[""comma""]",0,[0.6192000000001485],105,0,105,0,1
,,,,,,,60bf82f3c529f061fc50b33c,,,,,,60bf82f3c529f061fc50b33c,Mężczyzna,19,2021-09-06_20h25.39.586,rantool2,2021.1.4,Linux x86_64,60.0024001,6135e006383e6ea6c3d06a28,61365c78fb916b0240a22fb4,"[""period""]",0,[0.6588000000007241],106,0,106,0,1
,,,,,,,60bf82f3c529f061fc50b33c,,,,,,60bf82f3c529f061fc50b33c,Mężczyzna,19,2021-09-06_20h25.39.586,rantool2,2021.1.4,Linux x86_64,60.0024001,6135e006383e6ea6c3d06a28,61365c78fb916b0240a22fb4,"[""period""]",0,[0.4832999999998151],107,0,107,0,1
,,,,,,,60bf82f3c529f061fc50b33c,,,,,,60bf82f3c529f061fc50b33c,Mężczyzna,19,2021-09-06_20h25.39.586,rantool2,2021.1.4,Linux x86_64,60.0024001,6135e006383e6ea6c3d06a28,61365c78fb916b0240a22fb4,"[""comma""]",0,[0.4109000000003675],108,0,108,0,1
,,,,,,,60bf82f3c529f061fc50b33c,,,,,,60bf82f3c529f061fc50b33c,Mężczyzna,19,2021-09-06_20h25.39.586,rantool2,2021.1.4,Linux x86_64,60.0024001,6135e006383e6ea6c3d06a28,61365c78fb916b0240a22fb4,"[""period""]",0,[0.15520000000020673],109,0,109,0,1
,,,,,,,60bf82f3c529f061fc50b33c,,,,,,60bf82f3c529f061fc50b33c,Mężczyzna,19,2021-09-06_20h25.39.586,rantool2,2021.1.4,Linux x86_64,60.0024001,6135e006383e6ea6c3d06a28,61365c78fb916b0240a22fb4,"[""period""]",0,[0.23509999999959064],110,0,110,0,1
,,,,,,,60bf82f3c529f061fc50b33c,,,,,,60bf82f3c529f061fc50b33c,Mężczyzna,19,2021-09-06_20h25.39.586,rantool2,2021.1.4,Linux x86_64,60.0024001,6135e006383e6ea6c3d06a28,61365c78fb916b0240a22fb4,"[""period"",""comma""]",0,"[0.02029999999984966,1.9721999999993045]",111,0,111,0,1
,,,,,,,60bf82f3c529f061fc50b33c,,,,,,60bf82f3c529f061fc50b33c,Mężczyzna,19,2021-09-06_20h25.39.586,rantool2,2021.1.4,Linux x86_64,60.0024001,6135e006383e6ea6c3d06a28,61365c78fb916b0240a22fb4,0,0,,112,0,112,0,1
,,,,,,,60bf82f3c529f061fc50b33c,,,,,,60bf82f3c529f061fc50b33c,Mężczyzna,19,2021-09-06_20h25.39.586,rantool2,2021.1.4,Linux x86_64,60.0024001,6135e006383e6ea6c3d06a28,61365c78fb916b0240a22fb4,"[""comma""]",0,[0.34789999999946986],113,0,113,0,1
,,,,,,,60bf82f3c529f061fc50b33c,,,,,,60bf82f3c529f061fc50b33c,Mężczyzna,19,2021-09-06_20h25.39.586,rantool2,2021.1.4,Linux x86_64,60.0024001,6135e006383e6ea6c3d06a28,61365c78fb916b0240a22fb4,"[""period""]",0,[0.30320000000017444],114,0,114,0,1
,,,,,,,60bf82f3c529f061fc50b33c,,,,,,60bf82f3c529f061fc50b33c,Mężczyzna,19,2021-09-06_20h25.39.586,rantool2,2021.1.4,Linux x86_64,60.0024001,6135e006383e6ea6c3d06a28,61365c78fb916b0240a22fb4,"[""comma""]",0,[0.6037999999998647],115,0,115,0,1
,,,,,,,60bf82f3c529f061fc50b33c,,,,,,60bf82f3c529f061fc50b33c,Mężczyzna,19,2021-09-06_20h25.39.586,rantool2,2021.1.4,Linux x86_64,60.0024001,6135e006383e6ea6c3d06a28,61365c78fb916b0240a22fb4,"[""period""]",0,[0.9382000000001653],116,0,116,0,1
,,,,,,,60bf82f3c529f061fc50b33c,,,,,,60bf82f3c529f061fc50b33c,Mężczyzna,19,2021-09-06_20h25.39.586,rantool2,2021.1.4,Linux x86_64,60.0024001,6135e006383e6ea6c3d06a28,61365c78fb916b0240a22fb4,"[""comma""]",0,[0.7071999999992613],117,0,117,0,1
,,,,,,,60bf82f3c529f061fc50b33c,,,,,,60bf82f3c529f061fc50b33c,Mężczyzna,19,2021-09-06_20h25.39.586,rantool2,2021.1.4,Linux x86_64,60.0024001,6135e006383e6ea6c3d06a28,61365c78fb916b0240a22fb4,"[""comma""]",0,[0.0752000000001658],118,0,118,0,1
,,,,,,,60bf82f3c529f061fc50b33c,,,,,,60bf82f3c529f061fc50b33c,Mężczyzna,19,2021-09-06_20h25.39.586,rantool2,2021.1.4,Linux x86_64,60.0024001,6135e006383e6ea6c3d06a28,61365c78fb916b0240a22fb4,"[""period""]",0,[0.09210000000058471],119,0,119,0,1
