key_resp_5.keys,key_resp_5.corr,key_resp_5.rt,trials.thisRepN,trials.thisTrialN,trials.thisN,trials.thisIndex,trials.ran,id*,Płeć*,Wiek*,date,expName,psychopyVersion,OS,frameRate,id,STUDY_ID,SESSION_ID,key_resp_7.keys,key_resp_7.rt,trials_2.thisRepN,trials_2.thisTrialN,trials_2.thisN,trials_2.thisIndex,trials_2.ran,series_0,series_1,acss_0,acss_1,comparison
"[""comma""]",0,[0.7264000000357669],0,0,0,0,1,5f33bbbd5a7f7d1e2fc19a3a,Mężczyzna,33,2021-07-13_22h00.47.841,rantool2,2021.1.4,Win32,59.63029219,5f33bbbd5a7f7d1e2fc19a3a,60d9d14f4a8a35a482e0d9bf,60edef71a9b4fa49b7f1f7ae,,,,,,,,,,,,
"[""comma""]",0,[0.38210000002385414],1,0,1,0,1,5f33bbbd5a7f7d1e2fc19a3a,Mężczyzna,33,2021-07-13_22h00.47.841,rantool2,2021.1.4,Win32,59.63029219,5f33bbbd5a7f7d1e2fc19a3a,60d9d14f4a8a35a482e0d9bf,60edef71a9b4fa49b7f1f7ae,,,,,,,,,,,,
"[""period""]",0,[0.252700000047696],2,0,2,0,1,5f33bbbd5a7f7d1e2fc19a3a,Mężczyzna,33,2021-07-13_22h00.47.841,rantool2,2021.1.4,Win32,59.63029219,5f33bbbd5a7f7d1e2fc19a3a,60d9d14f4a8a35a482e0d9bf,60edef71a9b4fa49b7f1f7ae,,,,,,,,,,,,
"[""period""]",0,[0.2738000000119314],3,0,3,0,1,5f33bbbd5a7f7d1e2fc19a3a,Mężczyzna,33,2021-07-13_22h00.47.841,rantool2,2021.1.4,Win32,59.63029219,5f33bbbd5a7f7d1e2fc19a3a,60d9d14f4a8a35a482e0d9bf,60edef71a9b4fa49b7f1f7ae,,,,,,,,,,,,
"[""comma""]",0,[0.2786999999880777],4,0,4,0,1,5f33bbbd5a7f7d1e2fc19a3a,Mężczyzna,33,2021-07-13_22h00.47.841,rantool2,2021.1.4,Win32,59.63029219,5f33bbbd5a7f7d1e2fc19a3a,60d9d14f4a8a35a482e0d9bf,60edef71a9b4fa49b7f1f7ae,,,,,,,,,,,,
"[""period""]",0,[0.2740999999642213],5,0,5,0,1,5f33bbbd5a7f7d1e2fc19a3a,Mężczyzna,33,2021-07-13_22h00.47.841,rantool2,2021.1.4,Win32,59.63029219,5f33bbbd5a7f7d1e2fc19a3a,60d9d14f4a8a35a482e0d9bf,60edef71a9b4fa49b7f1f7ae,,,,,,,,,,,,
"[""comma""]",0,[0.2963000000119109],6,0,6,0,1,5f33bbbd5a7f7d1e2fc19a3a,Mężczyzna,33,2021-07-13_22h00.47.841,rantool2,2021.1.4,Win32,59.63029219,5f33bbbd5a7f7d1e2fc19a3a,60d9d14f4a8a35a482e0d9bf,60edef71a9b4fa49b7f1f7ae,,,,,,,,,,,,
"[""period""]",0,[0.18339999997613177],7,0,7,0,1,5f33bbbd5a7f7d1e2fc19a3a,Mężczyzna,33,2021-07-13_22h00.47.841,rantool2,2021.1.4,Win32,59.63029219,5f33bbbd5a7f7d1e2fc19a3a,60d9d14f4a8a35a482e0d9bf,60edef71a9b4fa49b7f1f7ae,,,,,,,,,,,,
"[""comma""]",0,[0.35260000002381275],8,0,8,0,1,5f33bbbd5a7f7d1e2fc19a3a,Mężczyzna,33,2021-07-13_22h00.47.841,rantool2,2021.1.4,Win32,59.63029219,5f33bbbd5a7f7d1e2fc19a3a,60d9d14f4a8a35a482e0d9bf,60edef71a9b4fa49b7f1f7ae,,,,,,,,,,,,
"[""period""]",0,[0.3251000000238946],9,0,9,0,1,5f33bbbd5a7f7d1e2fc19a3a,Mężczyzna,33,2021-07-13_22h00.47.841,rantool2,2021.1.4,Win32,59.63029219,5f33bbbd5a7f7d1e2fc19a3a,60d9d14f4a8a35a482e0d9bf,60edef71a9b4fa49b7f1f7ae,,,,,,,,,,,,
"[""comma""]",0,[0.3076999999880172],10,0,10,0,1,5f33bbbd5a7f7d1e2fc19a3a,Mężczyzna,33,2021-07-13_22h00.47.841,rantool2,2021.1.4,Win32,59.63029219,5f33bbbd5a7f7d1e2fc19a3a,60d9d14f4a8a35a482e0d9bf,60edef71a9b4fa49b7f1f7ae,,,,,,,,,,,,
"[""period""]",0,[0.32650000000001],11,0,11,0,1,5f33bbbd5a7f7d1e2fc19a3a,Mężczyzna,33,2021-07-13_22h00.47.841,rantool2,2021.1.4,Win32,59.63029219,5f33bbbd5a7f7d1e2fc19a3a,60d9d14f4a8a35a482e0d9bf,60edef71a9b4fa49b7f1f7ae,,,,,,,,,,,,
"[""comma""]",0,[0.46729999995227445],12,0,12,0,1,5f33bbbd5a7f7d1e2fc19a3a,Mężczyzna,33,2021-07-13_22h00.47.841,rantool2,2021.1.4,Win32,59.63029219,5f33bbbd5a7f7d1e2fc19a3a,60d9d14f4a8a35a482e0d9bf,60edef71a9b4fa49b7f1f7ae,,,,,,,,,,,,
"[""period""]",0,[0.3036000000238346],13,0,13,0,1,5f33bbbd5a7f7d1e2fc19a3a,Mężczyzna,33,2021-07-13_22h00.47.841,rantool2,2021.1.4,Win32,59.63029219,5f33bbbd5a7f7d1e2fc19a3a,60d9d14f4a8a35a482e0d9bf,60edef71a9b4fa49b7f1f7ae,,,,,,,,,,,,
"[""period""]",0,[0.3193000000119355],14,0,14,0,1,5f33bbbd5a7f7d1e2fc19a3a,Mężczyzna,33,2021-07-13_22h00.47.841,rantool2,2021.1.4,Win32,59.63029219,5f33bbbd5a7f7d1e2fc19a3a,60d9d14f4a8a35a482e0d9bf,60edef71a9b4fa49b7f1f7ae,,,,,,,,,,,,
"[""comma""]",0,[0.3564999999999827],15,0,15,0,1,5f33bbbd5a7f7d1e2fc19a3a,Mężczyzna,33,2021-07-13_22h00.47.841,rantool2,2021.1.4,Win32,59.63029219,5f33bbbd5a7f7d1e2fc19a3a,60d9d14f4a8a35a482e0d9bf,60edef71a9b4fa49b7f1f7ae,,,,,,,,,,,,
"[""period""]",0,[0.4257999999523463],16,0,16,0,1,5f33bbbd5a7f7d1e2fc19a3a,Mężczyzna,33,2021-07-13_22h00.47.841,rantool2,2021.1.4,Win32,59.63029219,5f33bbbd5a7f7d1e2fc19a3a,60d9d14f4a8a35a482e0d9bf,60edef71a9b4fa49b7f1f7ae,,,,,,,,,,,,
"[""comma""]",0,[0.4560999999642945],17,0,17,0,1,5f33bbbd5a7f7d1e2fc19a3a,Mężczyzna,33,2021-07-13_22h00.47.841,rantool2,2021.1.4,Win32,59.63029219,5f33bbbd5a7f7d1e2fc19a3a,60d9d14f4a8a35a482e0d9bf,60edef71a9b4fa49b7f1f7ae,,,,,,,,,,,,
"[""period""]",0,[0.3075999999642818],18,0,18,0,1,5f33bbbd5a7f7d1e2fc19a3a,Mężczyzna,33,2021-07-13_22h00.47.841,rantool2,2021.1.4,Win32,59.63029219,5f33bbbd5a7f7d1e2fc19a3a,60d9d14f4a8a35a482e0d9bf,60edef71a9b4fa49b7f1f7ae,,,,,,,,,,,,
"[""period""]",0,[0.38910000002385914],19,0,19,0,1,5f33bbbd5a7f7d1e2fc19a3a,Mężczyzna,33,2021-07-13_22h00.47.841,rantool2,2021.1.4,Win32,59.63029219,5f33bbbd5a7f7d1e2fc19a3a,60d9d14f4a8a35a482e0d9bf,60edef71a9b4fa49b7f1f7ae,,,,,,,,,,,,
"[""comma""]",0,[0.42589999997608174],20,0,20,0,1,5f33bbbd5a7f7d1e2fc19a3a,Mężczyzna,33,2021-07-13_22h00.47.841,rantool2,2021.1.4,Win32,59.63029219,5f33bbbd5a7f7d1e2fc19a3a,60d9d14f4a8a35a482e0d9bf,60edef71a9b4fa49b7f1f7ae,,,,,,,,,,,,
"[""comma""]",0,[0.5416999999880545],21,0,21,0,1,5f33bbbd5a7f7d1e2fc19a3a,Mężczyzna,33,2021-07-13_22h00.47.841,rantool2,2021.1.4,Win32,59.63029219,5f33bbbd5a7f7d1e2fc19a3a,60d9d14f4a8a35a482e0d9bf,60edef71a9b4fa49b7f1f7ae,,,,,,,,,,,,
"[""period""]",0,[0.29269999998814455],22,0,22,0,1,5f33bbbd5a7f7d1e2fc19a3a,Mężczyzna,33,2021-07-13_22h00.47.841,rantool2,2021.1.4,Win32,59.63029219,5f33bbbd5a7f7d1e2fc19a3a,60d9d14f4a8a35a482e0d9bf,60edef71a9b4fa49b7f1f7ae,,,,,,,,,,,,
"[""comma""]",0,[0.3427999999523763],23,0,23,0,1,5f33bbbd5a7f7d1e2fc19a3a,Mężczyzna,33,2021-07-13_22h00.47.841,rantool2,2021.1.4,Win32,59.63029219,5f33bbbd5a7f7d1e2fc19a3a,60d9d14f4a8a35a482e0d9bf,60edef71a9b4fa49b7f1f7ae,,,,,,,,,,,,
"[""period""]",0,[0.3990000000000009],24,0,24,0,1,5f33bbbd5a7f7d1e2fc19a3a,Mężczyzna,33,2021-07-13_22h00.47.841,rantool2,2021.1.4,Win32,59.63029219,5f33bbbd5a7f7d1e2fc19a3a,60d9d14f4a8a35a482e0d9bf,60edef71a9b4fa49b7f1f7ae,,,,,,,,,,,,
"[""comma""]",0,[0.9068999999760763],25,0,25,0,1,5f33bbbd5a7f7d1e2fc19a3a,Mężczyzna,33,2021-07-13_22h00.47.841,rantool2,2021.1.4,Win32,59.63029219,5f33bbbd5a7f7d1e2fc19a3a,60d9d14f4a8a35a482e0d9bf,60edef71a9b4fa49b7f1f7ae,,,,,,,,,,,,
"[""period""]",0,[0.24089999997613631],26,0,26,0,1,5f33bbbd5a7f7d1e2fc19a3a,Mężczyzna,33,2021-07-13_22h00.47.841,rantool2,2021.1.4,Win32,59.63029219,5f33bbbd5a7f7d1e2fc19a3a,60d9d14f4a8a35a482e0d9bf,60edef71a9b4fa49b7f1f7ae,,,,,,,,,,,,
"[""comma""]",0,[0.2581999999880509],27,0,27,0,1,5f33bbbd5a7f7d1e2fc19a3a,Mężczyzna,33,2021-07-13_22h00.47.841,rantool2,2021.1.4,Win32,59.63029219,5f33bbbd5a7f7d1e2fc19a3a,60d9d14f4a8a35a482e0d9bf,60edef71a9b4fa49b7f1f7ae,,,,,,,,,,,,
"[""period""]",0,[0.23249999999995907],28,0,28,0,1,5f33bbbd5a7f7d1e2fc19a3a,Mężczyzna,33,2021-07-13_22h00.47.841,rantool2,2021.1.4,Win32,59.63029219,5f33bbbd5a7f7d1e2fc19a3a,60d9d14f4a8a35a482e0d9bf,60edef71a9b4fa49b7f1f7ae,,,,,,,,,,,,
"[""comma""]",0,[0.2708000000119455],29,0,29,0,1,5f33bbbd5a7f7d1e2fc19a3a,Mężczyzna,33,2021-07-13_22h00.47.841,rantool2,2021.1.4,Win32,59.63029219,5f33bbbd5a7f7d1e2fc19a3a,60d9d14f4a8a35a482e0d9bf,60edef71a9b4fa49b7f1f7ae,,,,,,,,,,,,
"[""period""]",0,[0.35429999995233175],30,0,30,0,1,5f33bbbd5a7f7d1e2fc19a3a,Mężczyzna,33,2021-07-13_22h00.47.841,rantool2,2021.1.4,Win32,59.63029219,5f33bbbd5a7f7d1e2fc19a3a,60d9d14f4a8a35a482e0d9bf,60edef71a9b4fa49b7f1f7ae,,,,,,,,,,,,
"[""comma""]",0,[0.23550000000000182],31,0,31,0,1,5f33bbbd5a7f7d1e2fc19a3a,Mężczyzna,33,2021-07-13_22h00.47.841,rantool2,2021.1.4,Win32,59.63029219,5f33bbbd5a7f7d1e2fc19a3a,60d9d14f4a8a35a482e0d9bf,60edef71a9b4fa49b7f1f7ae,,,,,,,,,,,,
"[""comma""]",0,[0.06269999998812636],32,0,32,0,1,5f33bbbd5a7f7d1e2fc19a3a,Mężczyzna,33,2021-07-13_22h00.47.841,rantool2,2021.1.4,Win32,59.63029219,5f33bbbd5a7f7d1e2fc19a3a,60d9d14f4a8a35a482e0d9bf,60edef71a9b4fa49b7f1f7ae,,,,,,,,,,,,
"[""period""]",0,[0.2985999999642672],33,0,33,0,1,5f33bbbd5a7f7d1e2fc19a3a,Mężczyzna,33,2021-07-13_22h00.47.841,rantool2,2021.1.4,Win32,59.63029219,5f33bbbd5a7f7d1e2fc19a3a,60d9d14f4a8a35a482e0d9bf,60edef71a9b4fa49b7f1f7ae,,,,,,,,,,,,
"[""comma""]",0,[0.2165999999642736],34,0,34,0,1,5f33bbbd5a7f7d1e2fc19a3a,Mężczyzna,33,2021-07-13_22h00.47.841,rantool2,2021.1.4,Win32,59.63029219,5f33bbbd5a7f7d1e2fc19a3a,60d9d14f4a8a35a482e0d9bf,60edef71a9b4fa49b7f1f7ae,,,,,,,,,,,,
"[""period""]",0,[0.15939999997624454],35,0,35,0,1,5f33bbbd5a7f7d1e2fc19a3a,Mężczyzna,33,2021-07-13_22h00.47.841,rantool2,2021.1.4,Win32,59.63029219,5f33bbbd5a7f7d1e2fc19a3a,60d9d14f4a8a35a482e0d9bf,60edef71a9b4fa49b7f1f7ae,,,,,,,,,,,,
"[""comma""]",0,[0.20619999998802996],36,0,36,0,1,5f33bbbd5a7f7d1e2fc19a3a,Mężczyzna,33,2021-07-13_22h00.47.841,rantool2,2021.1.4,Win32,59.63029219,5f33bbbd5a7f7d1e2fc19a3a,60d9d14f4a8a35a482e0d9bf,60edef71a9b4fa49b7f1f7ae,,,,,,,,,,,,
"[""period""]",0,[0.26699999999993906],37,0,37,0,1,5f33bbbd5a7f7d1e2fc19a3a,Mężczyzna,33,2021-07-13_22h00.47.841,rantool2,2021.1.4,Win32,59.63029219,5f33bbbd5a7f7d1e2fc19a3a,60d9d14f4a8a35a482e0d9bf,60edef71a9b4fa49b7f1f7ae,,,,,,,,,,,,
"[""comma""]",0,[0.28269999998803996],38,0,38,0,1,5f33bbbd5a7f7d1e2fc19a3a,Mężczyzna,33,2021-07-13_22h00.47.841,rantool2,2021.1.4,Win32,59.63029219,5f33bbbd5a7f7d1e2fc19a3a,60d9d14f4a8a35a482e0d9bf,60edef71a9b4fa49b7f1f7ae,,,,,,,,,,,,
"[""comma""]",0,[0.2883000000118727],39,0,39,0,1,5f33bbbd5a7f7d1e2fc19a3a,Mężczyzna,33,2021-07-13_22h00.47.841,rantool2,2021.1.4,Win32,59.63029219,5f33bbbd5a7f7d1e2fc19a3a,60d9d14f4a8a35a482e0d9bf,60edef71a9b4fa49b7f1f7ae,,,,,,,,,,,,
"[""period""]",0,[0.005199999988121817],40,0,40,0,1,5f33bbbd5a7f7d1e2fc19a3a,Mężczyzna,33,2021-07-13_22h00.47.841,rantool2,2021.1.4,Win32,59.63029219,5f33bbbd5a7f7d1e2fc19a3a,60d9d14f4a8a35a482e0d9bf,60edef71a9b4fa49b7f1f7ae,,,,,,,,,,,,
"[""period""]",0,[0.09829999995224625],41,0,41,0,1,5f33bbbd5a7f7d1e2fc19a3a,Mężczyzna,33,2021-07-13_22h00.47.841,rantool2,2021.1.4,Win32,59.63029219,5f33bbbd5a7f7d1e2fc19a3a,60d9d14f4a8a35a482e0d9bf,60edef71a9b4fa49b7f1f7ae,,,,,,,,,,,,
"[""comma""]",0,[0.2825999999643045],42,0,42,0,1,5f33bbbd5a7f7d1e2fc19a3a,Mężczyzna,33,2021-07-13_22h00.47.841,rantool2,2021.1.4,Win32,59.63029219,5f33bbbd5a7f7d1e2fc19a3a,60d9d14f4a8a35a482e0d9bf,60edef71a9b4fa49b7f1f7ae,,,,,,,,,,,,
"[""period""]",0,[0.1604000000357928],43,0,43,0,1,5f33bbbd5a7f7d1e2fc19a3a,Mężczyzna,33,2021-07-13_22h00.47.841,rantool2,2021.1.4,Win32,59.63029219,5f33bbbd5a7f7d1e2fc19a3a,60d9d14f4a8a35a482e0d9bf,60edef71a9b4fa49b7f1f7ae,,,,,,,,,,,,
"[""period""]",0,[0.3341999999880727],44,0,44,0,1,5f33bbbd5a7f7d1e2fc19a3a,Mężczyzna,33,2021-07-13_22h00.47.841,rantool2,2021.1.4,Win32,59.63029219,5f33bbbd5a7f7d1e2fc19a3a,60d9d14f4a8a35a482e0d9bf,60edef71a9b4fa49b7f1f7ae,,,,,,,,,,,,
"[""comma""]",0,[0.25],45,0,45,0,1,5f33bbbd5a7f7d1e2fc19a3a,Mężczyzna,33,2021-07-13_22h00.47.841,rantool2,2021.1.4,Win32,59.63029219,5f33bbbd5a7f7d1e2fc19a3a,60d9d14f4a8a35a482e0d9bf,60edef71a9b4fa49b7f1f7ae,,,,,,,,,,,,
"[""period""]",0,[0.25900000000001455],46,0,46,0,1,5f33bbbd5a7f7d1e2fc19a3a,Mężczyzna,33,2021-07-13_22h00.47.841,rantool2,2021.1.4,Win32,59.63029219,5f33bbbd5a7f7d1e2fc19a3a,60d9d14f4a8a35a482e0d9bf,60edef71a9b4fa49b7f1f7ae,,,,,,,,,,,,
"[""comma""]",0,[0.3994999999999891],47,0,47,0,1,5f33bbbd5a7f7d1e2fc19a3a,Mężczyzna,33,2021-07-13_22h00.47.841,rantool2,2021.1.4,Win32,59.63029219,5f33bbbd5a7f7d1e2fc19a3a,60d9d14f4a8a35a482e0d9bf,60edef71a9b4fa49b7f1f7ae,,,,,,,,,,,,
"[""comma""]",0,[0.45670000004759004],48,0,48,0,1,5f33bbbd5a7f7d1e2fc19a3a,Mężczyzna,33,2021-07-13_22h00.47.841,rantool2,2021.1.4,Win32,59.63029219,5f33bbbd5a7f7d1e2fc19a3a,60d9d14f4a8a35a482e0d9bf,60edef71a9b4fa49b7f1f7ae,,,,,,,,,,,,
"[""period""]",0,[0.4595000000000482],49,0,49,0,1,5f33bbbd5a7f7d1e2fc19a3a,Mężczyzna,33,2021-07-13_22h00.47.841,rantool2,2021.1.4,Win32,59.63029219,5f33bbbd5a7f7d1e2fc19a3a,60d9d14f4a8a35a482e0d9bf,60edef71a9b4fa49b7f1f7ae,,,,,,,,,,,,
"[""comma""]",0,[0.2693999999761445],50,0,50,0,1,5f33bbbd5a7f7d1e2fc19a3a,Mężczyzna,33,2021-07-13_22h00.47.841,rantool2,2021.1.4,Win32,59.63029219,5f33bbbd5a7f7d1e2fc19a3a,60d9d14f4a8a35a482e0d9bf,60edef71a9b4fa49b7f1f7ae,,,,,,,,,,,,
"[""comma""]",0,[0.31030000001192093],51,0,51,0,1,5f33bbbd5a7f7d1e2fc19a3a,Mężczyzna,33,2021-07-13_22h00.47.841,rantool2,2021.1.4,Win32,59.63029219,5f33bbbd5a7f7d1e2fc19a3a,60d9d14f4a8a35a482e0d9bf,60edef71a9b4fa49b7f1f7ae,,,,,,,,,,,,
"[""comma""]",0,[0.42650000000003274],52,0,52,0,1,5f33bbbd5a7f7d1e2fc19a3a,Mężczyzna,33,2021-07-13_22h00.47.841,rantool2,2021.1.4,Win32,59.63029219,5f33bbbd5a7f7d1e2fc19a3a,60d9d14f4a8a35a482e0d9bf,60edef71a9b4fa49b7f1f7ae,,,,,,,,,,,,
"[""period""]",0,[0.3021999999881473],53,0,53,0,1,5f33bbbd5a7f7d1e2fc19a3a,Mężczyzna,33,2021-07-13_22h00.47.841,rantool2,2021.1.4,Win32,59.63029219,5f33bbbd5a7f7d1e2fc19a3a,60d9d14f4a8a35a482e0d9bf,60edef71a9b4fa49b7f1f7ae,,,,,,,,,,,,
"[""period""]",0,[0.24869999998804815],54,0,54,0,1,5f33bbbd5a7f7d1e2fc19a3a,Mężczyzna,33,2021-07-13_22h00.47.841,rantool2,2021.1.4,Win32,59.63029219,5f33bbbd5a7f7d1e2fc19a3a,60d9d14f4a8a35a482e0d9bf,60edef71a9b4fa49b7f1f7ae,,,,,,,,,,,,
"[""period""]",0,[0.37000000000000455],55,0,55,0,1,5f33bbbd5a7f7d1e2fc19a3a,Mężczyzna,33,2021-07-13_22h00.47.841,rantool2,2021.1.4,Win32,59.63029219,5f33bbbd5a7f7d1e2fc19a3a,60d9d14f4a8a35a482e0d9bf,60edef71a9b4fa49b7f1f7ae,,,,,,,,,,,,
"[""comma""]",0,[0.2833999999761545],56,0,56,0,1,5f33bbbd5a7f7d1e2fc19a3a,Mężczyzna,33,2021-07-13_22h00.47.841,rantool2,2021.1.4,Win32,59.63029219,5f33bbbd5a7f7d1e2fc19a3a,60d9d14f4a8a35a482e0d9bf,60edef71a9b4fa49b7f1f7ae,,,,,,,,,,,,
"[""period""]",0,[0.3468000000118536],57,0,57,0,1,5f33bbbd5a7f7d1e2fc19a3a,Mężczyzna,33,2021-07-13_22h00.47.841,rantool2,2021.1.4,Win32,59.63029219,5f33bbbd5a7f7d1e2fc19a3a,60d9d14f4a8a35a482e0d9bf,60edef71a9b4fa49b7f1f7ae,,,,,,,,,,,,
"[""comma""]",0,[0.21979999995232902],58,0,58,0,1,5f33bbbd5a7f7d1e2fc19a3a,Mężczyzna,33,2021-07-13_22h00.47.841,rantool2,2021.1.4,Win32,59.63029219,5f33bbbd5a7f7d1e2fc19a3a,60d9d14f4a8a35a482e0d9bf,60edef71a9b4fa49b7f1f7ae,,,,,,,,,,,,
"[""period""]",0,[0.34859999996422175],59,0,59,0,1,5f33bbbd5a7f7d1e2fc19a3a,Mężczyzna,33,2021-07-13_22h00.47.841,rantool2,2021.1.4,Win32,59.63029219,5f33bbbd5a7f7d1e2fc19a3a,60d9d14f4a8a35a482e0d9bf,60edef71a9b4fa49b7f1f7ae,,,,,,,,,,,,
"[""comma""]",0,[0.47410000002378183],60,0,60,0,1,5f33bbbd5a7f7d1e2fc19a3a,Mężczyzna,33,2021-07-13_22h00.47.841,rantool2,2021.1.4,Win32,59.63029219,5f33bbbd5a7f7d1e2fc19a3a,60d9d14f4a8a35a482e0d9bf,60edef71a9b4fa49b7f1f7ae,,,,,,,,,,,,
"[""period""]",0,[0.5031000000238919],61,0,61,0,1,5f33bbbd5a7f7d1e2fc19a3a,Mężczyzna,33,2021-07-13_22h00.47.841,rantool2,2021.1.4,Win32,59.63029219,5f33bbbd5a7f7d1e2fc19a3a,60d9d14f4a8a35a482e0d9bf,60edef71a9b4fa49b7f1f7ae,,,,,,,,,,,,
"[""comma""]",0,[0.30239999997615996],62,0,62,0,1,5f33bbbd5a7f7d1e2fc19a3a,Mężczyzna,33,2021-07-13_22h00.47.841,rantool2,2021.1.4,Win32,59.63029219,5f33bbbd5a7f7d1e2fc19a3a,60d9d14f4a8a35a482e0d9bf,60edef71a9b4fa49b7f1f7ae,,,,,,,,,,,,
"[""period""]",0,[0.5353000000119437],63,0,63,0,1,5f33bbbd5a7f7d1e2fc19a3a,Mężczyzna,33,2021-07-13_22h00.47.841,rantool2,2021.1.4,Win32,59.63029219,5f33bbbd5a7f7d1e2fc19a3a,60d9d14f4a8a35a482e0d9bf,60edef71a9b4fa49b7f1f7ae,,,,,,,,,,,,
"[""comma""]",0,[0.3531000000239146],64,0,64,0,1,5f33bbbd5a7f7d1e2fc19a3a,Mężczyzna,33,2021-07-13_22h00.47.841,rantool2,2021.1.4,Win32,59.63029219,5f33bbbd5a7f7d1e2fc19a3a,60d9d14f4a8a35a482e0d9bf,60edef71a9b4fa49b7f1f7ae,,,,,,,,,,,,
"[""period""]",0,[0.3758000000119637],65,0,65,0,1,5f33bbbd5a7f7d1e2fc19a3a,Mężczyzna,33,2021-07-13_22h00.47.841,rantool2,2021.1.4,Win32,59.63029219,5f33bbbd5a7f7d1e2fc19a3a,60d9d14f4a8a35a482e0d9bf,60edef71a9b4fa49b7f1f7ae,,,,,,,,,,,,
"[""comma""]",0,[0.24589999997613177],66,0,66,0,1,5f33bbbd5a7f7d1e2fc19a3a,Mężczyzna,33,2021-07-13_22h00.47.841,rantool2,2021.1.4,Win32,59.63029219,5f33bbbd5a7f7d1e2fc19a3a,60d9d14f4a8a35a482e0d9bf,60edef71a9b4fa49b7f1f7ae,,,,,,,,,,,,
"[""period""]",0,[0.3333000000119455],67,0,67,0,1,5f33bbbd5a7f7d1e2fc19a3a,Mężczyzna,33,2021-07-13_22h00.47.841,rantool2,2021.1.4,Win32,59.63029219,5f33bbbd5a7f7d1e2fc19a3a,60d9d14f4a8a35a482e0d9bf,60edef71a9b4fa49b7f1f7ae,,,,,,,,,,,,
"[""comma""]",0,[0.37139999997623363],68,0,68,0,1,5f33bbbd5a7f7d1e2fc19a3a,Mężczyzna,33,2021-07-13_22h00.47.841,rantool2,2021.1.4,Win32,59.63029219,5f33bbbd5a7f7d1e2fc19a3a,60d9d14f4a8a35a482e0d9bf,60edef71a9b4fa49b7f1f7ae,,,,,,,,,,,,
"[""period""]",0,[0.45249999999998636],69,0,69,0,1,5f33bbbd5a7f7d1e2fc19a3a,Mężczyzna,33,2021-07-13_22h00.47.841,rantool2,2021.1.4,Win32,59.63029219,5f33bbbd5a7f7d1e2fc19a3a,60d9d14f4a8a35a482e0d9bf,60edef71a9b4fa49b7f1f7ae,,,,,,,,,,,,
"[""comma""]",0,[0.3192999999522499],70,0,70,0,1,5f33bbbd5a7f7d1e2fc19a3a,Mężczyzna,33,2021-07-13_22h00.47.841,rantool2,2021.1.4,Win32,59.63029219,5f33bbbd5a7f7d1e2fc19a3a,60d9d14f4a8a35a482e0d9bf,60edef71a9b4fa49b7f1f7ae,,,,,,,,,,,,
"[""period""]",0,[0.18260000002385368],71,0,71,0,1,5f33bbbd5a7f7d1e2fc19a3a,Mężczyzna,33,2021-07-13_22h00.47.841,rantool2,2021.1.4,Win32,59.63029219,5f33bbbd5a7f7d1e2fc19a3a,60d9d14f4a8a35a482e0d9bf,60edef71a9b4fa49b7f1f7ae,,,,,,,,,,,,
"[""comma""]",0,[0.28260000002376273],72,0,72,0,1,5f33bbbd5a7f7d1e2fc19a3a,Mężczyzna,33,2021-07-13_22h00.47.841,rantool2,2021.1.4,Win32,59.63029219,5f33bbbd5a7f7d1e2fc19a3a,60d9d14f4a8a35a482e0d9bf,60edef71a9b4fa49b7f1f7ae,,,,,,,,,,,,
"[""period""]",0,[0.25390000003574187],73,0,73,0,1,5f33bbbd5a7f7d1e2fc19a3a,Mężczyzna,33,2021-07-13_22h00.47.841,rantool2,2021.1.4,Win32,59.63029219,5f33bbbd5a7f7d1e2fc19a3a,60d9d14f4a8a35a482e0d9bf,60edef71a9b4fa49b7f1f7ae,,,,,,,,,,,,
"[""comma""]",0,[0.23519999998814],74,0,74,0,1,5f33bbbd5a7f7d1e2fc19a3a,Mężczyzna,33,2021-07-13_22h00.47.841,rantool2,2021.1.4,Win32,59.63029219,5f33bbbd5a7f7d1e2fc19a3a,60d9d14f4a8a35a482e0d9bf,60edef71a9b4fa49b7f1f7ae,,,,,,,,,,,,
"[""comma""]",0,[0.245700000047691],75,0,75,0,1,5f33bbbd5a7f7d1e2fc19a3a,Mężczyzna,33,2021-07-13_22h00.47.841,rantool2,2021.1.4,Win32,59.63029219,5f33bbbd5a7f7d1e2fc19a3a,60d9d14f4a8a35a482e0d9bf,60edef71a9b4fa49b7f1f7ae,,,,,,,,,,,,
"[""comma""]",0,[0.3018999999761718],76,0,76,0,1,5f33bbbd5a7f7d1e2fc19a3a,Mężczyzna,33,2021-07-13_22h00.47.841,rantool2,2021.1.4,Win32,59.63029219,5f33bbbd5a7f7d1e2fc19a3a,60d9d14f4a8a35a482e0d9bf,60edef71a9b4fa49b7f1f7ae,,,,,,,,,,,,
"[""comma""]",0,[0.3833000000120137],77,0,77,0,1,5f33bbbd5a7f7d1e2fc19a3a,Mężczyzna,33,2021-07-13_22h00.47.841,rantool2,2021.1.4,Win32,59.63029219,5f33bbbd5a7f7d1e2fc19a3a,60d9d14f4a8a35a482e0d9bf,60edef71a9b4fa49b7f1f7ae,,,,,,,,,,,,
"[""comma""]",0,[0.47560000002386005],78,0,78,0,1,5f33bbbd5a7f7d1e2fc19a3a,Mężczyzna,33,2021-07-13_22h00.47.841,rantool2,2021.1.4,Win32,59.63029219,5f33bbbd5a7f7d1e2fc19a3a,60d9d14f4a8a35a482e0d9bf,60edef71a9b4fa49b7f1f7ae,,,,,,,,,,,,
"[""period""]",0,[0.3363999999761518],79,0,79,0,1,5f33bbbd5a7f7d1e2fc19a3a,Mężczyzna,33,2021-07-13_22h00.47.841,rantool2,2021.1.4,Win32,59.63029219,5f33bbbd5a7f7d1e2fc19a3a,60d9d14f4a8a35a482e0d9bf,60edef71a9b4fa49b7f1f7ae,,,,,,,,,,,,
"[""period""]",0,[0.21159999996427814],80,0,80,0,1,5f33bbbd5a7f7d1e2fc19a3a,Mężczyzna,33,2021-07-13_22h00.47.841,rantool2,2021.1.4,Win32,59.63029219,5f33bbbd5a7f7d1e2fc19a3a,60d9d14f4a8a35a482e0d9bf,60edef71a9b4fa49b7f1f7ae,,,,,,,,,,,,
"[""comma""]",0,[-0.016399999976101753],81,0,81,0,1,5f33bbbd5a7f7d1e2fc19a3a,Mężczyzna,33,2021-07-13_22h00.47.841,rantool2,2021.1.4,Win32,59.63029219,5f33bbbd5a7f7d1e2fc19a3a,60d9d14f4a8a35a482e0d9bf,60edef71a9b4fa49b7f1f7ae,,,,,,,,,,,,
"[""period""]",0,[0.0761999999880345],82,0,82,0,1,5f33bbbd5a7f7d1e2fc19a3a,Mężczyzna,33,2021-07-13_22h00.47.841,rantool2,2021.1.4,Win32,59.63029219,5f33bbbd5a7f7d1e2fc19a3a,60d9d14f4a8a35a482e0d9bf,60edef71a9b4fa49b7f1f7ae,,,,,,,,,,,,
"[""comma""]",0,[0.4953999999761436],83,0,83,0,1,5f33bbbd5a7f7d1e2fc19a3a,Mężczyzna,33,2021-07-13_22h00.47.841,rantool2,2021.1.4,Win32,59.63029219,5f33bbbd5a7f7d1e2fc19a3a,60d9d14f4a8a35a482e0d9bf,60edef71a9b4fa49b7f1f7ae,,,,,,,,,,,,
"[""period""]",0,[0.2893999999761263],84,0,84,0,1,5f33bbbd5a7f7d1e2fc19a3a,Mężczyzna,33,2021-07-13_22h00.47.841,rantool2,2021.1.4,Win32,59.63029219,5f33bbbd5a7f7d1e2fc19a3a,60d9d14f4a8a35a482e0d9bf,60edef71a9b4fa49b7f1f7ae,,,,,,,,,,,,
"[""period""]",0,[0.32090000003586283],85,0,85,0,1,5f33bbbd5a7f7d1e2fc19a3a,Mężczyzna,33,2021-07-13_22h00.47.841,rantool2,2021.1.4,Win32,59.63029219,5f33bbbd5a7f7d1e2fc19a3a,60d9d14f4a8a35a482e0d9bf,60edef71a9b4fa49b7f1f7ae,,,,,,,,,,,,
"[""period""]",0,[0.32460000002390643],86,0,86,0,1,5f33bbbd5a7f7d1e2fc19a3a,Mężczyzna,33,2021-07-13_22h00.47.841,rantool2,2021.1.4,Win32,59.63029219,5f33bbbd5a7f7d1e2fc19a3a,60d9d14f4a8a35a482e0d9bf,60edef71a9b4fa49b7f1f7ae,,,,,,,,,,,,
"[""period""]",0,[0.29259999996418173],87,0,87,0,1,5f33bbbd5a7f7d1e2fc19a3a,Mężczyzna,33,2021-07-13_22h00.47.841,rantool2,2021.1.4,Win32,59.63029219,5f33bbbd5a7f7d1e2fc19a3a,60d9d14f4a8a35a482e0d9bf,60edef71a9b4fa49b7f1f7ae,,,,,,,,,,,,
"[""period""]",0,[0.13369999998815274],88,0,88,0,1,5f33bbbd5a7f7d1e2fc19a3a,Mężczyzna,33,2021-07-13_22h00.47.841,rantool2,2021.1.4,Win32,59.63029219,5f33bbbd5a7f7d1e2fc19a3a,60d9d14f4a8a35a482e0d9bf,60edef71a9b4fa49b7f1f7ae,,,,,,,,,,,,
"[""comma""]",0,[0.22910000002377728],89,0,89,0,1,5f33bbbd5a7f7d1e2fc19a3a,Mężczyzna,33,2021-07-13_22h00.47.841,rantool2,2021.1.4,Win32,59.63029219,5f33bbbd5a7f7d1e2fc19a3a,60d9d14f4a8a35a482e0d9bf,60edef71a9b4fa49b7f1f7ae,,,,,,,,,,,,
"[""comma""]",0,[0.3115999999641872],90,0,90,0,1,5f33bbbd5a7f7d1e2fc19a3a,Mężczyzna,33,2021-07-13_22h00.47.841,rantool2,2021.1.4,Win32,59.63029219,5f33bbbd5a7f7d1e2fc19a3a,60d9d14f4a8a35a482e0d9bf,60edef71a9b4fa49b7f1f7ae,,,,,,,,,,,,
"[""period""]",0,[0.35680000001184453],91,0,91,0,1,5f33bbbd5a7f7d1e2fc19a3a,Mężczyzna,33,2021-07-13_22h00.47.841,rantool2,2021.1.4,Win32,59.63029219,5f33bbbd5a7f7d1e2fc19a3a,60d9d14f4a8a35a482e0d9bf,60edef71a9b4fa49b7f1f7ae,,,,,,,,,,,,
"[""comma""]",0,[0.2582999999523281],92,0,92,0,1,5f33bbbd5a7f7d1e2fc19a3a,Mężczyzna,33,2021-07-13_22h00.47.841,rantool2,2021.1.4,Win32,59.63029219,5f33bbbd5a7f7d1e2fc19a3a,60d9d14f4a8a35a482e0d9bf,60edef71a9b4fa49b7f1f7ae,,,,,,,,,,,,
"[""period""]",0,[0.33339999997610903],93,0,93,0,1,5f33bbbd5a7f7d1e2fc19a3a,Mężczyzna,33,2021-07-13_22h00.47.841,rantool2,2021.1.4,Win32,59.63029219,5f33bbbd5a7f7d1e2fc19a3a,60d9d14f4a8a35a482e0d9bf,60edef71a9b4fa49b7f1f7ae,,,,,,,,,,,,
"[""comma""]",0,[0.4648999999761827],94,0,94,0,1,5f33bbbd5a7f7d1e2fc19a3a,Mężczyzna,33,2021-07-13_22h00.47.841,rantool2,2021.1.4,Win32,59.63029219,5f33bbbd5a7f7d1e2fc19a3a,60d9d14f4a8a35a482e0d9bf,60edef71a9b4fa49b7f1f7ae,,,,,,,,,,,,
"[""period""]",0,[0.6419000000357755],95,0,95,0,1,5f33bbbd5a7f7d1e2fc19a3a,Mężczyzna,33,2021-07-13_22h00.47.841,rantool2,2021.1.4,Win32,59.63029219,5f33bbbd5a7f7d1e2fc19a3a,60d9d14f4a8a35a482e0d9bf,60edef71a9b4fa49b7f1f7ae,,,,,,,,,,,,
"[""comma""]",0,[0.3543999999761809],96,0,96,0,1,5f33bbbd5a7f7d1e2fc19a3a,Mężczyzna,33,2021-07-13_22h00.47.841,rantool2,2021.1.4,Win32,59.63029219,5f33bbbd5a7f7d1e2fc19a3a,60d9d14f4a8a35a482e0d9bf,60edef71a9b4fa49b7f1f7ae,,,,,,,,,,,,
"[""period""]",0,[0.2708999999762227],97,0,97,0,1,5f33bbbd5a7f7d1e2fc19a3a,Mężczyzna,33,2021-07-13_22h00.47.841,rantool2,2021.1.4,Win32,59.63029219,5f33bbbd5a7f7d1e2fc19a3a,60d9d14f4a8a35a482e0d9bf,60edef71a9b4fa49b7f1f7ae,,,,,,,,,,,,
"[""comma""]",0,[0.27549999999996544],98,0,98,0,1,5f33bbbd5a7f7d1e2fc19a3a,Mężczyzna,33,2021-07-13_22h00.47.841,rantool2,2021.1.4,Win32,59.63029219,5f33bbbd5a7f7d1e2fc19a3a,60d9d14f4a8a35a482e0d9bf,60edef71a9b4fa49b7f1f7ae,,,,,,,,,,,,
"[""comma""]",0,[0.012899999976184517],99,0,99,0,1,5f33bbbd5a7f7d1e2fc19a3a,Mężczyzna,33,2021-07-13_22h00.47.841,rantool2,2021.1.4,Win32,59.63029219,5f33bbbd5a7f7d1e2fc19a3a,60d9d14f4a8a35a482e0d9bf,60edef71a9b4fa49b7f1f7ae,,,,,,,,,,,,
"[""comma""]",0,[0.18419999998809544],100,0,100,0,1,5f33bbbd5a7f7d1e2fc19a3a,Mężczyzna,33,2021-07-13_22h00.47.841,rantool2,2021.1.4,Win32,59.63029219,5f33bbbd5a7f7d1e2fc19a3a,60d9d14f4a8a35a482e0d9bf,60edef71a9b4fa49b7f1f7ae,,,,,,,,,,,,
"[""period""]",0,[0.00030000001197549864],101,0,101,0,1,5f33bbbd5a7f7d1e2fc19a3a,Mężczyzna,33,2021-07-13_22h00.47.841,rantool2,2021.1.4,Win32,59.63029219,5f33bbbd5a7f7d1e2fc19a3a,60d9d14f4a8a35a482e0d9bf,60edef71a9b4fa49b7f1f7ae,,,,,,,,,,,,
"[""comma""]",0,[0.06869999998809817],102,0,102,0,1,5f33bbbd5a7f7d1e2fc19a3a,Mężczyzna,33,2021-07-13_22h00.47.841,rantool2,2021.1.4,Win32,59.63029219,5f33bbbd5a7f7d1e2fc19a3a,60d9d14f4a8a35a482e0d9bf,60edef71a9b4fa49b7f1f7ae,,,,,,,,,,,,
"[""comma""]",0,[0.02530000001195276],103,0,103,0,1,5f33bbbd5a7f7d1e2fc19a3a,Mężczyzna,33,2021-07-13_22h00.47.841,rantool2,2021.1.4,Win32,59.63029219,5f33bbbd5a7f7d1e2fc19a3a,60d9d14f4a8a35a482e0d9bf,60edef71a9b4fa49b7f1f7ae,,,,,,,,,,,,
"[""period""]",0,[0.10260000002381275],104,0,104,0,1,5f33bbbd5a7f7d1e2fc19a3a,Mężczyzna,33,2021-07-13_22h00.47.841,rantool2,2021.1.4,Win32,59.63029219,5f33bbbd5a7f7d1e2fc19a3a,60d9d14f4a8a35a482e0d9bf,60edef71a9b4fa49b7f1f7ae,,,,,,,,,,,,
"[""period""]",0,[0.1828999999761436],105,0,105,0,1,5f33bbbd5a7f7d1e2fc19a3a,Mężczyzna,33,2021-07-13_22h00.47.841,rantool2,2021.1.4,Win32,59.63029219,5f33bbbd5a7f7d1e2fc19a3a,60d9d14f4a8a35a482e0d9bf,60edef71a9b4fa49b7f1f7ae,,,,,,,,,,,,
"[""period""]",0,[0.1884000000358128],106,0,106,0,1,5f33bbbd5a7f7d1e2fc19a3a,Mężczyzna,33,2021-07-13_22h00.47.841,rantool2,2021.1.4,Win32,59.63029219,5f33bbbd5a7f7d1e2fc19a3a,60d9d14f4a8a35a482e0d9bf,60edef71a9b4fa49b7f1f7ae,,,,,,,,,,,,
"[""period""]",0,[0.21050000000002456],107,0,107,0,1,5f33bbbd5a7f7d1e2fc19a3a,Mężczyzna,33,2021-07-13_22h00.47.841,rantool2,2021.1.4,Win32,59.63029219,5f33bbbd5a7f7d1e2fc19a3a,60d9d14f4a8a35a482e0d9bf,60edef71a9b4fa49b7f1f7ae,,,,,,,,,,,,
"[""comma""]",0,[0.08749999999997726],108,0,108,0,1,5f33bbbd5a7f7d1e2fc19a3a,Mężczyzna,33,2021-07-13_22h00.47.841,rantool2,2021.1.4,Win32,59.63029219,5f33bbbd5a7f7d1e2fc19a3a,60d9d14f4a8a35a482e0d9bf,60edef71a9b4fa49b7f1f7ae,,,,,,,,,,,,
"[""period""]",0,[0.08710000002383822],109,0,109,0,1,5f33bbbd5a7f7d1e2fc19a3a,Mężczyzna,33,2021-07-13_22h00.47.841,rantool2,2021.1.4,Win32,59.63029219,5f33bbbd5a7f7d1e2fc19a3a,60d9d14f4a8a35a482e0d9bf,60edef71a9b4fa49b7f1f7ae,,,,,,,,,,,,
"[""comma""]",0,[0.33580000001188637],110,0,110,0,1,5f33bbbd5a7f7d1e2fc19a3a,Mężczyzna,33,2021-07-13_22h00.47.841,rantool2,2021.1.4,Win32,59.63029219,5f33bbbd5a7f7d1e2fc19a3a,60d9d14f4a8a35a482e0d9bf,60edef71a9b4fa49b7f1f7ae,,,,,,,,,,,,
"[""period""]",0,[0.3215999999641781],111,0,111,0,1,5f33bbbd5a7f7d1e2fc19a3a,Mężczyzna,33,2021-07-13_22h00.47.841,rantool2,2021.1.4,Win32,59.63029219,5f33bbbd5a7f7d1e2fc19a3a,60d9d14f4a8a35a482e0d9bf,60edef71a9b4fa49b7f1f7ae,,,,,,,,,,,,
"[""period""]",0,[0.2941999999881091],112,0,112,0,1,5f33bbbd5a7f7d1e2fc19a3a,Mężczyzna,33,2021-07-13_22h00.47.841,rantool2,2021.1.4,Win32,59.63029219,5f33bbbd5a7f7d1e2fc19a3a,60d9d14f4a8a35a482e0d9bf,60edef71a9b4fa49b7f1f7ae,,,,,,,,,,,,
"[""period""]",0,[1.050699999988069],113,0,113,0,1,5f33bbbd5a7f7d1e2fc19a3a,Mężczyzna,33,2021-07-13_22h00.47.841,rantool2,2021.1.4,Win32,59.63029219,5f33bbbd5a7f7d1e2fc19a3a,60d9d14f4a8a35a482e0d9bf,60edef71a9b4fa49b7f1f7ae,,,,,,,,,,,,
"[""period""]",0,[0.49780000001192093],114,0,114,0,1,5f33bbbd5a7f7d1e2fc19a3a,Mężczyzna,33,2021-07-13_22h00.47.841,rantool2,2021.1.4,Win32,59.63029219,5f33bbbd5a7f7d1e2fc19a3a,60d9d14f4a8a35a482e0d9bf,60edef71a9b4fa49b7f1f7ae,,,,,,,,,,,,
"[""comma""]",0,[0.24210000002381094],115,0,115,0,1,5f33bbbd5a7f7d1e2fc19a3a,Mężczyzna,33,2021-07-13_22h00.47.841,rantool2,2021.1.4,Win32,59.63029219,5f33bbbd5a7f7d1e2fc19a3a,60d9d14f4a8a35a482e0d9bf,60edef71a9b4fa49b7f1f7ae,,,,,,,,,,,,
"[""period""]",0,[0.26609999996423994],116,0,116,0,1,5f33bbbd5a7f7d1e2fc19a3a,Mężczyzna,33,2021-07-13_22h00.47.841,rantool2,2021.1.4,Win32,59.63029219,5f33bbbd5a7f7d1e2fc19a3a,60d9d14f4a8a35a482e0d9bf,60edef71a9b4fa49b7f1f7ae,,,,,,,,,,,,
"[""period""]",0,[0.25],117,0,117,0,1,5f33bbbd5a7f7d1e2fc19a3a,Mężczyzna,33,2021-07-13_22h00.47.841,rantool2,2021.1.4,Win32,59.63029219,5f33bbbd5a7f7d1e2fc19a3a,60d9d14f4a8a35a482e0d9bf,60edef71a9b4fa49b7f1f7ae,,,,,,,,,,,,
"[""comma""]",0,[0.20879999995224807],118,0,118,0,1,5f33bbbd5a7f7d1e2fc19a3a,Mężczyzna,33,2021-07-13_22h00.47.841,rantool2,2021.1.4,Win32,59.63029219,5f33bbbd5a7f7d1e2fc19a3a,60d9d14f4a8a35a482e0d9bf,60edef71a9b4fa49b7f1f7ae,,,,,,,,,,,,
"[""period""]",0,[0.23939999997617178],119,0,119,0,1,5f33bbbd5a7f7d1e2fc19a3a,Mężczyzna,33,2021-07-13_22h00.47.841,rantool2,2021.1.4,Win32,59.63029219,5f33bbbd5a7f7d1e2fc19a3a,60d9d14f4a8a35a482e0d9bf,60edef71a9b4fa49b7f1f7ae,,,,,,,,,,,,
,,,,,,,,5f33bbbd5a7f7d1e2fc19a3a,Mężczyzna,33,2021-07-13_22h00.47.841,rantool2,2021.1.4,Win32,59.63029219,5f33bbbd5a7f7d1e2fc19a3a,60d9d14f4a8a35a482e0d9bf,60edef71a9b4fa49b7f1f7ae,j,2.2048,0,0,0,23,1,ORORRRO,ORORRRR,22.1285618,21.9921709,series_0
,,,,,,,,5f33bbbd5a7f7d1e2fc19a3a,Mężczyzna,33,2021-07-13_22h00.47.841,rantool2,2021.1.4,Win32,59.63029219,5f33bbbd5a7f7d1e2fc19a3a,60d9d14f4a8a35a482e0d9bf,60edef71a9b4fa49b7f1f7ae,f,2.0834,0,1,1,56,1,RRROOOO,RRROOOR,21.6194508,22.31681875,series_1
,,,,,,,,5f33bbbd5a7f7d1e2fc19a3a,Mężczyzna,33,2021-07-13_22h00.47.841,rantool2,2021.1.4,Win32,59.63029219,5f33bbbd5a7f7d1e2fc19a3a,60d9d14f4a8a35a482e0d9bf,60edef71a9b4fa49b7f1f7ae,j,1.9638,0,2,2,24,1,ORROOOO,ORROOOR,21.12383932,22.07102821,series_1
,,,,,,,,5f33bbbd5a7f7d1e2fc19a3a,Mężczyzna,33,2021-07-13_22h00.47.841,rantool2,2021.1.4,Win32,59.63029219,5f33bbbd5a7f7d1e2fc19a3a,60d9d14f4a8a35a482e0d9bf,60edef71a9b4fa49b7f1f7ae,f,1.9751,0,3,3,2,1,OOOOROO,OOOOROR,20.43051175,21.02936224,series_1
,,,,,,,,5f33bbbd5a7f7d1e2fc19a3a,Mężczyzna,33,2021-07-13_22h00.47.841,rantool2,2021.1.4,Win32,59.63029219,5f33bbbd5a7f7d1e2fc19a3a,60d9d14f4a8a35a482e0d9bf,60edef71a9b4fa49b7f1f7ae,j,2.0138,0,4,4,34,1,ROOOROO,ROOOROR,21.03750787,21.24781509,series_1
,,,,,,,,5f33bbbd5a7f7d1e2fc19a3a,Mężczyzna,33,2021-07-13_22h00.47.841,rantool2,2021.1.4,Win32,59.63029219,5f33bbbd5a7f7d1e2fc19a3a,60d9d14f4a8a35a482e0d9bf,60edef71a9b4fa49b7f1f7ae,j,1.814,0,5,5,54,1,RRORROO,RRORROR,21.55250791,20.9984461,series_0
,,,,,,,,5f33bbbd5a7f7d1e2fc19a3a,Mężczyzna,33,2021-07-13_22h00.47.841,rantool2,2021.1.4,Win32,59.63029219,5f33bbbd5a7f7d1e2fc19a3a,60d9d14f4a8a35a482e0d9bf,60edef71a9b4fa49b7f1f7ae,j,1.9015,0,6,6,46,1,RORRROO,RORRROR,22.00300695,21.24781509,series_0
,,,,,,,,5f33bbbd5a7f7d1e2fc19a3a,Mężczyzna,33,2021-07-13_22h00.47.841,rantool2,2021.1.4,Win32,59.63029219,5f33bbbd5a7f7d1e2fc19a3a,60d9d14f4a8a35a482e0d9bf,60edef71a9b4fa49b7f1f7ae,f,1.978,0,7,7,39,1,ROORRRO,ROORRRR,21.82425538,21.38562617,series_0
,,,,,,,,5f33bbbd5a7f7d1e2fc19a3a,Mężczyzna,33,2021-07-13_22h00.47.841,rantool2,2021.1.4,Win32,59.63029219,5f33bbbd5a7f7d1e2fc19a3a,60d9d14f4a8a35a482e0d9bf,60edef71a9b4fa49b7f1f7ae,j,1.6448,0,8,8,25,1,ORROORO,ORROORR,21.79500819,22.61624387,series_1
,,,,,,,,5f33bbbd5a7f7d1e2fc19a3a,Mężczyzna,33,2021-07-13_22h00.47.841,rantool2,2021.1.4,Win32,59.63029219,5f33bbbd5a7f7d1e2fc19a3a,60d9d14f4a8a35a482e0d9bf,60edef71a9b4fa49b7f1f7ae,f,1.5813,0,9,9,50,1,RROOROO,RROOROR,21.73568164,22.02566557,series_1
,,,,,,,,5f33bbbd5a7f7d1e2fc19a3a,Mężczyzna,33,2021-07-13_22h00.47.841,rantool2,2021.1.4,Win32,59.63029219,5f33bbbd5a7f7d1e2fc19a3a,60d9d14f4a8a35a482e0d9bf,60edef71a9b4fa49b7f1f7ae,j,1.1744,0,10,10,52,1,RROROOO,RROROOR,22.18365867,22.11097995,series_0
,,,,,,,,5f33bbbd5a7f7d1e2fc19a3a,Mężczyzna,33,2021-07-13_22h00.47.841,rantool2,2021.1.4,Win32,59.63029219,5f33bbbd5a7f7d1e2fc19a3a,60d9d14f4a8a35a482e0d9bf,60edef71a9b4fa49b7f1f7ae,f,1.2928,0,11,11,45,1,RORRORO,RORRORR,20.78182524,21.22513037,series_1
,,,,,,,,5f33bbbd5a7f7d1e2fc19a3a,Mężczyzna,33,2021-07-13_22h00.47.841,rantool2,2021.1.4,Win32,59.63029219,5f33bbbd5a7f7d1e2fc19a3a,60d9d14f4a8a35a482e0d9bf,60edef71a9b4fa49b7f1f7ae,j,1.5326,0,12,12,12,1,OORROOO,OORROOR,21.30250474,22.02786418,series_1
,,,,,,,,5f33bbbd5a7f7d1e2fc19a3a,Mężczyzna,33,2021-07-13_22h00.47.841,rantool2,2021.1.4,Win32,59.63029219,5f33bbbd5a7f7d1e2fc19a3a,60d9d14f4a8a35a482e0d9bf,60edef71a9b4fa49b7f1f7ae,f,1.165,0,13,13,0,1,OOOOOOO,OOOOOOR,18.52739004,19.62521613,series_1
,,,,,,,,5f33bbbd5a7f7d1e2fc19a3a,Mężczyzna,33,2021-07-13_22h00.47.841,rantool2,2021.1.4,Win32,59.63029219,5f33bbbd5a7f7d1e2fc19a3a,60d9d14f4a8a35a482e0d9bf,60edef71a9b4fa49b7f1f7ae,f,1.4032,0,14,14,43,1,RORORRO,RORORRR,20.71309134,21.07490964,series_1
,,,,,,,,5f33bbbd5a7f7d1e2fc19a3a,Mężczyzna,33,2021-07-13_22h00.47.841,rantool2,2021.1.4,Win32,59.63029219,5f33bbbd5a7f7d1e2fc19a3a,60d9d14f4a8a35a482e0d9bf,60edef71a9b4fa49b7f1f7ae,j,1.3588,0,15,15,6,1,OOORROO,OOORROR,21.12383932,21.38562617,series_1
,,,,,,,,5f33bbbd5a7f7d1e2fc19a3a,Mężczyzna,33,2021-07-13_22h00.47.841,rantool2,2021.1.4,Win32,59.63029219,5f33bbbd5a7f7d1e2fc19a3a,60d9d14f4a8a35a482e0d9bf,60edef71a9b4fa49b7f1f7ae,j,1.4583,0,16,16,61,1,RRRRORO,RRRRORR,21.81333602,21.17347734,series_0
,,,,,,,,5f33bbbd5a7f7d1e2fc19a3a,Mężczyzna,33,2021-07-13_22h00.47.841,rantool2,2021.1.4,Win32,59.63029219,5f33bbbd5a7f7d1e2fc19a3a,60d9d14f4a8a35a482e0d9bf,60edef71a9b4fa49b7f1f7ae,f,1.1369,0,17,17,18,1,OROOROO,OROOROR,20.84860893,21.22513037,series_1
,,,,,,,,5f33bbbd5a7f7d1e2fc19a3a,Mężczyzna,33,2021-07-13_22h00.47.841,rantool2,2021.1.4,Win32,59.63029219,5f33bbbd5a7f7d1e2fc19a3a,60d9d14f4a8a35a482e0d9bf,60edef71a9b4fa49b7f1f7ae,j,1.3166,0,18,18,21,1,ORORORO,ORORORR,20.39515459,22.06781359,series_1
,,,,,,,,5f33bbbd5a7f7d1e2fc19a3a,Mężczyzna,33,2021-07-13_22h00.47.841,rantool2,2021.1.4,Win32,59.63029219,5f33bbbd5a7f7d1e2fc19a3a,60d9d14f4a8a35a482e0d9bf,60edef71a9b4fa49b7f1f7ae,j,1.4007,0,19,19,17,1,OROOORO,OROOORR,21.03750787,22.12173012,series_1
,,,,,,,,5f33bbbd5a7f7d1e2fc19a3a,Mężczyzna,33,2021-07-13_22h00.47.841,rantool2,2021.1.4,Win32,59.63029219,5f33bbbd5a7f7d1e2fc19a3a,60d9d14f4a8a35a482e0d9bf,60edef71a9b4fa49b7f1f7ae,j,1.3408,0,20,20,47,1,RORRRRO,RORRRRR,21.81333602,21.02936224,series_0
,,,,,,,,5f33bbbd5a7f7d1e2fc19a3a,Mężczyzna,33,2021-07-13_22h00.47.841,rantool2,2021.1.4,Win32,59.63029219,5f33bbbd5a7f7d1e2fc19a3a,60d9d14f4a8a35a482e0d9bf,60edef71a9b4fa49b7f1f7ae,f,1.4559,0,21,21,31,1,ORRRRRO,ORRRRRR,22.16413392,20.74050628,series_0
,,,,,,,,5f33bbbd5a7f7d1e2fc19a3a,Mężczyzna,33,2021-07-13_22h00.47.841,rantool2,2021.1.4,Win32,59.63029219,5f33bbbd5a7f7d1e2fc19a3a,60d9d14f4a8a35a482e0d9bf,60edef71a9b4fa49b7f1f7ae,j,1.6064,0,22,22,16,1,OROOOOO,OROOOOR,20.43051175,21.17347734,series_1
,,,,,,,,5f33bbbd5a7f7d1e2fc19a3a,Mężczyzna,33,2021-07-13_22h00.47.841,rantool2,2021.1.4,Win32,59.63029219,5f33bbbd5a7f7d1e2fc19a3a,60d9d14f4a8a35a482e0d9bf,60edef71a9b4fa49b7f1f7ae,f,1.5752,0,23,23,36,1,ROOROOO,ROOROOR,21.07991943,20.9984461,series_0
,,,,,,,,5f33bbbd5a7f7d1e2fc19a3a,Mężczyzna,33,2021-07-13_22h00.47.841,rantool2,2021.1.4,Win32,59.63029219,5f33bbbd5a7f7d1e2fc19a3a,60d9d14f4a8a35a482e0d9bf,60edef71a9b4fa49b7f1f7ae,f,1.6146,0,24,24,1,1,OOOOORO,OOOOORR,19.92253567,20.74050628,series_1
,,,,,,,,5f33bbbd5a7f7d1e2fc19a3a,Mężczyzna,33,2021-07-13_22h00.47.841,rantool2,2021.1.4,Win32,59.63029219,5f33bbbd5a7f7d1e2fc19a3a,60d9d14f4a8a35a482e0d9bf,60edef71a9b4fa49b7f1f7ae,j,1.3538,0,25,25,11,1,OORORRO,OORORRR,22.18365867,22.6797523,series_1
,,,,,,,,5f33bbbd5a7f7d1e2fc19a3a,Mężczyzna,33,2021-07-13_22h00.47.841,rantool2,2021.1.4,Win32,59.63029219,5f33bbbd5a7f7d1e2fc19a3a,60d9d14f4a8a35a482e0d9bf,60edef71a9b4fa49b7f1f7ae,j,1.5993,0,26,26,3,1,OOOORRO,OOOORRR,20.90986523,21.74922619,series_1
,,,,,,,,5f33bbbd5a7f7d1e2fc19a3a,Mężczyzna,33,2021-07-13_22h00.47.841,rantool2,2021.1.4,Win32,59.63029219,5f33bbbd5a7f7d1e2fc19a3a,60d9d14f4a8a35a482e0d9bf,60edef71a9b4fa49b7f1f7ae,j,1.4814,0,27,27,10,1,OOROROO,OOROROR,21.31236711,21.07490964,series_0
,,,,,,,,5f33bbbd5a7f7d1e2fc19a3a,Mężczyzna,33,2021-07-13_22h00.47.841,rantool2,2021.1.4,Win32,59.63029219,5f33bbbd5a7f7d1e2fc19a3a,60d9d14f4a8a35a482e0d9bf,60edef71a9b4fa49b7f1f7ae,j,1.6206,0,28,28,44,1,RORROOO,RORROOR,21.66733484,22.02566557,series_1
,,,,,,,,5f33bbbd5a7f7d1e2fc19a3a,Mężczyzna,33,2021-07-13_22h00.47.841,rantool2,2021.1.4,Win32,59.63029219,5f33bbbd5a7f7d1e2fc19a3a,60d9d14f4a8a35a482e0d9bf,60edef71a9b4fa49b7f1f7ae,f,1.1074,0,29,29,53,1,RRORORO,RRORORR,20.71309134,21.90565814,series_1
,,,,,,,,5f33bbbd5a7f7d1e2fc19a3a,Mężczyzna,33,2021-07-13_22h00.47.841,rantool2,2021.1.4,Win32,59.63029219,5f33bbbd5a7f7d1e2fc19a3a,60d9d14f4a8a35a482e0d9bf,60edef71a9b4fa49b7f1f7ae,j,1.1949,0,30,30,26,1,ORROROO,ORROROR,22.02732763,21.71443381,series_0
,,,,,,,,5f33bbbd5a7f7d1e2fc19a3a,Mężczyzna,33,2021-07-13_22h00.47.841,rantool2,2021.1.4,Win32,59.63029219,5f33bbbd5a7f7d1e2fc19a3a,60d9d14f4a8a35a482e0d9bf,60edef71a9b4fa49b7f1f7ae,f,1.1084,0,31,31,35,1,ROOORRO,ROOORRR,21.76276513,22.16977179,series_1
,,,,,,,,5f33bbbd5a7f7d1e2fc19a3a,Mężczyzna,33,2021-07-13_22h00.47.841,rantool2,2021.1.4,Win32,59.63029219,5f33bbbd5a7f7d1e2fc19a3a,60d9d14f4a8a35a482e0d9bf,60edef71a9b4fa49b7f1f7ae,j,0.9205,0,32,32,20,1,OROROOO,OROROOR,21.31236711,21.90565814,series_1
,,,,,,,,5f33bbbd5a7f7d1e2fc19a3a,Mężczyzna,33,2021-07-13_22h00.47.841,rantool2,2021.1.4,Win32,59.63029219,5f33bbbd5a7f7d1e2fc19a3a,60d9d14f4a8a35a482e0d9bf,60edef71a9b4fa49b7f1f7ae,f,1.1001,0,33,33,28,1,ORRROOO,ORRROOR,22.24142883,22.53364006,series_1
,,,,,,,,5f33bbbd5a7f7d1e2fc19a3a,Mężczyzna,33,2021-07-13_22h00.47.841,rantool2,2021.1.4,Win32,59.63029219,5f33bbbd5a7f7d1e2fc19a3a,60d9d14f4a8a35a482e0d9bf,60edef71a9b4fa49b7f1f7ae,j,0.9156,0,34,34,42,1,ROROROO,ROROROR,20.39515459,19.8361834,series_0
,,,,,,,,5f33bbbd5a7f7d1e2fc19a3a,Mężczyzna,33,2021-07-13_22h00.47.841,rantool2,2021.1.4,Win32,59.63029219,5f33bbbd5a7f7d1e2fc19a3a,60d9d14f4a8a35a482e0d9bf,60edef71a9b4fa49b7f1f7ae,f,1.0163,0,35,35,59,1,RRRORRO,RRRORRR,21.56657303,20.89823192,series_0
,,,,,,,,5f33bbbd5a7f7d1e2fc19a3a,Mężczyzna,33,2021-07-13_22h00.47.841,rantool2,2021.1.4,Win32,59.63029219,5f33bbbd5a7f7d1e2fc19a3a,60d9d14f4a8a35a482e0d9bf,60edef71a9b4fa49b7f1f7ae,j,1.0982,0,36,36,13,1,OORRORO,OORRORR,21.66733484,22.11181017,series_1
,,,,,,,,5f33bbbd5a7f7d1e2fc19a3a,Mężczyzna,33,2021-07-13_22h00.47.841,rantool2,2021.1.4,Win32,59.63029219,5f33bbbd5a7f7d1e2fc19a3a,60d9d14f4a8a35a482e0d9bf,60edef71a9b4fa49b7f1f7ae,f,1.1237,0,37,37,30,1,ORRRROO,ORRRROR,22.46748491,22.03072203,series_0
,,,,,,,,5f33bbbd5a7f7d1e2fc19a3a,Mężczyzna,33,2021-07-13_22h00.47.841,rantool2,2021.1.4,Win32,59.63029219,5f33bbbd5a7f7d1e2fc19a3a,60d9d14f4a8a35a482e0d9bf,60edef71a9b4fa49b7f1f7ae,j,0.9938,0,38,38,22,1,ORORROO,ORORROR,22.02732763,21.57657071,series_0
,,,,,,,,5f33bbbd5a7f7d1e2fc19a3a,Mężczyzna,33,2021-07-13_22h00.47.841,rantool2,2021.1.4,Win32,59.63029219,5f33bbbd5a7f7d1e2fc19a3a,60d9d14f4a8a35a482e0d9bf,60edef71a9b4fa49b7f1f7ae,f,1.0059,0,39,39,15,1,OORRRRO,OORRRRR,22.10108823,21.74922619,series_0
,,,,,,,,5f33bbbd5a7f7d1e2fc19a3a,Mężczyzna,33,2021-07-13_22h00.47.841,rantool2,2021.1.4,Win32,59.63029219,5f33bbbd5a7f7d1e2fc19a3a,60d9d14f4a8a35a482e0d9bf,60edef71a9b4fa49b7f1f7ae,j,0.9648,0,40,40,41,1,ROROORO,ROROORR,20.42602454,21.71443381,series_1
,,,,,,,,5f33bbbd5a7f7d1e2fc19a3a,Mężczyzna,33,2021-07-13_22h00.47.841,rantool2,2021.1.4,Win32,59.63029219,5f33bbbd5a7f7d1e2fc19a3a,60d9d14f4a8a35a482e0d9bf,60edef71a9b4fa49b7f1f7ae,f,0.9819,0,41,41,37,1,ROORORO,ROORORR,20.42602454,21.57657071,series_1
,,,,,,,,5f33bbbd5a7f7d1e2fc19a3a,Mężczyzna,33,2021-07-13_22h00.47.841,rantool2,2021.1.4,Win32,59.63029219,5f33bbbd5a7f7d1e2fc19a3a,60d9d14f4a8a35a482e0d9bf,60edef71a9b4fa49b7f1f7ae,j,1.0358,0,42,42,5,1,OOORORO,OOORORR,20.87963819,21.9921709,series_1
,,,,,,,,5f33bbbd5a7f7d1e2fc19a3a,Mężczyzna,33,2021-07-13_22h00.47.841,rantool2,2021.1.4,Win32,59.63029219,5f33bbbd5a7f7d1e2fc19a3a,60d9d14f4a8a35a482e0d9bf,60edef71a9b4fa49b7f1f7ae,f,1.0746,0,43,43,55,1,RRORRRO,RRORRRR,21.56657303,21.21223021,series_0
,,,,,,,,5f33bbbd5a7f7d1e2fc19a3a,Mężczyzna,33,2021-07-13_22h00.47.841,rantool2,2021.1.4,Win32,59.63029219,5f33bbbd5a7f7d1e2fc19a3a,60d9d14f4a8a35a482e0d9bf,60edef71a9b4fa49b7f1f7ae,j,0.8979,0,44,44,4,1,OOOROOO,OOOROOR,19.91402015,21.21223021,series_1
,,,,,,,,5f33bbbd5a7f7d1e2fc19a3a,Mężczyzna,33,2021-07-13_22h00.47.841,rantool2,2021.1.4,Win32,59.63029219,5f33bbbd5a7f7d1e2fc19a3a,60d9d14f4a8a35a482e0d9bf,60edef71a9b4fa49b7f1f7ae,f,0.9938,0,45,45,29,1,ORRRORO,ORRRORR,22.00300695,22.12173012,series_1
,,,,,,,,5f33bbbd5a7f7d1e2fc19a3a,Mężczyzna,33,2021-07-13_22h00.47.841,rantool2,2021.1.4,Win32,59.63029219,5f33bbbd5a7f7d1e2fc19a3a,60d9d14f4a8a35a482e0d9bf,60edef71a9b4fa49b7f1f7ae,j,1.2727,0,46,46,62,1,RRRRROO,RRRRROR,22.16413392,21.27974287,series_0
,,,,,,,,5f33bbbd5a7f7d1e2fc19a3a,Mężczyzna,33,2021-07-13_22h00.47.841,rantool2,2021.1.4,Win32,59.63029219,5f33bbbd5a7f7d1e2fc19a3a,60d9d14f4a8a35a482e0d9bf,60edef71a9b4fa49b7f1f7ae,f,1.2285,0,47,47,19,1,OROORRO,OROORRR,21.73568164,22.11181017,series_1
,,,,,,,,5f33bbbd5a7f7d1e2fc19a3a,Mężczyzna,33,2021-07-13_22h00.47.841,rantool2,2021.1.4,Win32,59.63029219,5f33bbbd5a7f7d1e2fc19a3a,60d9d14f4a8a35a482e0d9bf,60edef71a9b4fa49b7f1f7ae,j,0.9151,0,48,48,8,1,OOROOOO,OOROOOR,19.91402015,20.89823192,series_1
,,,,,,,,5f33bbbd5a7f7d1e2fc19a3a,Mężczyzna,33,2021-07-13_22h00.47.841,rantool2,2021.1.4,Win32,59.63029219,5f33bbbd5a7f7d1e2fc19a3a,60d9d14f4a8a35a482e0d9bf,60edef71a9b4fa49b7f1f7ae,j,1.4847,0,49,49,51,1,RROORRO,RROORRR,21.89852628,22.02786418,series_1
,,,,,,,,5f33bbbd5a7f7d1e2fc19a3a,Mężczyzna,33,2021-07-13_22h00.47.841,rantool2,2021.1.4,Win32,59.63029219,5f33bbbd5a7f7d1e2fc19a3a,60d9d14f4a8a35a482e0d9bf,60edef71a9b4fa49b7f1f7ae,j,1.2746,0,50,50,40,1,ROROOOO,ROROOOR,20.87963819,21.37121559,series_1
,,,,,,,,5f33bbbd5a7f7d1e2fc19a3a,Mężczyzna,33,2021-07-13_22h00.47.841,rantool2,2021.1.4,Win32,59.63029219,5f33bbbd5a7f7d1e2fc19a3a,60d9d14f4a8a35a482e0d9bf,60edef71a9b4fa49b7f1f7ae,f,0.9994,0,51,51,7,1,OOORRRO,OOORRRR,21.6194508,21.899017,series_1
,,,,,,,,5f33bbbd5a7f7d1e2fc19a3a,Mężczyzna,33,2021-07-13_22h00.47.841,rantool2,2021.1.4,Win32,59.63029219,5f33bbbd5a7f7d1e2fc19a3a,60d9d14f4a8a35a482e0d9bf,60edef71a9b4fa49b7f1f7ae,j,1.0356,0,52,52,57,1,RRROORO,RRROORR,21.82425538,22.07102821,series_1
,,,,,,,,5f33bbbd5a7f7d1e2fc19a3a,Mężczyzna,33,2021-07-13_22h00.47.841,rantool2,2021.1.4,Win32,59.63029219,5f33bbbd5a7f7d1e2fc19a3a,60d9d14f4a8a35a482e0d9bf,60edef71a9b4fa49b7f1f7ae,j,1.5646,0,53,53,38,1,ROORROO,ROORROR,21.79500819,21.36812781,series_0
,,,,,,,,5f33bbbd5a7f7d1e2fc19a3a,Mężczyzna,33,2021-07-13_22h00.47.841,rantool2,2021.1.4,Win32,59.63029219,5f33bbbd5a7f7d1e2fc19a3a,60d9d14f4a8a35a482e0d9bf,60edef71a9b4fa49b7f1f7ae,f,1.6564,0,54,54,58,1,RRROROO,RRROROR,22.1285618,21.37121559,series_0
,,,,,,,,5f33bbbd5a7f7d1e2fc19a3a,Mężczyzna,33,2021-07-13_22h00.47.841,rantool2,2021.1.4,Win32,59.63029219,5f33bbbd5a7f7d1e2fc19a3a,60d9d14f4a8a35a482e0d9bf,60edef71a9b4fa49b7f1f7ae,f,1.9473,0,55,55,63,1,RRRRRRO,RRRRRRR,21.35278725,19.62521613,series_0
,,,,,,,,5f33bbbd5a7f7d1e2fc19a3a,Mężczyzna,33,2021-07-13_22h00.47.841,rantool2,2021.1.4,Win32,59.63029219,5f33bbbd5a7f7d1e2fc19a3a,60d9d14f4a8a35a482e0d9bf,60edef71a9b4fa49b7f1f7ae,j,1.3328,0,56,56,49,1,RROOORO,RROOORR,21.76276513,22.53364006,series_1
,,,,,,,,5f33bbbd5a7f7d1e2fc19a3a,Mężczyzna,33,2021-07-13_22h00.47.841,rantool2,2021.1.4,Win32,59.63029219,5f33bbbd5a7f7d1e2fc19a3a,60d9d14f4a8a35a482e0d9bf,60edef71a9b4fa49b7f1f7ae,j,1.3146,0,57,57,60,1,RRRROOO,RRRROOR,22.10108823,22.15934078,series_1
,,,,,,,,5f33bbbd5a7f7d1e2fc19a3a,Mężczyzna,33,2021-07-13_22h00.47.841,rantool2,2021.1.4,Win32,59.63029219,5f33bbbd5a7f7d1e2fc19a3a,60d9d14f4a8a35a482e0d9bf,60edef71a9b4fa49b7f1f7ae,j,1.551,0,58,58,14,1,OORRROO,OORRROR,22.24142883,22.16977179,series_0
,,,,,,,,5f33bbbd5a7f7d1e2fc19a3a,Mężczyzna,33,2021-07-13_22h00.47.841,rantool2,2021.1.4,Win32,59.63029219,5f33bbbd5a7f7d1e2fc19a3a,60d9d14f4a8a35a482e0d9bf,60edef71a9b4fa49b7f1f7ae,j,1.4106,0,59,59,9,1,OOROORO,OOROORR,21.07991943,22.2428857,series_1
,,,,,,,,5f33bbbd5a7f7d1e2fc19a3a,Mężczyzna,33,2021-07-13_22h00.47.841,rantool2,2021.1.4,Win32,59.63029219,5f33bbbd5a7f7d1e2fc19a3a,60d9d14f4a8a35a482e0d9bf,60edef71a9b4fa49b7f1f7ae,j,1.2646,0,60,60,32,1,ROOOOOO,ROOOOOR,19.92253567,21.27974287,series_1
,,,,,,,,5f33bbbd5a7f7d1e2fc19a3a,Mężczyzna,33,2021-07-13_22h00.47.841,rantool2,2021.1.4,Win32,59.63029219,5f33bbbd5a7f7d1e2fc19a3a,60d9d14f4a8a35a482e0d9bf,60edef71a9b4fa49b7f1f7ae,f,1.318,0,61,61,33,1,ROOOORO,ROOOORR,20.83779602,22.03072203,series_1
,,,,,,,,5f33bbbd5a7f7d1e2fc19a3a,Mężczyzna,33,2021-07-13_22h00.47.841,rantool2,2021.1.4,Win32,59.63029219,5f33bbbd5a7f7d1e2fc19a3a,60d9d14f4a8a35a482e0d9bf,60edef71a9b4fa49b7f1f7ae,j,1.0233,0,62,62,27,1,ORRORRO,ORRORRR,21.55250791,22.2428857,series_1
,,,,,,,,5f33bbbd5a7f7d1e2fc19a3a,Mężczyzna,33,2021-07-13_22h00.47.841,rantool2,2021.1.4,Win32,59.63029219,5f33bbbd5a7f7d1e2fc19a3a,60d9d14f4a8a35a482e0d9bf,60edef71a9b4fa49b7f1f7ae,f,1.132,0,63,63,48,1,RROOOOO,RROOOOR,20.90986523,22.15934078,series_1
