key_resp_7.keys,key_resp_7.rt,trials_2.thisRepN,trials_2.thisTrialN,trials_2.thisN,trials_2.thisIndex,trials_2.ran,id,series_0,series_1,acss_0,acss_1,comparison,id*,Płeć*,Wiek*,date,expName,psychopyVersion,OS,frameRate,STUDY_ID,SESSION_ID,key_resp_5.keys,key_resp_5.corr,key_resp_5.rt,trials.thisRepN,trials.thisTrialN,trials.thisN,trials.thisIndex,trials.ran
j,1.7657,0,0,0,14,1,5d4b34eef76ba30018751137,OORRROO,OORRROR,22.24142883,22.16977179,series_0,5d4b34eef76ba30018751137,Kobieta,22,2021-09-06_19h13.29.339,rantool2,2021.1.4,Win32,59.98440405,6135e006383e6ea6c3d06a28,61364b3c0a158a48bbe3f2cc,,,,,,,,
f,1.8494,0,1,1,61,1,5d4b34eef76ba30018751137,RRRRORO,RRRRORR,21.81333602,21.17347734,series_0,5d4b34eef76ba30018751137,Kobieta,22,2021-09-06_19h13.29.339,rantool2,2021.1.4,Win32,59.98440405,6135e006383e6ea6c3d06a28,61364b3c0a158a48bbe3f2cc,,,,,,,,
f,2.218,0,2,2,32,1,5d4b34eef76ba30018751137,ROOOOOO,ROOOOOR,19.92253567,21.27974287,series_1,5d4b34eef76ba30018751137,Kobieta,22,2021-09-06_19h13.29.339,rantool2,2021.1.4,Win32,59.98440405,6135e006383e6ea6c3d06a28,61364b3c0a158a48bbe3f2cc,,,,,,,,
f,2.1329,0,3,3,29,1,5d4b34eef76ba30018751137,ORRRORO,ORRRORR,22.00300695,22.12173012,series_1,5d4b34eef76ba30018751137,Kobieta,22,2021-09-06_19h13.29.339,rantool2,2021.1.4,Win32,59.98440405,6135e006383e6ea6c3d06a28,61364b3c0a158a48bbe3f2cc,,,,,,,,
j,1.9225,0,4,4,59,1,5d4b34eef76ba30018751137,RRRORRO,RRRORRR,21.56657303,20.89823192,series_0,5d4b34eef76ba30018751137,Kobieta,22,2021-09-06_19h13.29.339,rantool2,2021.1.4,Win32,59.98440405,6135e006383e6ea6c3d06a28,61364b3c0a158a48bbe3f2cc,,,,,,,,
f,2.3238,0,5,5,19,1,5d4b34eef76ba30018751137,OROORRO,OROORRR,21.73568164,22.11181017,series_1,5d4b34eef76ba30018751137,Kobieta,22,2021-09-06_19h13.29.339,rantool2,2021.1.4,Win32,59.98440405,6135e006383e6ea6c3d06a28,61364b3c0a158a48bbe3f2cc,,,,,,,,
j,1.9333,0,6,6,40,1,5d4b34eef76ba30018751137,ROROOOO,ROROOOR,20.87963819,21.37121559,series_1,5d4b34eef76ba30018751137,Kobieta,22,2021-09-06_19h13.29.339,rantool2,2021.1.4,Win32,59.98440405,6135e006383e6ea6c3d06a28,61364b3c0a158a48bbe3f2cc,,,,,,,,
f,1.7567,0,7,7,6,1,5d4b34eef76ba30018751137,OOORROO,OOORROR,21.12383932,21.38562617,series_1,5d4b34eef76ba30018751137,Kobieta,22,2021-09-06_19h13.29.339,rantool2,2021.1.4,Win32,59.98440405,6135e006383e6ea6c3d06a28,61364b3c0a158a48bbe3f2cc,,,,,,,,
f,2.4117,0,8,8,48,1,5d4b34eef76ba30018751137,RROOOOO,RROOOOR,20.90986523,22.15934078,series_1,5d4b34eef76ba30018751137,Kobieta,22,2021-09-06_19h13.29.339,rantool2,2021.1.4,Win32,59.98440405,6135e006383e6ea6c3d06a28,61364b3c0a158a48bbe3f2cc,,,,,,,,
f,2.0673,0,9,9,17,1,5d4b34eef76ba30018751137,OROOORO,OROOORR,21.03750787,22.12173012,series_1,5d4b34eef76ba30018751137,Kobieta,22,2021-09-06_19h13.29.339,rantool2,2021.1.4,Win32,59.98440405,6135e006383e6ea6c3d06a28,61364b3c0a158a48bbe3f2cc,,,,,,,,
f,1.8046,0,10,10,26,1,5d4b34eef76ba30018751137,ORROROO,ORROROR,22.02732763,21.71443381,series_0,5d4b34eef76ba30018751137,Kobieta,22,2021-09-06_19h13.29.339,rantool2,2021.1.4,Win32,59.98440405,6135e006383e6ea6c3d06a28,61364b3c0a158a48bbe3f2cc,,,,,,,,
f,1.9664,0,11,11,11,1,5d4b34eef76ba30018751137,OORORRO,OORORRR,22.18365867,22.6797523,series_1,5d4b34eef76ba30018751137,Kobieta,22,2021-09-06_19h13.29.339,rantool2,2021.1.4,Win32,59.98440405,6135e006383e6ea6c3d06a28,61364b3c0a158a48bbe3f2cc,,,,,,,,
j,1.8738,0,12,12,53,1,5d4b34eef76ba30018751137,RRORORO,RRORORR,20.71309134,21.90565814,series_1,5d4b34eef76ba30018751137,Kobieta,22,2021-09-06_19h13.29.339,rantool2,2021.1.4,Win32,59.98440405,6135e006383e6ea6c3d06a28,61364b3c0a158a48bbe3f2cc,,,,,,,,
f,1.4288,0,13,13,56,1,5d4b34eef76ba30018751137,RRROOOO,RRROOOR,21.6194508,22.31681875,series_1,5d4b34eef76ba30018751137,Kobieta,22,2021-09-06_19h13.29.339,rantool2,2021.1.4,Win32,59.98440405,6135e006383e6ea6c3d06a28,61364b3c0a158a48bbe3f2cc,,,,,,,,
j,1.6672,0,14,14,3,1,5d4b34eef76ba30018751137,OOOORRO,OOOORRR,20.90986523,21.74922619,series_1,5d4b34eef76ba30018751137,Kobieta,22,2021-09-06_19h13.29.339,rantool2,2021.1.4,Win32,59.98440405,6135e006383e6ea6c3d06a28,61364b3c0a158a48bbe3f2cc,,,,,,,,
f,1.7828,0,15,15,55,1,5d4b34eef76ba30018751137,RRORRRO,RRORRRR,21.56657303,21.21223021,series_0,5d4b34eef76ba30018751137,Kobieta,22,2021-09-06_19h13.29.339,rantool2,2021.1.4,Win32,59.98440405,6135e006383e6ea6c3d06a28,61364b3c0a158a48bbe3f2cc,,,,,,,,
j,2.0124,0,16,16,43,1,5d4b34eef76ba30018751137,RORORRO,RORORRR,20.71309134,21.07490964,series_1,5d4b34eef76ba30018751137,Kobieta,22,2021-09-06_19h13.29.339,rantool2,2021.1.4,Win32,59.98440405,6135e006383e6ea6c3d06a28,61364b3c0a158a48bbe3f2cc,,,,,,,,
f,1.4911,0,17,17,8,1,5d4b34eef76ba30018751137,OOROOOO,OOROOOR,19.91402015,20.89823192,series_1,5d4b34eef76ba30018751137,Kobieta,22,2021-09-06_19h13.29.339,rantool2,2021.1.4,Win32,59.98440405,6135e006383e6ea6c3d06a28,61364b3c0a158a48bbe3f2cc,,,,,,,,
f,1.9733,0,18,18,21,1,5d4b34eef76ba30018751137,ORORORO,ORORORR,20.39515459,22.06781359,series_1,5d4b34eef76ba30018751137,Kobieta,22,2021-09-06_19h13.29.339,rantool2,2021.1.4,Win32,59.98440405,6135e006383e6ea6c3d06a28,61364b3c0a158a48bbe3f2cc,,,,,,,,
f,1.7747,0,19,19,60,1,5d4b34eef76ba30018751137,RRRROOO,RRRROOR,22.10108823,22.15934078,series_1,5d4b34eef76ba30018751137,Kobieta,22,2021-09-06_19h13.29.339,rantool2,2021.1.4,Win32,59.98440405,6135e006383e6ea6c3d06a28,61364b3c0a158a48bbe3f2cc,,,,,,,,
j,1.673,0,20,20,30,1,5d4b34eef76ba30018751137,ORRRROO,ORRRROR,22.46748491,22.03072203,series_0,5d4b34eef76ba30018751137,Kobieta,22,2021-09-06_19h13.29.339,rantool2,2021.1.4,Win32,59.98440405,6135e006383e6ea6c3d06a28,61364b3c0a158a48bbe3f2cc,,,,,,,,
j,1.9334,0,21,21,45,1,5d4b34eef76ba30018751137,RORRORO,RORRORR,20.78182524,21.22513037,series_1,5d4b34eef76ba30018751137,Kobieta,22,2021-09-06_19h13.29.339,rantool2,2021.1.4,Win32,59.98440405,6135e006383e6ea6c3d06a28,61364b3c0a158a48bbe3f2cc,,,,,,,,
f,1.9209,0,22,22,39,1,5d4b34eef76ba30018751137,ROORRRO,ROORRRR,21.82425538,21.38562617,series_0,5d4b34eef76ba30018751137,Kobieta,22,2021-09-06_19h13.29.339,rantool2,2021.1.4,Win32,59.98440405,6135e006383e6ea6c3d06a28,61364b3c0a158a48bbe3f2cc,,,,,,,,
f,1.9862,0,23,23,50,1,5d4b34eef76ba30018751137,RROOROO,RROOROR,21.73568164,22.02566557,series_1,5d4b34eef76ba30018751137,Kobieta,22,2021-09-06_19h13.29.339,rantool2,2021.1.4,Win32,59.98440405,6135e006383e6ea6c3d06a28,61364b3c0a158a48bbe3f2cc,,,,,,,,
j,2.3334,0,24,24,58,1,5d4b34eef76ba30018751137,RRROROO,RRROROR,22.1285618,21.37121559,series_0,5d4b34eef76ba30018751137,Kobieta,22,2021-09-06_19h13.29.339,rantool2,2021.1.4,Win32,59.98440405,6135e006383e6ea6c3d06a28,61364b3c0a158a48bbe3f2cc,,,,,,,,
f,2.8029,0,25,25,7,1,5d4b34eef76ba30018751137,OOORRRO,OOORRRR,21.6194508,21.899017,series_1,5d4b34eef76ba30018751137,Kobieta,22,2021-09-06_19h13.29.339,rantool2,2021.1.4,Win32,59.98440405,6135e006383e6ea6c3d06a28,61364b3c0a158a48bbe3f2cc,,,,,,,,
f,2.3332,0,26,26,36,1,5d4b34eef76ba30018751137,ROOROOO,ROOROOR,21.07991943,20.9984461,series_0,5d4b34eef76ba30018751137,Kobieta,22,2021-09-06_19h13.29.339,rantool2,2021.1.4,Win32,59.98440405,6135e006383e6ea6c3d06a28,61364b3c0a158a48bbe3f2cc,,,,,,,,
f,2.632,0,27,27,15,1,5d4b34eef76ba30018751137,OORRRRO,OORRRRR,22.10108823,21.74922619,series_0,5d4b34eef76ba30018751137,Kobieta,22,2021-09-06_19h13.29.339,rantool2,2021.1.4,Win32,59.98440405,6135e006383e6ea6c3d06a28,61364b3c0a158a48bbe3f2cc,,,,,,,,
j,3.4079,0,28,28,1,1,5d4b34eef76ba30018751137,OOOOORO,OOOOORR,19.92253567,20.74050628,series_1,5d4b34eef76ba30018751137,Kobieta,22,2021-09-06_19h13.29.339,rantool2,2021.1.4,Win32,59.98440405,6135e006383e6ea6c3d06a28,61364b3c0a158a48bbe3f2cc,,,,,,,,
j,2.767,0,29,29,41,1,5d4b34eef76ba30018751137,ROROORO,ROROORR,20.42602454,21.71443381,series_1,5d4b34eef76ba30018751137,Kobieta,22,2021-09-06_19h13.29.339,rantool2,2021.1.4,Win32,59.98440405,6135e006383e6ea6c3d06a28,61364b3c0a158a48bbe3f2cc,,,,,,,,
j,3.3549,0,30,30,16,1,5d4b34eef76ba30018751137,OROOOOO,OROOOOR,20.43051175,21.17347734,series_1,5d4b34eef76ba30018751137,Kobieta,22,2021-09-06_19h13.29.339,rantool2,2021.1.4,Win32,59.98440405,6135e006383e6ea6c3d06a28,61364b3c0a158a48bbe3f2cc,,,,,,,,
f,2.2838,0,31,31,44,1,5d4b34eef76ba30018751137,RORROOO,RORROOR,21.66733484,22.02566557,series_1,5d4b34eef76ba30018751137,Kobieta,22,2021-09-06_19h13.29.339,rantool2,2021.1.4,Win32,59.98440405,6135e006383e6ea6c3d06a28,61364b3c0a158a48bbe3f2cc,,,,,,,,
j,1.6865,0,32,32,57,1,5d4b34eef76ba30018751137,RRROORO,RRROORR,21.82425538,22.07102821,series_1,5d4b34eef76ba30018751137,Kobieta,22,2021-09-06_19h13.29.339,rantool2,2021.1.4,Win32,59.98440405,6135e006383e6ea6c3d06a28,61364b3c0a158a48bbe3f2cc,,,,,,,,
f,2.3503,0,33,33,2,1,5d4b34eef76ba30018751137,OOOOROO,OOOOROR,20.43051175,21.02936224,series_1,5d4b34eef76ba30018751137,Kobieta,22,2021-09-06_19h13.29.339,rantool2,2021.1.4,Win32,59.98440405,6135e006383e6ea6c3d06a28,61364b3c0a158a48bbe3f2cc,,,,,,,,
f,3.3619,0,34,34,62,1,5d4b34eef76ba30018751137,RRRRROO,RRRRROR,22.16413392,21.27974287,series_0,5d4b34eef76ba30018751137,Kobieta,22,2021-09-06_19h13.29.339,rantool2,2021.1.4,Win32,59.98440405,6135e006383e6ea6c3d06a28,61364b3c0a158a48bbe3f2cc,,,,,,,,
f,2.6178,0,35,35,22,1,5d4b34eef76ba30018751137,ORORROO,ORORROR,22.02732763,21.57657071,series_0,5d4b34eef76ba30018751137,Kobieta,22,2021-09-06_19h13.29.339,rantool2,2021.1.4,Win32,59.98440405,6135e006383e6ea6c3d06a28,61364b3c0a158a48bbe3f2cc,,,,,,,,
j,2.9914,0,36,36,35,1,5d4b34eef76ba30018751137,ROOORRO,ROOORRR,21.76276513,22.16977179,series_1,5d4b34eef76ba30018751137,Kobieta,22,2021-09-06_19h13.29.339,rantool2,2021.1.4,Win32,59.98440405,6135e006383e6ea6c3d06a28,61364b3c0a158a48bbe3f2cc,,,,,,,,
f,2.4841,0,37,37,23,1,5d4b34eef76ba30018751137,ORORRRO,ORORRRR,22.1285618,21.9921709,series_0,5d4b34eef76ba30018751137,Kobieta,22,2021-09-06_19h13.29.339,rantool2,2021.1.4,Win32,59.98440405,6135e006383e6ea6c3d06a28,61364b3c0a158a48bbe3f2cc,,,,,,,,
j,2.5669,0,38,38,25,1,5d4b34eef76ba30018751137,ORROORO,ORROORR,21.79500819,22.61624387,series_1,5d4b34eef76ba30018751137,Kobieta,22,2021-09-06_19h13.29.339,rantool2,2021.1.4,Win32,59.98440405,6135e006383e6ea6c3d06a28,61364b3c0a158a48bbe3f2cc,,,,,,,,
f,2.5346,0,39,39,13,1,5d4b34eef76ba30018751137,OORRORO,OORRORR,21.66733484,22.11181017,series_1,5d4b34eef76ba30018751137,Kobieta,22,2021-09-06_19h13.29.339,rantool2,2021.1.4,Win32,59.98440405,6135e006383e6ea6c3d06a28,61364b3c0a158a48bbe3f2cc,,,,,,,,
j,2.2167,0,40,40,9,1,5d4b34eef76ba30018751137,OOROORO,OOROORR,21.07991943,22.2428857,series_1,5d4b34eef76ba30018751137,Kobieta,22,2021-09-06_19h13.29.339,rantool2,2021.1.4,Win32,59.98440405,6135e006383e6ea6c3d06a28,61364b3c0a158a48bbe3f2cc,,,,,,,,
f,2.3007,0,41,41,49,1,5d4b34eef76ba30018751137,RROOORO,RROOORR,21.76276513,22.53364006,series_1,5d4b34eef76ba30018751137,Kobieta,22,2021-09-06_19h13.29.339,rantool2,2021.1.4,Win32,59.98440405,6135e006383e6ea6c3d06a28,61364b3c0a158a48bbe3f2cc,,,,,,,,
j,2.1667,0,42,42,4,1,5d4b34eef76ba30018751137,OOOROOO,OOOROOR,19.91402015,21.21223021,series_1,5d4b34eef76ba30018751137,Kobieta,22,2021-09-06_19h13.29.339,rantool2,2021.1.4,Win32,59.98440405,6135e006383e6ea6c3d06a28,61364b3c0a158a48bbe3f2cc,,,,,,,,
f,1.8539,0,43,43,0,1,5d4b34eef76ba30018751137,OOOOOOO,OOOOOOR,18.52739004,19.62521613,series_1,5d4b34eef76ba30018751137,Kobieta,22,2021-09-06_19h13.29.339,rantool2,2021.1.4,Win32,59.98440405,6135e006383e6ea6c3d06a28,61364b3c0a158a48bbe3f2cc,,,,,,,,
f,3.1009,0,44,44,34,1,5d4b34eef76ba30018751137,ROOOROO,ROOOROR,21.03750787,21.24781509,series_1,5d4b34eef76ba30018751137,Kobieta,22,2021-09-06_19h13.29.339,rantool2,2021.1.4,Win32,59.98440405,6135e006383e6ea6c3d06a28,61364b3c0a158a48bbe3f2cc,,,,,,,,
j,3.0538,0,45,45,24,1,5d4b34eef76ba30018751137,ORROOOO,ORROOOR,21.12383932,22.07102821,series_1,5d4b34eef76ba30018751137,Kobieta,22,2021-09-06_19h13.29.339,rantool2,2021.1.4,Win32,59.98440405,6135e006383e6ea6c3d06a28,61364b3c0a158a48bbe3f2cc,,,,,,,,
j,2.2257,0,46,46,28,1,5d4b34eef76ba30018751137,ORRROOO,ORRROOR,22.24142883,22.53364006,series_1,5d4b34eef76ba30018751137,Kobieta,22,2021-09-06_19h13.29.339,rantool2,2021.1.4,Win32,59.98440405,6135e006383e6ea6c3d06a28,61364b3c0a158a48bbe3f2cc,,,,,,,,
f,2.0007,0,47,47,38,1,5d4b34eef76ba30018751137,ROORROO,ROORROR,21.79500819,21.36812781,series_0,5d4b34eef76ba30018751137,Kobieta,22,2021-09-06_19h13.29.339,rantool2,2021.1.4,Win32,59.98440405,6135e006383e6ea6c3d06a28,61364b3c0a158a48bbe3f2cc,,,,,,,,
j,1.9509,0,48,48,18,1,5d4b34eef76ba30018751137,OROOROO,OROOROR,20.84860893,21.22513037,series_1,5d4b34eef76ba30018751137,Kobieta,22,2021-09-06_19h13.29.339,rantool2,2021.1.4,Win32,59.98440405,6135e006383e6ea6c3d06a28,61364b3c0a158a48bbe3f2cc,,,,,,,,
f,2.4335,0,49,49,46,1,5d4b34eef76ba30018751137,RORRROO,RORRROR,22.00300695,21.24781509,series_0,5d4b34eef76ba30018751137,Kobieta,22,2021-09-06_19h13.29.339,rantool2,2021.1.4,Win32,59.98440405,6135e006383e6ea6c3d06a28,61364b3c0a158a48bbe3f2cc,,,,,,,,
j,3.0009,0,50,50,37,1,5d4b34eef76ba30018751137,ROORORO,ROORORR,20.42602454,21.57657071,series_1,5d4b34eef76ba30018751137,Kobieta,22,2021-09-06_19h13.29.339,rantool2,2021.1.4,Win32,59.98440405,6135e006383e6ea6c3d06a28,61364b3c0a158a48bbe3f2cc,,,,,,,,
f,2.2008,0,51,51,51,1,5d4b34eef76ba30018751137,RROORRO,RROORRR,21.89852628,22.02786418,series_1,5d4b34eef76ba30018751137,Kobieta,22,2021-09-06_19h13.29.339,rantool2,2021.1.4,Win32,59.98440405,6135e006383e6ea6c3d06a28,61364b3c0a158a48bbe3f2cc,,,,,,,,
f,3.2676,0,52,52,54,1,5d4b34eef76ba30018751137,RRORROO,RRORROR,21.55250791,20.9984461,series_0,5d4b34eef76ba30018751137,Kobieta,22,2021-09-06_19h13.29.339,rantool2,2021.1.4,Win32,59.98440405,6135e006383e6ea6c3d06a28,61364b3c0a158a48bbe3f2cc,,,,,,,,
j,2.6403,0,53,53,27,1,5d4b34eef76ba30018751137,ORRORRO,ORRORRR,21.55250791,22.2428857,series_1,5d4b34eef76ba30018751137,Kobieta,22,2021-09-06_19h13.29.339,rantool2,2021.1.4,Win32,59.98440405,6135e006383e6ea6c3d06a28,61364b3c0a158a48bbe3f2cc,,,,,,,,
f,2.7841,0,54,54,31,1,5d4b34eef76ba30018751137,ORRRRRO,ORRRRRR,22.16413392,20.74050628,series_0,5d4b34eef76ba30018751137,Kobieta,22,2021-09-06_19h13.29.339,rantool2,2021.1.4,Win32,59.98440405,6135e006383e6ea6c3d06a28,61364b3c0a158a48bbe3f2cc,,,,,,,,
j,3.0675,0,55,55,5,1,5d4b34eef76ba30018751137,OOORORO,OOORORR,20.87963819,21.9921709,series_1,5d4b34eef76ba30018751137,Kobieta,22,2021-09-06_19h13.29.339,rantool2,2021.1.4,Win32,59.98440405,6135e006383e6ea6c3d06a28,61364b3c0a158a48bbe3f2cc,,,,,,,,
j,2.6835,0,56,56,10,1,5d4b34eef76ba30018751137,OOROROO,OOROROR,21.31236711,21.07490964,series_0,5d4b34eef76ba30018751137,Kobieta,22,2021-09-06_19h13.29.339,rantool2,2021.1.4,Win32,59.98440405,6135e006383e6ea6c3d06a28,61364b3c0a158a48bbe3f2cc,,,,,,,,
f,3.0675,0,57,57,42,1,5d4b34eef76ba30018751137,ROROROO,ROROROR,20.39515459,19.8361834,series_0,5d4b34eef76ba30018751137,Kobieta,22,2021-09-06_19h13.29.339,rantool2,2021.1.4,Win32,59.98440405,6135e006383e6ea6c3d06a28,61364b3c0a158a48bbe3f2cc,,,,,,,,
j,3.1582,0,58,58,12,1,5d4b34eef76ba30018751137,OORROOO,OORROOR,21.30250474,22.02786418,series_1,5d4b34eef76ba30018751137,Kobieta,22,2021-09-06_19h13.29.339,rantool2,2021.1.4,Win32,59.98440405,6135e006383e6ea6c3d06a28,61364b3c0a158a48bbe3f2cc,,,,,,,,
f,2.3921,0,59,59,52,1,5d4b34eef76ba30018751137,RROROOO,RROROOR,22.18365867,22.11097995,series_0,5d4b34eef76ba30018751137,Kobieta,22,2021-09-06_19h13.29.339,rantool2,2021.1.4,Win32,59.98440405,6135e006383e6ea6c3d06a28,61364b3c0a158a48bbe3f2cc,,,,,,,,
f,3.1839,0,60,60,33,1,5d4b34eef76ba30018751137,ROOOORO,ROOOORR,20.83779602,22.03072203,series_1,5d4b34eef76ba30018751137,Kobieta,22,2021-09-06_19h13.29.339,rantool2,2021.1.4,Win32,59.98440405,6135e006383e6ea6c3d06a28,61364b3c0a158a48bbe3f2cc,,,,,,,,
f,2.7001,0,61,61,63,1,5d4b34eef76ba30018751137,RRRRRRO,RRRRRRR,21.35278725,19.62521613,series_0,5d4b34eef76ba30018751137,Kobieta,22,2021-09-06_19h13.29.339,rantool2,2021.1.4,Win32,59.98440405,6135e006383e6ea6c3d06a28,61364b3c0a158a48bbe3f2cc,,,,,,,,
j,2.4177,0,62,62,47,1,5d4b34eef76ba30018751137,RORRRRO,RORRRRR,21.81333602,21.02936224,series_0,5d4b34eef76ba30018751137,Kobieta,22,2021-09-06_19h13.29.339,rantool2,2021.1.4,Win32,59.98440405,6135e006383e6ea6c3d06a28,61364b3c0a158a48bbe3f2cc,,,,,,,,
f,2.334,0,63,63,20,1,5d4b34eef76ba30018751137,OROROOO,OROROOR,21.31236711,21.90565814,series_1,5d4b34eef76ba30018751137,Kobieta,22,2021-09-06_19h13.29.339,rantool2,2021.1.4,Win32,59.98440405,6135e006383e6ea6c3d06a28,61364b3c0a158a48bbe3f2cc,,,,,,,,
,,,,,,,5d4b34eef76ba30018751137,,,,,,5d4b34eef76ba30018751137,Kobieta,22,2021-09-06_19h13.29.339,rantool2,2021.1.4,Win32,59.98440405,6135e006383e6ea6c3d06a28,61364b3c0a158a48bbe3f2cc,0,,,0,0,0,0,1
,,,,,,,5d4b34eef76ba30018751137,,,,,,5d4b34eef76ba30018751137,Kobieta,22,2021-09-06_19h13.29.339,rantool2,2021.1.4,Win32,59.98440405,6135e006383e6ea6c3d06a28,61364b3c0a158a48bbe3f2cc,"[""comma""]",0,[0.4757999999523008],1,0,1,0,1
,,,,,,,5d4b34eef76ba30018751137,,,,,,5d4b34eef76ba30018751137,Kobieta,22,2021-09-06_19h13.29.339,rantool2,2021.1.4,Win32,59.98440405,6135e006383e6ea6c3d06a28,61364b3c0a158a48bbe3f2cc,"[""period""]",0,[0.934799999952304],2,0,2,0,1
,,,,,,,5d4b34eef76ba30018751137,,,,,,5d4b34eef76ba30018751137,Kobieta,22,2021-09-06_19h13.29.339,rantool2,2021.1.4,Win32,59.98440405,6135e006383e6ea6c3d06a28,61364b3c0a158a48bbe3f2cc,"[""comma""]",0,[1.0925999999046212],3,0,3,0,1
,,,,,,,5d4b34eef76ba30018751137,,,,,,5d4b34eef76ba30018751137,Kobieta,22,2021-09-06_19h13.29.339,rantool2,2021.1.4,Win32,59.98440405,6135e006383e6ea6c3d06a28,61364b3c0a158a48bbe3f2cc,"[""comma""]",0,[1.4434999999999718],4,0,4,0,1
,,,,,,,5d4b34eef76ba30018751137,,,,,,5d4b34eef76ba30018751137,Kobieta,22,2021-09-06_19h13.29.339,rantool2,2021.1.4,Win32,59.98440405,6135e006383e6ea6c3d06a28,61364b3c0a158a48bbe3f2cc,"[""comma""]",0,[1.4862000000476883],5,0,5,0,1
,,,,,,,5d4b34eef76ba30018751137,,,,,,5d4b34eef76ba30018751137,Kobieta,22,2021-09-06_19h13.29.339,rantool2,2021.1.4,Win32,59.98440405,6135e006383e6ea6c3d06a28,61364b3c0a158a48bbe3f2cc,"[""period""]",0,[1.6074000000953674],6,0,6,0,1
,,,,,,,5d4b34eef76ba30018751137,,,,,,5d4b34eef76ba30018751137,Kobieta,22,2021-09-06_19h13.29.339,rantool2,2021.1.4,Win32,59.98440405,6135e006383e6ea6c3d06a28,61364b3c0a158a48bbe3f2cc,0,0,,7,0,7,0,1
,,,,,,,5d4b34eef76ba30018751137,,,,,,5d4b34eef76ba30018751137,Kobieta,22,2021-09-06_19h13.29.339,rantool2,2021.1.4,Win32,59.98440405,6135e006383e6ea6c3d06a28,61364b3c0a158a48bbe3f2cc,"[""comma""]",0,[0.3441999998092342],8,0,8,0,1
,,,,,,,5d4b34eef76ba30018751137,,,,,,5d4b34eef76ba30018751137,Kobieta,22,2021-09-06_19h13.29.339,rantool2,2021.1.4,Win32,59.98440405,6135e006383e6ea6c3d06a28,61364b3c0a158a48bbe3f2cc,"[""period""]",0,[0.4165999999046335],9,0,9,0,1
,,,,,,,5d4b34eef76ba30018751137,,,,,,5d4b34eef76ba30018751137,Kobieta,22,2021-09-06_19h13.29.339,rantool2,2021.1.4,Win32,59.98440405,6135e006383e6ea6c3d06a28,61364b3c0a158a48bbe3f2cc,"[""comma""]",0,[0.8202000000476914],10,0,10,0,1
,,,,,,,5d4b34eef76ba30018751137,,,,,,5d4b34eef76ba30018751137,Kobieta,22,2021-09-06_19h13.29.339,rantool2,2021.1.4,Win32,59.98440405,6135e006383e6ea6c3d06a28,61364b3c0a158a48bbe3f2cc,"[""period""]",0,[0.8672000000476601],11,0,11,0,1
,,,,,,,5d4b34eef76ba30018751137,,,,,,5d4b34eef76ba30018751137,Kobieta,22,2021-09-06_19h13.29.339,rantool2,2021.1.4,Win32,59.98440405,6135e006383e6ea6c3d06a28,61364b3c0a158a48bbe3f2cc,0,0,,12,0,12,0,1
,,,,,,,5d4b34eef76ba30018751137,,,,,,5d4b34eef76ba30018751137,Kobieta,22,2021-09-06_19h13.29.339,rantool2,2021.1.4,Win32,59.98440405,6135e006383e6ea6c3d06a28,61364b3c0a158a48bbe3f2cc,"[""period""]",0,[0.3365000000000009],13,0,13,0,1
,,,,,,,5d4b34eef76ba30018751137,,,,,,5d4b34eef76ba30018751137,Kobieta,22,2021-09-06_19h13.29.339,rantool2,2021.1.4,Win32,59.98440405,6135e006383e6ea6c3d06a28,61364b3c0a158a48bbe3f2cc,"[""period""]",0,[0.585700000047666],14,0,14,0,1
,,,,,,,5d4b34eef76ba30018751137,,,,,,5d4b34eef76ba30018751137,Kobieta,22,2021-09-06_19h13.29.339,rantool2,2021.1.4,Win32,59.98440405,6135e006383e6ea6c3d06a28,61364b3c0a158a48bbe3f2cc,"[""period""]",0,[0.8414000000953479],15,0,15,0,1
,,,,,,,5d4b34eef76ba30018751137,,,,,,5d4b34eef76ba30018751137,Kobieta,22,2021-09-06_19h13.29.339,rantool2,2021.1.4,Win32,59.98440405,6135e006383e6ea6c3d06a28,61364b3c0a158a48bbe3f2cc,"[""period""]",0,[0.6949999999999932],16,0,16,0,1
,,,,,,,5d4b34eef76ba30018751137,,,,,,5d4b34eef76ba30018751137,Kobieta,22,2021-09-06_19h13.29.339,rantool2,2021.1.4,Win32,59.98440405,6135e006383e6ea6c3d06a28,61364b3c0a158a48bbe3f2cc,"[""comma""]",0,[0.356099999904643],17,0,17,0,1
,,,,,,,5d4b34eef76ba30018751137,,,,,,5d4b34eef76ba30018751137,Kobieta,22,2021-09-06_19h13.29.339,rantool2,2021.1.4,Win32,59.98440405,6135e006383e6ea6c3d06a28,61364b3c0a158a48bbe3f2cc,"[""comma""]",0,[0.4505999999046253],18,0,18,0,1
,,,,,,,5d4b34eef76ba30018751137,,,,,,5d4b34eef76ba30018751137,Kobieta,22,2021-09-06_19h13.29.339,rantool2,2021.1.4,Win32,59.98440405,6135e006383e6ea6c3d06a28,61364b3c0a158a48bbe3f2cc,"[""comma""]",0,[0.8680999999045866],19,0,19,0,1
,,,,,,,5d4b34eef76ba30018751137,,,,,,5d4b34eef76ba30018751137,Kobieta,22,2021-09-06_19h13.29.339,rantool2,2021.1.4,Win32,59.98440405,6135e006383e6ea6c3d06a28,61364b3c0a158a48bbe3f2cc,"[""comma""]",0,[0.709100000143053],20,0,20,0,1
,,,,,,,5d4b34eef76ba30018751137,,,,,,5d4b34eef76ba30018751137,Kobieta,22,2021-09-06_19h13.29.339,rantool2,2021.1.4,Win32,59.98440405,6135e006383e6ea6c3d06a28,61364b3c0a158a48bbe3f2cc,"[""period""]",0,[0.36770000004764825],21,0,21,0,1
,,,,,,,5d4b34eef76ba30018751137,,,,,,5d4b34eef76ba30018751137,Kobieta,22,2021-09-06_19h13.29.339,rantool2,2021.1.4,Win32,59.98440405,6135e006383e6ea6c3d06a28,61364b3c0a158a48bbe3f2cc,"[""period""]",0,[0.2504999999999882],22,0,22,0,1
,,,,,,,5d4b34eef76ba30018751137,,,,,,5d4b34eef76ba30018751137,Kobieta,22,2021-09-06_19h13.29.339,rantool2,2021.1.4,Win32,59.98440405,6135e006383e6ea6c3d06a28,61364b3c0a158a48bbe3f2cc,"[""period""]",0,[0.3360999999046612],23,0,23,0,1
,,,,,,,5d4b34eef76ba30018751137,,,,,,5d4b34eef76ba30018751137,Kobieta,22,2021-09-06_19h13.29.339,rantool2,2021.1.4,Win32,59.98440405,6135e006383e6ea6c3d06a28,61364b3c0a158a48bbe3f2cc,"[""period""]",0,[0.3421000001430343],24,0,24,0,1
,,,,,,,5d4b34eef76ba30018751137,,,,,,5d4b34eef76ba30018751137,Kobieta,22,2021-09-06_19h13.29.339,rantool2,2021.1.4,Win32,59.98440405,6135e006383e6ea6c3d06a28,61364b3c0a158a48bbe3f2cc,"[""period""]",0,[0.4077999999523172],25,0,25,0,1
,,,,,,,5d4b34eef76ba30018751137,,,,,,5d4b34eef76ba30018751137,Kobieta,22,2021-09-06_19h13.29.339,rantool2,2021.1.4,Win32,59.98440405,6135e006383e6ea6c3d06a28,61364b3c0a158a48bbe3f2cc,"[""period""]",0,[0.5522000000477192],26,0,26,0,1
,,,,,,,5d4b34eef76ba30018751137,,,,,,5d4b34eef76ba30018751137,Kobieta,22,2021-09-06_19h13.29.339,rantool2,2021.1.4,Win32,59.98440405,6135e006383e6ea6c3d06a28,61364b3c0a158a48bbe3f2cc,"[""comma""]",0,[0.37010000014305433],27,0,27,0,1
,,,,,,,5d4b34eef76ba30018751137,,,,,,5d4b34eef76ba30018751137,Kobieta,22,2021-09-06_19h13.29.339,rantool2,2021.1.4,Win32,59.98440405,6135e006383e6ea6c3d06a28,61364b3c0a158a48bbe3f2cc,"[""comma""]",0,[0.6207999999522826],28,0,28,0,1
,,,,,,,5d4b34eef76ba30018751137,,,,,,5d4b34eef76ba30018751137,Kobieta,22,2021-09-06_19h13.29.339,rantool2,2021.1.4,Win32,59.98440405,6135e006383e6ea6c3d06a28,61364b3c0a158a48bbe3f2cc,"[""comma""]",0,[0.3919999999999959],29,0,29,0,1
,,,,,,,5d4b34eef76ba30018751137,,,,,,5d4b34eef76ba30018751137,Kobieta,22,2021-09-06_19h13.29.339,rantool2,2021.1.4,Win32,59.98440405,6135e006383e6ea6c3d06a28,61364b3c0a158a48bbe3f2cc,"[""period""]",0,[0.3226000001430407],30,0,30,0,1
,,,,,,,5d4b34eef76ba30018751137,,,,,,5d4b34eef76ba30018751137,Kobieta,22,2021-09-06_19h13.29.339,rantool2,2021.1.4,Win32,59.98440405,6135e006383e6ea6c3d06a28,61364b3c0a158a48bbe3f2cc,"[""comma""]",0,[0.3845999999046512],31,0,31,0,1
,,,,,,,5d4b34eef76ba30018751137,,,,,,5d4b34eef76ba30018751137,Kobieta,22,2021-09-06_19h13.29.339,rantool2,2021.1.4,Win32,59.98440405,6135e006383e6ea6c3d06a28,61364b3c0a158a48bbe3f2cc,"[""period""]",0,[0.40020000004767553],32,0,32,0,1
,,,,,,,5d4b34eef76ba30018751137,,,,,,5d4b34eef76ba30018751137,Kobieta,22,2021-09-06_19h13.29.339,rantool2,2021.1.4,Win32,59.98440405,6135e006383e6ea6c3d06a28,61364b3c0a158a48bbe3f2cc,"[""comma""]",0,[0.4419000000953588],33,0,33,0,1
,,,,,,,5d4b34eef76ba30018751137,,,,,,5d4b34eef76ba30018751137,Kobieta,22,2021-09-06_19h13.29.339,rantool2,2021.1.4,Win32,59.98440405,6135e006383e6ea6c3d06a28,61364b3c0a158a48bbe3f2cc,"[""comma""]",0,[0.3587999999522822],34,0,34,0,1
,,,,,,,5d4b34eef76ba30018751137,,,,,,5d4b34eef76ba30018751137,Kobieta,22,2021-09-06_19h13.29.339,rantool2,2021.1.4,Win32,59.98440405,6135e006383e6ea6c3d06a28,61364b3c0a158a48bbe3f2cc,"[""period""]",0,[0.37079999995228263],35,0,35,0,1
,,,,,,,5d4b34eef76ba30018751137,,,,,,5d4b34eef76ba30018751137,Kobieta,22,2021-09-06_19h13.29.339,rantool2,2021.1.4,Win32,59.98440405,6135e006383e6ea6c3d06a28,61364b3c0a158a48bbe3f2cc,"[""comma""]",0,[0.4350000000000023],36,0,36,0,1
,,,,,,,5d4b34eef76ba30018751137,,,,,,5d4b34eef76ba30018751137,Kobieta,22,2021-09-06_19h13.29.339,rantool2,2021.1.4,Win32,59.98440405,6135e006383e6ea6c3d06a28,61364b3c0a158a48bbe3f2cc,"[""comma""]",0,[0.7578999998569316],37,0,37,0,1
,,,,,,,5d4b34eef76ba30018751137,,,,,,5d4b34eef76ba30018751137,Kobieta,22,2021-09-06_19h13.29.339,rantool2,2021.1.4,Win32,59.98440405,6135e006383e6ea6c3d06a28,61364b3c0a158a48bbe3f2cc,"[""period""]",0,[0.3678999998569452],38,0,38,0,1
,,,,,,,5d4b34eef76ba30018751137,,,,,,5d4b34eef76ba30018751137,Kobieta,22,2021-09-06_19h13.29.339,rantool2,2021.1.4,Win32,59.98440405,6135e006383e6ea6c3d06a28,61364b3c0a158a48bbe3f2cc,"[""comma""]",0,[0.5852000000476778],39,0,39,0,1
,,,,,,,5d4b34eef76ba30018751137,,,,,,5d4b34eef76ba30018751137,Kobieta,22,2021-09-06_19h13.29.339,rantool2,2021.1.4,Win32,59.98440405,6135e006383e6ea6c3d06a28,61364b3c0a158a48bbe3f2cc,"[""comma""]",0,[0.7764999999999986],40,0,40,0,1
,,,,,,,5d4b34eef76ba30018751137,,,,,,5d4b34eef76ba30018751137,Kobieta,22,2021-09-06_19h13.29.339,rantool2,2021.1.4,Win32,59.98440405,6135e006383e6ea6c3d06a28,61364b3c0a158a48bbe3f2cc,"[""period""]",0,[0.4035999999045998],41,0,41,0,1
,,,,,,,5d4b34eef76ba30018751137,,,,,,5d4b34eef76ba30018751137,Kobieta,22,2021-09-06_19h13.29.339,rantool2,2021.1.4,Win32,59.98440405,6135e006383e6ea6c3d06a28,61364b3c0a158a48bbe3f2cc,"[""comma""]",0,[0.9760999999046476],42,0,42,0,1
,,,,,,,5d4b34eef76ba30018751137,,,,,,5d4b34eef76ba30018751137,Kobieta,22,2021-09-06_19h13.29.339,rantool2,2021.1.4,Win32,59.98440405,6135e006383e6ea6c3d06a28,61364b3c0a158a48bbe3f2cc,"[""comma""]",0,[0.7284999999999968],43,0,43,0,1
,,,,,,,5d4b34eef76ba30018751137,,,,,,5d4b34eef76ba30018751137,Kobieta,22,2021-09-06_19h13.29.339,rantool2,2021.1.4,Win32,59.98440405,6135e006383e6ea6c3d06a28,61364b3c0a158a48bbe3f2cc,"[""period""]",0,[0.39349999999996044],44,0,44,0,1
,,,,,,,5d4b34eef76ba30018751137,,,,,,5d4b34eef76ba30018751137,Kobieta,22,2021-09-06_19h13.29.339,rantool2,2021.1.4,Win32,59.98440405,6135e006383e6ea6c3d06a28,61364b3c0a158a48bbe3f2cc,"[""comma""]",0,[0.6700999999046644],45,0,45,0,1
,,,,,,,5d4b34eef76ba30018751137,,,,,,5d4b34eef76ba30018751137,Kobieta,22,2021-09-06_19h13.29.339,rantool2,2021.1.4,Win32,59.98440405,6135e006383e6ea6c3d06a28,61364b3c0a158a48bbe3f2cc,"[""comma""]",0,[0.801800000190724],46,0,46,0,1
,,,,,,,5d4b34eef76ba30018751137,,,,,,5d4b34eef76ba30018751137,Kobieta,22,2021-09-06_19h13.29.339,rantool2,2021.1.4,Win32,59.98440405,6135e006383e6ea6c3d06a28,61364b3c0a158a48bbe3f2cc,0,0,,47,0,47,0,1
,,,,,,,5d4b34eef76ba30018751137,,,,,,5d4b34eef76ba30018751137,Kobieta,22,2021-09-06_19h13.29.339,rantool2,2021.1.4,Win32,59.98440405,6135e006383e6ea6c3d06a28,61364b3c0a158a48bbe3f2cc,"[""comma""]",0,[0.2671000001430457],48,0,48,0,1
,,,,,,,5d4b34eef76ba30018751137,,,,,,5d4b34eef76ba30018751137,Kobieta,22,2021-09-06_19h13.29.339,rantool2,2021.1.4,Win32,59.98440405,6135e006383e6ea6c3d06a28,61364b3c0a158a48bbe3f2cc,"[""period""]",0,[0.4046999998092815],49,0,49,0,1
,,,,,,,5d4b34eef76ba30018751137,,,,,,5d4b34eef76ba30018751137,Kobieta,22,2021-09-06_19h13.29.339,rantool2,2021.1.4,Win32,59.98440405,6135e006383e6ea6c3d06a28,61364b3c0a158a48bbe3f2cc,"[""comma""]",0,[0.25379999995232083],50,0,50,0,1
,,,,,,,5d4b34eef76ba30018751137,,,,,,5d4b34eef76ba30018751137,Kobieta,22,2021-09-06_19h13.29.339,rantool2,2021.1.4,Win32,59.98440405,6135e006383e6ea6c3d06a28,61364b3c0a158a48bbe3f2cc,"[""comma""]",0,[0.5675999999046439],51,0,51,0,1
,,,,,,,5d4b34eef76ba30018751137,,,,,,5d4b34eef76ba30018751137,Kobieta,22,2021-09-06_19h13.29.339,rantool2,2021.1.4,Win32,59.98440405,6135e006383e6ea6c3d06a28,61364b3c0a158a48bbe3f2cc,"[""comma""]",0,[0.5606999998092874],52,0,52,0,1
,,,,,,,5d4b34eef76ba30018751137,,,,,,5d4b34eef76ba30018751137,Kobieta,22,2021-09-06_19h13.29.339,rantool2,2021.1.4,Win32,59.98440405,6135e006383e6ea6c3d06a28,61364b3c0a158a48bbe3f2cc,"[""period""]",0,[0.5097000000476442],53,0,53,0,1
,,,,,,,5d4b34eef76ba30018751137,,,,,,5d4b34eef76ba30018751137,Kobieta,22,2021-09-06_19h13.29.339,rantool2,2021.1.4,Win32,59.98440405,6135e006383e6ea6c3d06a28,61364b3c0a158a48bbe3f2cc,"[""period""]",0,[0.44159999990461074],54,0,54,0,1
,,,,,,,5d4b34eef76ba30018751137,,,,,,5d4b34eef76ba30018751137,Kobieta,22,2021-09-06_19h13.29.339,rantool2,2021.1.4,Win32,59.98440405,6135e006383e6ea6c3d06a28,61364b3c0a158a48bbe3f2cc,"[""comma""]",0,[0.33759999990462575],55,0,55,0,1
,,,,,,,5d4b34eef76ba30018751137,,,,,,5d4b34eef76ba30018751137,Kobieta,22,2021-09-06_19h13.29.339,rantool2,2021.1.4,Win32,59.98440405,6135e006383e6ea6c3d06a28,61364b3c0a158a48bbe3f2cc,"[""period""]",0,[0.4326000001429975],56,0,56,0,1
,,,,,,,5d4b34eef76ba30018751137,,,,,,5d4b34eef76ba30018751137,Kobieta,22,2021-09-06_19h13.29.339,rantool2,2021.1.4,Win32,59.98440405,6135e006383e6ea6c3d06a28,61364b3c0a158a48bbe3f2cc,0,0,,57,0,57,0,1
,,,,,,,5d4b34eef76ba30018751137,,,,,,5d4b34eef76ba30018751137,Kobieta,22,2021-09-06_19h13.29.339,rantool2,2021.1.4,Win32,59.98440405,6135e006383e6ea6c3d06a28,61364b3c0a158a48bbe3f2cc,"[""period""]",0,[0.22840000009534833],58,0,58,0,1
,,,,,,,5d4b34eef76ba30018751137,,,,,,5d4b34eef76ba30018751137,Kobieta,22,2021-09-06_19h13.29.339,rantool2,2021.1.4,Win32,59.98440405,6135e006383e6ea6c3d06a28,61364b3c0a158a48bbe3f2cc,"[""comma""]",0,[0.23709999990467168],59,0,59,0,1
,,,,,,,5d4b34eef76ba30018751137,,,,,,5d4b34eef76ba30018751137,Kobieta,22,2021-09-06_19h13.29.339,rantool2,2021.1.4,Win32,59.98440405,6135e006383e6ea6c3d06a28,61364b3c0a158a48bbe3f2cc,"[""comma""]",0,[0.3170000000000073],60,0,60,0,1
,,,,,,,5d4b34eef76ba30018751137,,,,,,5d4b34eef76ba30018751137,Kobieta,22,2021-09-06_19h13.29.339,rantool2,2021.1.4,Win32,59.98440405,6135e006383e6ea6c3d06a28,61364b3c0a158a48bbe3f2cc,"[""comma""]",0,[0.6132999999523463],61,0,61,0,1
,,,,,,,5d4b34eef76ba30018751137,,,,,,5d4b34eef76ba30018751137,Kobieta,22,2021-09-06_19h13.29.339,rantool2,2021.1.4,Win32,59.98440405,6135e006383e6ea6c3d06a28,61364b3c0a158a48bbe3f2cc,"[""comma""]",0,[0.5852999999523263],62,0,62,0,1
,,,,,,,5d4b34eef76ba30018751137,,,,,,5d4b34eef76ba30018751137,Kobieta,22,2021-09-06_19h13.29.339,rantool2,2021.1.4,Win32,59.98440405,6135e006383e6ea6c3d06a28,61364b3c0a158a48bbe3f2cc,"[""period""]",0,[0.5506000001430493],63,0,63,0,1
,,,,,,,5d4b34eef76ba30018751137,,,,,,5d4b34eef76ba30018751137,Kobieta,22,2021-09-06_19h13.29.339,rantool2,2021.1.4,Win32,59.98440405,6135e006383e6ea6c3d06a28,61364b3c0a158a48bbe3f2cc,"[""comma""]",0,[0.307099999904608],64,0,64,0,1
,,,,,,,5d4b34eef76ba30018751137,,,,,,5d4b34eef76ba30018751137,Kobieta,22,2021-09-06_19h13.29.339,rantool2,2021.1.4,Win32,59.98440405,6135e006383e6ea6c3d06a28,61364b3c0a158a48bbe3f2cc,"[""period""]",0,[0.36089999985699706],65,0,65,0,1
,,,,,,,5d4b34eef76ba30018751137,,,,,,5d4b34eef76ba30018751137,Kobieta,22,2021-09-06_19h13.29.339,rantool2,2021.1.4,Win32,59.98440405,6135e006383e6ea6c3d06a28,61364b3c0a158a48bbe3f2cc,"[""period""]",0,[0.4056000001430675],66,0,66,0,1
,,,,,,,5d4b34eef76ba30018751137,,,,,,5d4b34eef76ba30018751137,Kobieta,22,2021-09-06_19h13.29.339,rantool2,2021.1.4,Win32,59.98440405,6135e006383e6ea6c3d06a28,61364b3c0a158a48bbe3f2cc,"[""period""]",0,[0.25129999995226626],67,0,67,0,1
,,,,,,,5d4b34eef76ba30018751137,,,,,,5d4b34eef76ba30018751137,Kobieta,22,2021-09-06_19h13.29.339,rantool2,2021.1.4,Win32,59.98440405,6135e006383e6ea6c3d06a28,61364b3c0a158a48bbe3f2cc,"[""comma""]",0,[0.26869999980920056],68,0,68,0,1
,,,,,,,5d4b34eef76ba30018751137,,,,,,5d4b34eef76ba30018751137,Kobieta,22,2021-09-06_19h13.29.339,rantool2,2021.1.4,Win32,59.98440405,6135e006383e6ea6c3d06a28,61364b3c0a158a48bbe3f2cc,"[""comma""]",0,[0.6547999999523881],69,0,69,0,1
,,,,,,,5d4b34eef76ba30018751137,,,,,,5d4b34eef76ba30018751137,Kobieta,22,2021-09-06_19h13.29.339,rantool2,2021.1.4,Win32,59.98440405,6135e006383e6ea6c3d06a28,61364b3c0a158a48bbe3f2cc,"[""period""]",0,[0.6779000000954056],70,0,70,0,1
,,,,,,,5d4b34eef76ba30018751137,,,,,,5d4b34eef76ba30018751137,Kobieta,22,2021-09-06_19h13.29.339,rantool2,2021.1.4,Win32,59.98440405,6135e006383e6ea6c3d06a28,61364b3c0a158a48bbe3f2cc,"[""period""]",0,[0.6103000001908185],71,0,71,0,1
,,,,,,,5d4b34eef76ba30018751137,,,,,,5d4b34eef76ba30018751137,Kobieta,22,2021-09-06_19h13.29.339,rantool2,2021.1.4,Win32,59.98440405,6135e006383e6ea6c3d06a28,61364b3c0a158a48bbe3f2cc,"[""period""]",0,[0.8339999999999463],72,0,72,0,1
,,,,,,,5d4b34eef76ba30018751137,,,,,,5d4b34eef76ba30018751137,Kobieta,22,2021-09-06_19h13.29.339,rantool2,2021.1.4,Win32,59.98440405,6135e006383e6ea6c3d06a28,61364b3c0a158a48bbe3f2cc,"[""comma""]",0,[0.4087000000477019],73,0,73,0,1
,,,,,,,5d4b34eef76ba30018751137,,,,,,5d4b34eef76ba30018751137,Kobieta,22,2021-09-06_19h13.29.339,rantool2,2021.1.4,Win32,59.98440405,6135e006383e6ea6c3d06a28,61364b3c0a158a48bbe3f2cc,"[""comma""]",0,[0.6837999999522708],74,0,74,0,1
,,,,,,,5d4b34eef76ba30018751137,,,,,,5d4b34eef76ba30018751137,Kobieta,22,2021-09-06_19h13.29.339,rantool2,2021.1.4,Win32,59.98440405,6135e006383e6ea6c3d06a28,61364b3c0a158a48bbe3f2cc,"[""comma""]",0,[0.886799999952359],75,0,75,0,1
,,,,,,,5d4b34eef76ba30018751137,,,,,,5d4b34eef76ba30018751137,Kobieta,22,2021-09-06_19h13.29.339,rantool2,2021.1.4,Win32,59.98440405,6135e006383e6ea6c3d06a28,61364b3c0a158a48bbe3f2cc,"[""period""]",0,[0.5582999999523963],76,0,76,0,1
,,,,,,,5d4b34eef76ba30018751137,,,,,,5d4b34eef76ba30018751137,Kobieta,22,2021-09-06_19h13.29.339,rantool2,2021.1.4,Win32,59.98440405,6135e006383e6ea6c3d06a28,61364b3c0a158a48bbe3f2cc,"[""comma""]",0,[0.6204999999999927],77,0,77,0,1
,,,,,,,5d4b34eef76ba30018751137,,,,,,5d4b34eef76ba30018751137,Kobieta,22,2021-09-06_19h13.29.339,rantool2,2021.1.4,Win32,59.98440405,6135e006383e6ea6c3d06a28,61364b3c0a158a48bbe3f2cc,"[""period""]",0,[0.8220000000000027],78,0,78,0,1
,,,,,,,5d4b34eef76ba30018751137,,,,,,5d4b34eef76ba30018751137,Kobieta,22,2021-09-06_19h13.29.339,rantool2,2021.1.4,Win32,59.98440405,6135e006383e6ea6c3d06a28,61364b3c0a158a48bbe3f2cc,"[""comma""]",0,[0.5963999998568852],79,0,79,0,1
,,,,,,,5d4b34eef76ba30018751137,,,,,,5d4b34eef76ba30018751137,Kobieta,22,2021-09-06_19h13.29.339,rantool2,2021.1.4,Win32,59.98440405,6135e006383e6ea6c3d06a28,61364b3c0a158a48bbe3f2cc,"[""comma""]",0,[0.7434999999999263],80,0,80,0,1
,,,,,,,5d4b34eef76ba30018751137,,,,,,5d4b34eef76ba30018751137,Kobieta,22,2021-09-06_19h13.29.339,rantool2,2021.1.4,Win32,59.98440405,6135e006383e6ea6c3d06a28,61364b3c0a158a48bbe3f2cc,"[""comma""]",0,[0.5082999999523281],81,0,81,0,1
,,,,,,,5d4b34eef76ba30018751137,,,,,,5d4b34eef76ba30018751137,Kobieta,22,2021-09-06_19h13.29.339,rantool2,2021.1.4,Win32,59.98440405,6135e006383e6ea6c3d06a28,61364b3c0a158a48bbe3f2cc,"[""period""]",0,[0.5288999998570034],82,0,82,0,1
,,,,,,,5d4b34eef76ba30018751137,,,,,,5d4b34eef76ba30018751137,Kobieta,22,2021-09-06_19h13.29.339,rantool2,2021.1.4,Win32,59.98440405,6135e006383e6ea6c3d06a28,61364b3c0a158a48bbe3f2cc,"[""comma""]",0,[0.8267000000477083],83,0,83,0,1
,,,,,,,5d4b34eef76ba30018751137,,,,,,5d4b34eef76ba30018751137,Kobieta,22,2021-09-06_19h13.29.339,rantool2,2021.1.4,Win32,59.98440405,6135e006383e6ea6c3d06a28,61364b3c0a158a48bbe3f2cc,"[""comma""]",0,[0.6368999998569507],84,0,84,0,1
,,,,,,,5d4b34eef76ba30018751137,,,,,,5d4b34eef76ba30018751137,Kobieta,22,2021-09-06_19h13.29.339,rantool2,2021.1.4,Win32,59.98440405,6135e006383e6ea6c3d06a28,61364b3c0a158a48bbe3f2cc,"[""comma""]",0,[0.8400000000000318],85,0,85,0,1
,,,,,,,5d4b34eef76ba30018751137,,,,,,5d4b34eef76ba30018751137,Kobieta,22,2021-09-06_19h13.29.339,rantool2,2021.1.4,Win32,59.98440405,6135e006383e6ea6c3d06a28,61364b3c0a158a48bbe3f2cc,"[""period""]",0,[0.7880000000000109],86,0,86,0,1
,,,,,,,5d4b34eef76ba30018751137,,,,,,5d4b34eef76ba30018751137,Kobieta,22,2021-09-06_19h13.29.339,rantool2,2021.1.4,Win32,59.98440405,6135e006383e6ea6c3d06a28,61364b3c0a158a48bbe3f2cc,"[""comma""]",0,[0.6394999999999982],87,0,87,0,1
,,,,,,,5d4b34eef76ba30018751137,,,,,,5d4b34eef76ba30018751137,Kobieta,22,2021-09-06_19h13.29.339,rantool2,2021.1.4,Win32,59.98440405,6135e006383e6ea6c3d06a28,61364b3c0a158a48bbe3f2cc,"[""period""]",0,[0.5549000000953583],88,0,88,0,1
,,,,,,,5d4b34eef76ba30018751137,,,,,,5d4b34eef76ba30018751137,Kobieta,22,2021-09-06_19h13.29.339,rantool2,2021.1.4,Win32,59.98440405,6135e006383e6ea6c3d06a28,61364b3c0a158a48bbe3f2cc,"[""comma""]",0,[0.46759999990456436],89,0,89,0,1
,,,,,,,5d4b34eef76ba30018751137,,,,,,5d4b34eef76ba30018751137,Kobieta,22,2021-09-06_19h13.29.339,rantool2,2021.1.4,Win32,59.98440405,6135e006383e6ea6c3d06a28,61364b3c0a158a48bbe3f2cc,"[""period""]",0,[0.7174000000953811],90,0,90,0,1
,,,,,,,5d4b34eef76ba30018751137,,,,,,5d4b34eef76ba30018751137,Kobieta,22,2021-09-06_19h13.29.339,rantool2,2021.1.4,Win32,59.98440405,6135e006383e6ea6c3d06a28,61364b3c0a158a48bbe3f2cc,"[""period""]",0,[0.6042999999523317],91,0,91,0,1
,,,,,,,5d4b34eef76ba30018751137,,,,,,5d4b34eef76ba30018751137,Kobieta,22,2021-09-06_19h13.29.339,rantool2,2021.1.4,Win32,59.98440405,6135e006383e6ea6c3d06a28,61364b3c0a158a48bbe3f2cc,"[""period""]",0,[0.3547999999523199],92,0,92,0,1
,,,,,,,5d4b34eef76ba30018751137,,,,,,5d4b34eef76ba30018751137,Kobieta,22,2021-09-06_19h13.29.339,rantool2,2021.1.4,Win32,59.98440405,6135e006383e6ea6c3d06a28,61364b3c0a158a48bbe3f2cc,"[""comma""]",0,[0.3170000000000073],93,0,93,0,1
,,,,,,,5d4b34eef76ba30018751137,,,,,,5d4b34eef76ba30018751137,Kobieta,22,2021-09-06_19h13.29.339,rantool2,2021.1.4,Win32,59.98440405,6135e006383e6ea6c3d06a28,61364b3c0a158a48bbe3f2cc,"[""period""]",0,[0.6190999999046198],94,0,94,0,1
,,,,,,,5d4b34eef76ba30018751137,,,,,,5d4b34eef76ba30018751137,Kobieta,22,2021-09-06_19h13.29.339,rantool2,2021.1.4,Win32,59.98440405,6135e006383e6ea6c3d06a28,61364b3c0a158a48bbe3f2cc,"[""period""]",0,[0.6153999998568906],95,0,95,0,1
,,,,,,,5d4b34eef76ba30018751137,,,,,,5d4b34eef76ba30018751137,Kobieta,22,2021-09-06_19h13.29.339,rantool2,2021.1.4,Win32,59.98440405,6135e006383e6ea6c3d06a28,61364b3c0a158a48bbe3f2cc,"[""period""]",0,[0.5061000001429647],96,0,96,0,1
,,,,,,,5d4b34eef76ba30018751137,,,,,,5d4b34eef76ba30018751137,Kobieta,22,2021-09-06_19h13.29.339,rantool2,2021.1.4,Win32,59.98440405,6135e006383e6ea6c3d06a28,61364b3c0a158a48bbe3f2cc,"[""period""]",0,[0.4348999998569525],97,0,97,0,1
,,,,,,,5d4b34eef76ba30018751137,,,,,,5d4b34eef76ba30018751137,Kobieta,22,2021-09-06_19h13.29.339,rantool2,2021.1.4,Win32,59.98440405,6135e006383e6ea6c3d06a28,61364b3c0a158a48bbe3f2cc,"[""comma""]",0,[0.4392000000476628],98,0,98,0,1
,,,,,,,5d4b34eef76ba30018751137,,,,,,5d4b34eef76ba30018751137,Kobieta,22,2021-09-06_19h13.29.339,rantool2,2021.1.4,Win32,59.98440405,6135e006383e6ea6c3d06a28,61364b3c0a158a48bbe3f2cc,"[""comma""]",0,[0.6560999999046544],99,0,99,0,1
,,,,,,,5d4b34eef76ba30018751137,,,,,,5d4b34eef76ba30018751137,Kobieta,22,2021-09-06_19h13.29.339,rantool2,2021.1.4,Win32,59.98440405,6135e006383e6ea6c3d06a28,61364b3c0a158a48bbe3f2cc,"[""comma""]",0,[1.039000000000101],100,0,100,0,1
,,,,,,,5d4b34eef76ba30018751137,,,,,,5d4b34eef76ba30018751137,Kobieta,22,2021-09-06_19h13.29.339,rantool2,2021.1.4,Win32,59.98440405,6135e006383e6ea6c3d06a28,61364b3c0a158a48bbe3f2cc,"[""period""]",0,[0.33399999999994634],101,0,101,0,1
,,,,,,,5d4b34eef76ba30018751137,,,,,,5d4b34eef76ba30018751137,Kobieta,22,2021-09-06_19h13.29.339,rantool2,2021.1.4,Win32,59.98440405,6135e006383e6ea6c3d06a28,61364b3c0a158a48bbe3f2cc,"[""comma""]",0,[0.4765999999046926],102,0,102,0,1
,,,,,,,5d4b34eef76ba30018751137,,,,,,5d4b34eef76ba30018751137,Kobieta,22,2021-09-06_19h13.29.339,rantool2,2021.1.4,Win32,59.98440405,6135e006383e6ea6c3d06a28,61364b3c0a158a48bbe3f2cc,"[""comma""]",0,[0.5009999999999764],103,0,103,0,1
,,,,,,,5d4b34eef76ba30018751137,,,,,,5d4b34eef76ba30018751137,Kobieta,22,2021-09-06_19h13.29.339,rantool2,2021.1.4,Win32,59.98440405,6135e006383e6ea6c3d06a28,61364b3c0a158a48bbe3f2cc,"[""period""]",0,[0.4015000000000555],104,0,104,0,1
,,,,,,,5d4b34eef76ba30018751137,,,,,,5d4b34eef76ba30018751137,Kobieta,22,2021-09-06_19h13.29.339,rantool2,2021.1.4,Win32,59.98440405,6135e006383e6ea6c3d06a28,61364b3c0a158a48bbe3f2cc,"[""comma""]",0,[0.49159999990467895],105,0,105,0,1
,,,,,,,5d4b34eef76ba30018751137,,,,,,5d4b34eef76ba30018751137,Kobieta,22,2021-09-06_19h13.29.339,rantool2,2021.1.4,Win32,59.98440405,6135e006383e6ea6c3d06a28,61364b3c0a158a48bbe3f2cc,"[""comma""]",0,[0.5612999999523254],106,0,106,0,1
,,,,,,,5d4b34eef76ba30018751137,,,,,,5d4b34eef76ba30018751137,Kobieta,22,2021-09-06_19h13.29.339,rantool2,2021.1.4,Win32,59.98440405,6135e006383e6ea6c3d06a28,61364b3c0a158a48bbe3f2cc,"[""period""]",0,[0.41690000009543837],107,0,107,0,1
,,,,,,,5d4b34eef76ba30018751137,,,,,,5d4b34eef76ba30018751137,Kobieta,22,2021-09-06_19h13.29.339,rantool2,2021.1.4,Win32,59.98440405,6135e006383e6ea6c3d06a28,61364b3c0a158a48bbe3f2cc,"[""comma""]",0,[0.42739999985701616],108,0,108,0,1
,,,,,,,5d4b34eef76ba30018751137,,,,,,5d4b34eef76ba30018751137,Kobieta,22,2021-09-06_19h13.29.339,rantool2,2021.1.4,Win32,59.98440405,6135e006383e6ea6c3d06a28,61364b3c0a158a48bbe3f2cc,"[""comma""]",0,[0.38850000000002183],109,0,109,0,1
,,,,,,,5d4b34eef76ba30018751137,,,,,,5d4b34eef76ba30018751137,Kobieta,22,2021-09-06_19h13.29.339,rantool2,2021.1.4,Win32,59.98440405,6135e006383e6ea6c3d06a28,61364b3c0a158a48bbe3f2cc,"[""comma""]",0,[0.5004000000952828],110,0,110,0,1
,,,,,,,5d4b34eef76ba30018751137,,,,,,5d4b34eef76ba30018751137,Kobieta,22,2021-09-06_19h13.29.339,rantool2,2021.1.4,Win32,59.98440405,6135e006383e6ea6c3d06a28,61364b3c0a158a48bbe3f2cc,"[""comma""]",0,[0.4007000000476637],111,0,111,0,1
,,,,,,,5d4b34eef76ba30018751137,,,,,,5d4b34eef76ba30018751137,Kobieta,22,2021-09-06_19h13.29.339,rantool2,2021.1.4,Win32,59.98440405,6135e006383e6ea6c3d06a28,61364b3c0a158a48bbe3f2cc,"[""period""]",0,[0.34259999990456436],112,0,112,0,1
,,,,,,,5d4b34eef76ba30018751137,,,,,,5d4b34eef76ba30018751137,Kobieta,22,2021-09-06_19h13.29.339,rantool2,2021.1.4,Win32,59.98440405,6135e006383e6ea6c3d06a28,61364b3c0a158a48bbe3f2cc,"[""comma""]",0,[0.31749999999999545],113,0,113,0,1
,,,,,,,5d4b34eef76ba30018751137,,,,,,5d4b34eef76ba30018751137,Kobieta,22,2021-09-06_19h13.29.339,rantool2,2021.1.4,Win32,59.98440405,6135e006383e6ea6c3d06a28,61364b3c0a158a48bbe3f2cc,"[""period""]",0,[0.23790000009535106],114,0,114,0,1
,,,,,,,5d4b34eef76ba30018751137,,,,,,5d4b34eef76ba30018751137,Kobieta,22,2021-09-06_19h13.29.339,rantool2,2021.1.4,Win32,59.98440405,6135e006383e6ea6c3d06a28,61364b3c0a158a48bbe3f2cc,"[""period""]",0,[0.2506000001430948],115,0,115,0,1
,,,,,,,5d4b34eef76ba30018751137,,,,,,5d4b34eef76ba30018751137,Kobieta,22,2021-09-06_19h13.29.339,rantool2,2021.1.4,Win32,59.98440405,6135e006383e6ea6c3d06a28,61364b3c0a158a48bbe3f2cc,"[""period""]",0,[0.30500000000006366],116,0,116,0,1
,,,,,,,5d4b34eef76ba30018751137,,,,,,5d4b34eef76ba30018751137,Kobieta,22,2021-09-06_19h13.29.339,rantool2,2021.1.4,Win32,59.98440405,6135e006383e6ea6c3d06a28,61364b3c0a158a48bbe3f2cc,"[""period""]",0,[0.6551000001430793],117,0,117,0,1
,,,,,,,5d4b34eef76ba30018751137,,,,,,5d4b34eef76ba30018751137,Kobieta,22,2021-09-06_19h13.29.339,rantool2,2021.1.4,Win32,59.98440405,6135e006383e6ea6c3d06a28,61364b3c0a158a48bbe3f2cc,"[""period""]",0,[0.6794999999999618],118,0,118,0,1
,,,,,,,5d4b34eef76ba30018751137,,,,,,5d4b34eef76ba30018751137,Kobieta,22,2021-09-06_19h13.29.339,rantool2,2021.1.4,Win32,59.98440405,6135e006383e6ea6c3d06a28,61364b3c0a158a48bbe3f2cc,"[""period""]",0,[0.7173999998569798],119,0,119,0,1
