key_resp_7.keys,key_resp_7.rt,trials_2.thisRepN,trials_2.thisTrialN,trials_2.thisN,trials_2.thisIndex,trials_2.ran,id,series_0,series_1,acss_0,acss_1,comparison,id*,Płeć*,Wiek*,date,expName,psychopyVersion,OS,frameRate,STUDY_ID,SESSION_ID,key_resp_5.keys,key_resp_5.corr,key_resp_5.rt,trials.thisRepN,trials.thisTrialN,trials.thisN,trials.thisIndex,trials.ran
j,3.8368,0,0,0,30,1,5e7393671992802ef5c0f535,ORRRROO,ORRRROR,22.46748491,22.03072203,series_0,5e7393671992802ef5c0f535,Mężczyzna,23,2021-09-06_19h09.15.762,rantool2,2021.1.4,Win32,59.86590038,6135e006383e6ea6c3d06a28,61364ac9bf35868b771a2cbb,,,,,,,,
f,3.8668,0,1,1,31,1,5e7393671992802ef5c0f535,ORRRRRO,ORRRRRR,22.16413392,20.74050628,series_0,5e7393671992802ef5c0f535,Mężczyzna,23,2021-09-06_19h09.15.762,rantool2,2021.1.4,Win32,59.86590038,6135e006383e6ea6c3d06a28,61364ac9bf35868b771a2cbb,,,,,,,,
j,3.45,0,2,2,57,1,5e7393671992802ef5c0f535,RRROORO,RRROORR,21.82425538,22.07102821,series_1,5e7393671992802ef5c0f535,Mężczyzna,23,2021-09-06_19h09.15.762,rantool2,2021.1.4,Win32,59.86590038,6135e006383e6ea6c3d06a28,61364ac9bf35868b771a2cbb,,,,,,,,
f,2.669,0,3,3,0,1,5e7393671992802ef5c0f535,OOOOOOO,OOOOOOR,18.52739004,19.62521613,series_1,5e7393671992802ef5c0f535,Mężczyzna,23,2021-09-06_19h09.15.762,rantool2,2021.1.4,Win32,59.86590038,6135e006383e6ea6c3d06a28,61364ac9bf35868b771a2cbb,,,,,,,,
j,3.0765,0,4,4,36,1,5e7393671992802ef5c0f535,ROOROOO,ROOROOR,21.07991943,20.9984461,series_0,5e7393671992802ef5c0f535,Mężczyzna,23,2021-09-06_19h09.15.762,rantool2,2021.1.4,Win32,59.86590038,6135e006383e6ea6c3d06a28,61364ac9bf35868b771a2cbb,,,,,,,,
f,1.9672,0,5,5,22,1,5e7393671992802ef5c0f535,ORORROO,ORORROR,22.02732763,21.57657071,series_0,5e7393671992802ef5c0f535,Mężczyzna,23,2021-09-06_19h09.15.762,rantool2,2021.1.4,Win32,59.86590038,6135e006383e6ea6c3d06a28,61364ac9bf35868b771a2cbb,,,,,,,,
j,2.2917,0,6,6,25,1,5e7393671992802ef5c0f535,ORROORO,ORROORR,21.79500819,22.61624387,series_1,5e7393671992802ef5c0f535,Mężczyzna,23,2021-09-06_19h09.15.762,rantool2,2021.1.4,Win32,59.86590038,6135e006383e6ea6c3d06a28,61364ac9bf35868b771a2cbb,,,,,,,,
f,3.4603,0,7,7,44,1,5e7393671992802ef5c0f535,RORROOO,RORROOR,21.66733484,22.02566557,series_1,5e7393671992802ef5c0f535,Mężczyzna,23,2021-09-06_19h09.15.762,rantool2,2021.1.4,Win32,59.86590038,6135e006383e6ea6c3d06a28,61364ac9bf35868b771a2cbb,,,,,,,,
f,1.6382,0,8,8,40,1,5e7393671992802ef5c0f535,ROROOOO,ROROOOR,20.87963819,21.37121559,series_1,5e7393671992802ef5c0f535,Mężczyzna,23,2021-09-06_19h09.15.762,rantool2,2021.1.4,Win32,59.86590038,6135e006383e6ea6c3d06a28,61364ac9bf35868b771a2cbb,,,,,,,,
j,1.445,0,9,9,42,1,5e7393671992802ef5c0f535,ROROROO,ROROROR,20.39515459,19.8361834,series_0,5e7393671992802ef5c0f535,Mężczyzna,23,2021-09-06_19h09.15.762,rantool2,2021.1.4,Win32,59.86590038,6135e006383e6ea6c3d06a28,61364ac9bf35868b771a2cbb,,,,,,,,
f,1.5062,0,10,10,23,1,5e7393671992802ef5c0f535,ORORRRO,ORORRRR,22.1285618,21.9921709,series_0,5e7393671992802ef5c0f535,Mężczyzna,23,2021-09-06_19h09.15.762,rantool2,2021.1.4,Win32,59.86590038,6135e006383e6ea6c3d06a28,61364ac9bf35868b771a2cbb,,,,,,,,
j,3.4344,0,11,11,11,1,5e7393671992802ef5c0f535,OORORRO,OORORRR,22.18365867,22.6797523,series_1,5e7393671992802ef5c0f535,Mężczyzna,23,2021-09-06_19h09.15.762,rantool2,2021.1.4,Win32,59.86590038,6135e006383e6ea6c3d06a28,61364ac9bf35868b771a2cbb,,,,,,,,
j,1.5459,0,12,12,45,1,5e7393671992802ef5c0f535,RORRORO,RORRORR,20.78182524,21.22513037,series_1,5e7393671992802ef5c0f535,Mężczyzna,23,2021-09-06_19h09.15.762,rantool2,2021.1.4,Win32,59.86590038,6135e006383e6ea6c3d06a28,61364ac9bf35868b771a2cbb,,,,,,,,
j,2.8205,0,13,13,7,1,5e7393671992802ef5c0f535,OOORRRO,OOORRRR,21.6194508,21.899017,series_1,5e7393671992802ef5c0f535,Mężczyzna,23,2021-09-06_19h09.15.762,rantool2,2021.1.4,Win32,59.86590038,6135e006383e6ea6c3d06a28,61364ac9bf35868b771a2cbb,,,,,,,,
j,2.7182,0,14,14,33,1,5e7393671992802ef5c0f535,ROOOORO,ROOOORR,20.83779602,22.03072203,series_1,5e7393671992802ef5c0f535,Mężczyzna,23,2021-09-06_19h09.15.762,rantool2,2021.1.4,Win32,59.86590038,6135e006383e6ea6c3d06a28,61364ac9bf35868b771a2cbb,,,,,,,,
f,3.1008,0,15,15,54,1,5e7393671992802ef5c0f535,RRORROO,RRORROR,21.55250791,20.9984461,series_0,5e7393671992802ef5c0f535,Mężczyzna,23,2021-09-06_19h09.15.762,rantool2,2021.1.4,Win32,59.86590038,6135e006383e6ea6c3d06a28,61364ac9bf35868b771a2cbb,,,,,,,,
f,2.7914,0,16,16,21,1,5e7393671992802ef5c0f535,ORORORO,ORORORR,20.39515459,22.06781359,series_1,5e7393671992802ef5c0f535,Mężczyzna,23,2021-09-06_19h09.15.762,rantool2,2021.1.4,Win32,59.86590038,6135e006383e6ea6c3d06a28,61364ac9bf35868b771a2cbb,,,,,,,,
f,1.8479,0,17,17,14,1,5e7393671992802ef5c0f535,OORRROO,OORRROR,22.24142883,22.16977179,series_0,5e7393671992802ef5c0f535,Mężczyzna,23,2021-09-06_19h09.15.762,rantool2,2021.1.4,Win32,59.86590038,6135e006383e6ea6c3d06a28,61364ac9bf35868b771a2cbb,,,,,,,,
f,1.6789,0,18,18,58,1,5e7393671992802ef5c0f535,RRROROO,RRROROR,22.1285618,21.37121559,series_0,5e7393671992802ef5c0f535,Mężczyzna,23,2021-09-06_19h09.15.762,rantool2,2021.1.4,Win32,59.86590038,6135e006383e6ea6c3d06a28,61364ac9bf35868b771a2cbb,,,,,,,,
j,1.8049,0,19,19,41,1,5e7393671992802ef5c0f535,ROROORO,ROROORR,20.42602454,21.71443381,series_1,5e7393671992802ef5c0f535,Mężczyzna,23,2021-09-06_19h09.15.762,rantool2,2021.1.4,Win32,59.86590038,6135e006383e6ea6c3d06a28,61364ac9bf35868b771a2cbb,,,,,,,,
f,1.9546,0,20,20,55,1,5e7393671992802ef5c0f535,RRORRRO,RRORRRR,21.56657303,21.21223021,series_0,5e7393671992802ef5c0f535,Mężczyzna,23,2021-09-06_19h09.15.762,rantool2,2021.1.4,Win32,59.86590038,6135e006383e6ea6c3d06a28,61364ac9bf35868b771a2cbb,,,,,,,,
j,1.5832,0,21,21,26,1,5e7393671992802ef5c0f535,ORROROO,ORROROR,22.02732763,21.71443381,series_0,5e7393671992802ef5c0f535,Mężczyzna,23,2021-09-06_19h09.15.762,rantool2,2021.1.4,Win32,59.86590038,6135e006383e6ea6c3d06a28,61364ac9bf35868b771a2cbb,,,,,,,,
j,1.2115,0,22,22,63,1,5e7393671992802ef5c0f535,RRRRRRO,RRRRRRR,21.35278725,19.62521613,series_0,5e7393671992802ef5c0f535,Mężczyzna,23,2021-09-06_19h09.15.762,rantool2,2021.1.4,Win32,59.86590038,6135e006383e6ea6c3d06a28,61364ac9bf35868b771a2cbb,,,,,,,,
f,2.7716,0,23,23,19,1,5e7393671992802ef5c0f535,OROORRO,OROORRR,21.73568164,22.11181017,series_1,5e7393671992802ef5c0f535,Mężczyzna,23,2021-09-06_19h09.15.762,rantool2,2021.1.4,Win32,59.86590038,6135e006383e6ea6c3d06a28,61364ac9bf35868b771a2cbb,,,,,,,,
j,2.0059,0,24,24,18,1,5e7393671992802ef5c0f535,OROOROO,OROOROR,20.84860893,21.22513037,series_1,5e7393671992802ef5c0f535,Mężczyzna,23,2021-09-06_19h09.15.762,rantool2,2021.1.4,Win32,59.86590038,6135e006383e6ea6c3d06a28,61364ac9bf35868b771a2cbb,,,,,,,,
f,2.4602,0,25,25,46,1,5e7393671992802ef5c0f535,RORRROO,RORRROR,22.00300695,21.24781509,series_0,5e7393671992802ef5c0f535,Mężczyzna,23,2021-09-06_19h09.15.762,rantool2,2021.1.4,Win32,59.86590038,6135e006383e6ea6c3d06a28,61364ac9bf35868b771a2cbb,,,,,,,,
j,2.4126,0,26,26,15,1,5e7393671992802ef5c0f535,OORRRRO,OORRRRR,22.10108823,21.74922619,series_0,5e7393671992802ef5c0f535,Mężczyzna,23,2021-09-06_19h09.15.762,rantool2,2021.1.4,Win32,59.86590038,6135e006383e6ea6c3d06a28,61364ac9bf35868b771a2cbb,,,,,,,,
f,2.2083,0,27,27,35,1,5e7393671992802ef5c0f535,ROOORRO,ROOORRR,21.76276513,22.16977179,series_1,5e7393671992802ef5c0f535,Mężczyzna,23,2021-09-06_19h09.15.762,rantool2,2021.1.4,Win32,59.86590038,6135e006383e6ea6c3d06a28,61364ac9bf35868b771a2cbb,,,,,,,,
j,1.6185,0,28,28,5,1,5e7393671992802ef5c0f535,OOORORO,OOORORR,20.87963819,21.9921709,series_1,5e7393671992802ef5c0f535,Mężczyzna,23,2021-09-06_19h09.15.762,rantool2,2021.1.4,Win32,59.86590038,6135e006383e6ea6c3d06a28,61364ac9bf35868b771a2cbb,,,,,,,,
f,2.4914,0,29,29,34,1,5e7393671992802ef5c0f535,ROOOROO,ROOOROR,21.03750787,21.24781509,series_1,5e7393671992802ef5c0f535,Mężczyzna,23,2021-09-06_19h09.15.762,rantool2,2021.1.4,Win32,59.86590038,6135e006383e6ea6c3d06a28,61364ac9bf35868b771a2cbb,,,,,,,,
j,2.023,0,30,30,53,1,5e7393671992802ef5c0f535,RRORORO,RRORORR,20.71309134,21.90565814,series_1,5e7393671992802ef5c0f535,Mężczyzna,23,2021-09-06_19h09.15.762,rantool2,2021.1.4,Win32,59.86590038,6135e006383e6ea6c3d06a28,61364ac9bf35868b771a2cbb,,,,,,,,
f,2.2175,0,31,31,9,1,5e7393671992802ef5c0f535,OOROORO,OOROORR,21.07991943,22.2428857,series_1,5e7393671992802ef5c0f535,Mężczyzna,23,2021-09-06_19h09.15.762,rantool2,2021.1.4,Win32,59.86590038,6135e006383e6ea6c3d06a28,61364ac9bf35868b771a2cbb,,,,,,,,
j,1.8242,0,32,32,8,1,5e7393671992802ef5c0f535,OOROOOO,OOROOOR,19.91402015,20.89823192,series_1,5e7393671992802ef5c0f535,Mężczyzna,23,2021-09-06_19h09.15.762,rantool2,2021.1.4,Win32,59.86590038,6135e006383e6ea6c3d06a28,61364ac9bf35868b771a2cbb,,,,,,,,
f,1.7343,0,33,33,10,1,5e7393671992802ef5c0f535,OOROROO,OOROROR,21.31236711,21.07490964,series_0,5e7393671992802ef5c0f535,Mężczyzna,23,2021-09-06_19h09.15.762,rantool2,2021.1.4,Win32,59.86590038,6135e006383e6ea6c3d06a28,61364ac9bf35868b771a2cbb,,,,,,,,
j,3.0354,0,34,34,50,1,5e7393671992802ef5c0f535,RROOROO,RROOROR,21.73568164,22.02566557,series_1,5e7393671992802ef5c0f535,Mężczyzna,23,2021-09-06_19h09.15.762,rantool2,2021.1.4,Win32,59.86590038,6135e006383e6ea6c3d06a28,61364ac9bf35868b771a2cbb,,,,,,,,
f,2.9876,0,35,35,56,1,5e7393671992802ef5c0f535,RRROOOO,RRROOOR,21.6194508,22.31681875,series_1,5e7393671992802ef5c0f535,Mężczyzna,23,2021-09-06_19h09.15.762,rantool2,2021.1.4,Win32,59.86590038,6135e006383e6ea6c3d06a28,61364ac9bf35868b771a2cbb,,,,,,,,
j,2.0986,0,36,36,20,1,5e7393671992802ef5c0f535,OROROOO,OROROOR,21.31236711,21.90565814,series_1,5e7393671992802ef5c0f535,Mężczyzna,23,2021-09-06_19h09.15.762,rantool2,2021.1.4,Win32,59.86590038,6135e006383e6ea6c3d06a28,61364ac9bf35868b771a2cbb,,,,,,,,
f,1.8556,0,37,37,38,1,5e7393671992802ef5c0f535,ROORROO,ROORROR,21.79500819,21.36812781,series_0,5e7393671992802ef5c0f535,Mężczyzna,23,2021-09-06_19h09.15.762,rantool2,2021.1.4,Win32,59.86590038,6135e006383e6ea6c3d06a28,61364ac9bf35868b771a2cbb,,,,,,,,
j,1.4758,0,38,38,61,1,5e7393671992802ef5c0f535,RRRRORO,RRRRORR,21.81333602,21.17347734,series_0,5e7393671992802ef5c0f535,Mężczyzna,23,2021-09-06_19h09.15.762,rantool2,2021.1.4,Win32,59.86590038,6135e006383e6ea6c3d06a28,61364ac9bf35868b771a2cbb,,,,,,,,
f,1.6875,0,39,39,48,1,5e7393671992802ef5c0f535,RROOOOO,RROOOOR,20.90986523,22.15934078,series_1,5e7393671992802ef5c0f535,Mężczyzna,23,2021-09-06_19h09.15.762,rantool2,2021.1.4,Win32,59.86590038,6135e006383e6ea6c3d06a28,61364ac9bf35868b771a2cbb,,,,,,,,
j,1.8112,0,40,40,62,1,5e7393671992802ef5c0f535,RRRRROO,RRRRROR,22.16413392,21.27974287,series_0,5e7393671992802ef5c0f535,Mężczyzna,23,2021-09-06_19h09.15.762,rantool2,2021.1.4,Win32,59.86590038,6135e006383e6ea6c3d06a28,61364ac9bf35868b771a2cbb,,,,,,,,
f,2.1898,0,41,41,32,1,5e7393671992802ef5c0f535,ROOOOOO,ROOOOOR,19.92253567,21.27974287,series_1,5e7393671992802ef5c0f535,Mężczyzna,23,2021-09-06_19h09.15.762,rantool2,2021.1.4,Win32,59.86590038,6135e006383e6ea6c3d06a28,61364ac9bf35868b771a2cbb,,,,,,,,
f,1.5557,0,42,42,49,1,5e7393671992802ef5c0f535,RROOORO,RROOORR,21.76276513,22.53364006,series_1,5e7393671992802ef5c0f535,Mężczyzna,23,2021-09-06_19h09.15.762,rantool2,2021.1.4,Win32,59.86590038,6135e006383e6ea6c3d06a28,61364ac9bf35868b771a2cbb,,,,,,,,
f,2.2003,0,43,43,51,1,5e7393671992802ef5c0f535,RROORRO,RROORRR,21.89852628,22.02786418,series_1,5e7393671992802ef5c0f535,Mężczyzna,23,2021-09-06_19h09.15.762,rantool2,2021.1.4,Win32,59.86590038,6135e006383e6ea6c3d06a28,61364ac9bf35868b771a2cbb,,,,,,,,
j,2.0497,0,44,44,59,1,5e7393671992802ef5c0f535,RRRORRO,RRRORRR,21.56657303,20.89823192,series_0,5e7393671992802ef5c0f535,Mężczyzna,23,2021-09-06_19h09.15.762,rantool2,2021.1.4,Win32,59.86590038,6135e006383e6ea6c3d06a28,61364ac9bf35868b771a2cbb,,,,,,,,
f,3.0338,0,45,45,4,1,5e7393671992802ef5c0f535,OOOROOO,OOOROOR,19.91402015,21.21223021,series_1,5e7393671992802ef5c0f535,Mężczyzna,23,2021-09-06_19h09.15.762,rantool2,2021.1.4,Win32,59.86590038,6135e006383e6ea6c3d06a28,61364ac9bf35868b771a2cbb,,,,,,,,
j,1.3373,0,46,46,24,1,5e7393671992802ef5c0f535,ORROOOO,ORROOOR,21.12383932,22.07102821,series_1,5e7393671992802ef5c0f535,Mężczyzna,23,2021-09-06_19h09.15.762,rantool2,2021.1.4,Win32,59.86590038,6135e006383e6ea6c3d06a28,61364ac9bf35868b771a2cbb,,,,,,,,
f,2.7513,0,47,47,43,1,5e7393671992802ef5c0f535,RORORRO,RORORRR,20.71309134,21.07490964,series_1,5e7393671992802ef5c0f535,Mężczyzna,23,2021-09-06_19h09.15.762,rantool2,2021.1.4,Win32,59.86590038,6135e006383e6ea6c3d06a28,61364ac9bf35868b771a2cbb,,,,,,,,
f,2.0629,0,48,48,17,1,5e7393671992802ef5c0f535,OROOORO,OROOORR,21.03750787,22.12173012,series_1,5e7393671992802ef5c0f535,Mężczyzna,23,2021-09-06_19h09.15.762,rantool2,2021.1.4,Win32,59.86590038,6135e006383e6ea6c3d06a28,61364ac9bf35868b771a2cbb,,,,,,,,
j,1.7593,0,49,49,3,1,5e7393671992802ef5c0f535,OOOORRO,OOOORRR,20.90986523,21.74922619,series_1,5e7393671992802ef5c0f535,Mężczyzna,23,2021-09-06_19h09.15.762,rantool2,2021.1.4,Win32,59.86590038,6135e006383e6ea6c3d06a28,61364ac9bf35868b771a2cbb,,,,,,,,
j,1.8338,0,50,50,47,1,5e7393671992802ef5c0f535,RORRRRO,RORRRRR,21.81333602,21.02936224,series_0,5e7393671992802ef5c0f535,Mężczyzna,23,2021-09-06_19h09.15.762,rantool2,2021.1.4,Win32,59.86590038,6135e006383e6ea6c3d06a28,61364ac9bf35868b771a2cbb,,,,,,,,
f,2.4518,0,51,51,13,1,5e7393671992802ef5c0f535,OORRORO,OORRORR,21.66733484,22.11181017,series_1,5e7393671992802ef5c0f535,Mężczyzna,23,2021-09-06_19h09.15.762,rantool2,2021.1.4,Win32,59.86590038,6135e006383e6ea6c3d06a28,61364ac9bf35868b771a2cbb,,,,,,,,
j,1.4836,0,52,52,12,1,5e7393671992802ef5c0f535,OORROOO,OORROOR,21.30250474,22.02786418,series_1,5e7393671992802ef5c0f535,Mężczyzna,23,2021-09-06_19h09.15.762,rantool2,2021.1.4,Win32,59.86590038,6135e006383e6ea6c3d06a28,61364ac9bf35868b771a2cbb,,,,,,,,
j,2.7264,0,53,53,1,1,5e7393671992802ef5c0f535,OOOOORO,OOOOORR,19.92253567,20.74050628,series_1,5e7393671992802ef5c0f535,Mężczyzna,23,2021-09-06_19h09.15.762,rantool2,2021.1.4,Win32,59.86590038,6135e006383e6ea6c3d06a28,61364ac9bf35868b771a2cbb,,,,,,,,
j,2.399,0,54,54,37,1,5e7393671992802ef5c0f535,ROORORO,ROORORR,20.42602454,21.57657071,series_1,5e7393671992802ef5c0f535,Mężczyzna,23,2021-09-06_19h09.15.762,rantool2,2021.1.4,Win32,59.86590038,6135e006383e6ea6c3d06a28,61364ac9bf35868b771a2cbb,,,,,,,,
f,2.9553,0,55,55,60,1,5e7393671992802ef5c0f535,RRRROOO,RRRROOR,22.10108823,22.15934078,series_1,5e7393671992802ef5c0f535,Mężczyzna,23,2021-09-06_19h09.15.762,rantool2,2021.1.4,Win32,59.86590038,6135e006383e6ea6c3d06a28,61364ac9bf35868b771a2cbb,,,,,,,,
f,2.6182,0,56,56,27,1,5e7393671992802ef5c0f535,ORRORRO,ORRORRR,21.55250791,22.2428857,series_1,5e7393671992802ef5c0f535,Mężczyzna,23,2021-09-06_19h09.15.762,rantool2,2021.1.4,Win32,59.86590038,6135e006383e6ea6c3d06a28,61364ac9bf35868b771a2cbb,,,,,,,,
f,2.201,0,57,57,28,1,5e7393671992802ef5c0f535,ORRROOO,ORRROOR,22.24142883,22.53364006,series_1,5e7393671992802ef5c0f535,Mężczyzna,23,2021-09-06_19h09.15.762,rantool2,2021.1.4,Win32,59.86590038,6135e006383e6ea6c3d06a28,61364ac9bf35868b771a2cbb,,,,,,,,
j,1.5597,0,58,58,29,1,5e7393671992802ef5c0f535,ORRRORO,ORRRORR,22.00300695,22.12173012,series_1,5e7393671992802ef5c0f535,Mężczyzna,23,2021-09-06_19h09.15.762,rantool2,2021.1.4,Win32,59.86590038,6135e006383e6ea6c3d06a28,61364ac9bf35868b771a2cbb,,,,,,,,
f,3.9841,0,59,59,52,1,5e7393671992802ef5c0f535,RROROOO,RROROOR,22.18365867,22.11097995,series_0,5e7393671992802ef5c0f535,Mężczyzna,23,2021-09-06_19h09.15.762,rantool2,2021.1.4,Win32,59.86590038,6135e006383e6ea6c3d06a28,61364ac9bf35868b771a2cbb,,,,,,,,
j,1.757,0,60,60,6,1,5e7393671992802ef5c0f535,OOORROO,OOORROR,21.12383932,21.38562617,series_1,5e7393671992802ef5c0f535,Mężczyzna,23,2021-09-06_19h09.15.762,rantool2,2021.1.4,Win32,59.86590038,6135e006383e6ea6c3d06a28,61364ac9bf35868b771a2cbb,,,,,,,,
f,1.8305,0,61,61,2,1,5e7393671992802ef5c0f535,OOOOROO,OOOOROR,20.43051175,21.02936224,series_1,5e7393671992802ef5c0f535,Mężczyzna,23,2021-09-06_19h09.15.762,rantool2,2021.1.4,Win32,59.86590038,6135e006383e6ea6c3d06a28,61364ac9bf35868b771a2cbb,,,,,,,,
j,1.4195,0,62,62,39,1,5e7393671992802ef5c0f535,ROORRRO,ROORRRR,21.82425538,21.38562617,series_0,5e7393671992802ef5c0f535,Mężczyzna,23,2021-09-06_19h09.15.762,rantool2,2021.1.4,Win32,59.86590038,6135e006383e6ea6c3d06a28,61364ac9bf35868b771a2cbb,,,,,,,,
f,1.2114,0,63,63,16,1,5e7393671992802ef5c0f535,OROOOOO,OROOOOR,20.43051175,21.17347734,series_1,5e7393671992802ef5c0f535,Mężczyzna,23,2021-09-06_19h09.15.762,rantool2,2021.1.4,Win32,59.86590038,6135e006383e6ea6c3d06a28,61364ac9bf35868b771a2cbb,,,,,,,,
,,,,,,,5e7393671992802ef5c0f535,,,,,,5e7393671992802ef5c0f535,Mężczyzna,23,2021-09-06_19h09.15.762,rantool2,2021.1.4,Win32,59.86590038,6135e006383e6ea6c3d06a28,61364ac9bf35868b771a2cbb,"[""comma""]",0,[0.5725999999996247],0,0,0,0,1
,,,,,,,5e7393671992802ef5c0f535,,,,,,5e7393671992802ef5c0f535,Mężczyzna,23,2021-09-06_19h09.15.762,rantool2,2021.1.4,Win32,59.86590038,6135e006383e6ea6c3d06a28,61364ac9bf35868b771a2cbb,"[""comma""]",0,[0.31689999999855445],1,0,1,0,1
,,,,,,,5e7393671992802ef5c0f535,,,,,,5e7393671992802ef5c0f535,Mężczyzna,23,2021-09-06_19h09.15.762,rantool2,2021.1.4,Win32,59.86590038,6135e006383e6ea6c3d06a28,61364ac9bf35868b771a2cbb,"[""period""]",0,[0.15530000000075006],2,0,2,0,1
,,,,,,,5e7393671992802ef5c0f535,,,,,,5e7393671992802ef5c0f535,Mężczyzna,23,2021-09-06_19h09.15.762,rantool2,2021.1.4,Win32,59.86590038,6135e006383e6ea6c3d06a28,61364ac9bf35868b771a2cbb,"[""comma""]",0,[0.26790000000039527],3,0,3,0,1
,,,,,,,5e7393671992802ef5c0f535,,,,,,5e7393671992802ef5c0f535,Mężczyzna,23,2021-09-06_19h09.15.762,rantool2,2021.1.4,Win32,59.86590038,6135e006383e6ea6c3d06a28,61364ac9bf35868b771a2cbb,"[""period""]",0,[0.27109999999964884],4,0,4,0,1
,,,,,,,5e7393671992802ef5c0f535,,,,,,5e7393671992802ef5c0f535,Mężczyzna,23,2021-09-06_19h09.15.762,rantool2,2021.1.4,Win32,59.86590038,6135e006383e6ea6c3d06a28,61364ac9bf35868b771a2cbb,"[""period""]",0,[0.3865000000000123],5,0,5,0,1
,,,,,,,5e7393671992802ef5c0f535,,,,,,5e7393671992802ef5c0f535,Mężczyzna,23,2021-09-06_19h09.15.762,rantool2,2021.1.4,Win32,59.86590038,6135e006383e6ea6c3d06a28,61364ac9bf35868b771a2cbb,"[""comma""]",0,[0.22610000000150876],6,0,6,0,1
,,,,,,,5e7393671992802ef5c0f535,,,,,,5e7393671992802ef5c0f535,Mężczyzna,23,2021-09-06_19h09.15.762,rantool2,2021.1.4,Win32,59.86590038,6135e006383e6ea6c3d06a28,61364ac9bf35868b771a2cbb,"[""period""]",0,[0.4378999999984785],7,0,7,0,1
,,,,,,,5e7393671992802ef5c0f535,,,,,,5e7393671992802ef5c0f535,Mężczyzna,23,2021-09-06_19h09.15.762,rantool2,2021.1.4,Win32,59.86590038,6135e006383e6ea6c3d06a28,61364ac9bf35868b771a2cbb,"[""period""]",0,[0.2775999999996088],8,0,8,0,1
,,,,,,,5e7393671992802ef5c0f535,,,,,,5e7393671992802ef5c0f535,Mężczyzna,23,2021-09-06_19h09.15.762,rantool2,2021.1.4,Win32,59.86590038,6135e006383e6ea6c3d06a28,61364ac9bf35868b771a2cbb,"[""comma""]",0,[0.35959999999960246],9,0,9,0,1
,,,,,,,5e7393671992802ef5c0f535,,,,,,5e7393671992802ef5c0f535,Mężczyzna,23,2021-09-06_19h09.15.762,rantool2,2021.1.4,Win32,59.86590038,6135e006383e6ea6c3d06a28,61364ac9bf35868b771a2cbb,"[""period"",""comma""]",0,"[0.32880000000074006,1.9612000000011562]",10,0,10,0,1
,,,,,,,5e7393671992802ef5c0f535,,,,,,5e7393671992802ef5c0f535,Mężczyzna,23,2021-09-06_19h09.15.762,rantool2,2021.1.4,Win32,59.86590038,6135e006383e6ea6c3d06a28,61364ac9bf35868b771a2cbb,"[""comma""]",0,[0.5074999999999932],11,0,11,0,1
,,,,,,,5e7393671992802ef5c0f535,,,,,,5e7393671992802ef5c0f535,Mężczyzna,23,2021-09-06_19h09.15.762,rantool2,2021.1.4,Win32,59.86590038,6135e006383e6ea6c3d06a28,61364ac9bf35868b771a2cbb,"[""comma""]",0,[0.3669000000003848],12,0,12,0,1
,,,,,,,5e7393671992802ef5c0f535,,,,,,5e7393671992802ef5c0f535,Mężczyzna,23,2021-09-06_19h09.15.762,rantool2,2021.1.4,Win32,59.86590038,6135e006383e6ea6c3d06a28,61364ac9bf35868b771a2cbb,"[""comma""]",0,[0.285599999999647],13,0,13,0,1
,,,,,,,5e7393671992802ef5c0f535,,,,,,5e7393671992802ef5c0f535,Mężczyzna,23,2021-09-06_19h09.15.762,rantool2,2021.1.4,Win32,59.86590038,6135e006383e6ea6c3d06a28,61364ac9bf35868b771a2cbb,"[""period""]",0,[0.25390000000038526],14,0,14,0,1
,,,,,,,5e7393671992802ef5c0f535,,,,,,5e7393671992802ef5c0f535,Mężczyzna,23,2021-09-06_19h09.15.762,rantool2,2021.1.4,Win32,59.86590038,6135e006383e6ea6c3d06a28,61364ac9bf35868b771a2cbb,"[""period""]",0,[0.45029999999889014],15,0,15,0,1
,,,,,,,5e7393671992802ef5c0f535,,,,,,5e7393671992802ef5c0f535,Mężczyzna,23,2021-09-06_19h09.15.762,rantool2,2021.1.4,Win32,59.86590038,6135e006383e6ea6c3d06a28,61364ac9bf35868b771a2cbb,"[""comma""]",0,[0.2561000000014815],16,0,16,0,1
,,,,,,,5e7393671992802ef5c0f535,,,,,,5e7393671992802ef5c0f535,Mężczyzna,23,2021-09-06_19h09.15.762,rantool2,2021.1.4,Win32,59.86590038,6135e006383e6ea6c3d06a28,61364ac9bf35868b771a2cbb,"[""period""]",0,[0.3512999999989006],17,0,17,0,1
,,,,,,,5e7393671992802ef5c0f535,,,,,,5e7393671992802ef5c0f535,Mężczyzna,23,2021-09-06_19h09.15.762,rantool2,2021.1.4,Win32,59.86590038,6135e006383e6ea6c3d06a28,61364ac9bf35868b771a2cbb,"[""comma""]",0,[0.25859999999960337],18,0,18,0,1
,,,,,,,5e7393671992802ef5c0f535,,,,,,5e7393671992802ef5c0f535,Mężczyzna,23,2021-09-06_19h09.15.762,rantool2,2021.1.4,Win32,59.86590038,6135e006383e6ea6c3d06a28,61364ac9bf35868b771a2cbb,"[""comma""]",0,[0.5530999999996311],19,0,19,0,1
,,,,,,,5e7393671992802ef5c0f535,,,,,,5e7393671992802ef5c0f535,Mężczyzna,23,2021-09-06_19h09.15.762,rantool2,2021.1.4,Win32,59.86590038,6135e006383e6ea6c3d06a28,61364ac9bf35868b771a2cbb,"[""period""]",0,[0.3765999999996552],20,0,20,0,1
,,,,,,,5e7393671992802ef5c0f535,,,,,,5e7393671992802ef5c0f535,Mężczyzna,23,2021-09-06_19h09.15.762,rantool2,2021.1.4,Win32,59.86590038,6135e006383e6ea6c3d06a28,61364ac9bf35868b771a2cbb,"[""period""]",0,[0.3449000000003366],21,0,21,0,1
,,,,,,,5e7393671992802ef5c0f535,,,,,,5e7393671992802ef5c0f535,Mężczyzna,23,2021-09-06_19h09.15.762,rantool2,2021.1.4,Win32,59.86590038,6135e006383e6ea6c3d06a28,61364ac9bf35868b771a2cbb,"[""period""]",0,[0.3325999999996725],22,0,22,0,1
,,,,,,,5e7393671992802ef5c0f535,,,,,,5e7393671992802ef5c0f535,Mężczyzna,23,2021-09-06_19h09.15.762,rantool2,2021.1.4,Win32,59.86590038,6135e006383e6ea6c3d06a28,61364ac9bf35868b771a2cbb,"[""comma""]",0,[0.4609000000003789],23,0,23,0,1
,,,,,,,5e7393671992802ef5c0f535,,,,,,5e7393671992802ef5c0f535,Mężczyzna,23,2021-09-06_19h09.15.762,rantool2,2021.1.4,Win32,59.86590038,6135e006383e6ea6c3d06a28,61364ac9bf35868b771a2cbb,"[""comma"",""period""]",0,"[0.38209999999963884,1.592900000000384]",24,0,24,0,1
,,,,,,,5e7393671992802ef5c0f535,,,,,,5e7393671992802ef5c0f535,Mężczyzna,23,2021-09-06_19h09.15.762,rantool2,2021.1.4,Win32,59.86590038,6135e006383e6ea6c3d06a28,61364ac9bf35868b771a2cbb,"[""period"",""period""]",0,"[0.0611999999992463,0.5452999999988606]",25,0,25,0,1
,,,,,,,5e7393671992802ef5c0f535,,,,,,5e7393671992802ef5c0f535,Mężczyzna,23,2021-09-06_19h09.15.762,rantool2,2021.1.4,Win32,59.86590038,6135e006383e6ea6c3d06a28,61364ac9bf35868b771a2cbb,"[""period""]",0,[0.4019000000004098],26,0,26,0,1
,,,,,,,5e7393671992802ef5c0f535,,,,,,5e7393671992802ef5c0f535,Mężczyzna,23,2021-09-06_19h09.15.762,rantool2,2021.1.4,Win32,59.86590038,6135e006383e6ea6c3d06a28,61364ac9bf35868b771a2cbb,"[""comma""]",0,[0.32280000000076825],27,0,27,0,1
,,,,,,,5e7393671992802ef5c0f535,,,,,,5e7393671992802ef5c0f535,Mężczyzna,23,2021-09-06_19h09.15.762,rantool2,2021.1.4,Win32,59.86590038,6135e006383e6ea6c3d06a28,61364ac9bf35868b771a2cbb,"[""period"",""comma""]",0,"[0.32450000000000045,1.8083000000007132]",28,0,28,0,1
,,,,,,,5e7393671992802ef5c0f535,,,,,,5e7393671992802ef5c0f535,Mężczyzna,23,2021-09-06_19h09.15.762,rantool2,2021.1.4,Win32,59.86590038,6135e006383e6ea6c3d06a28,61364ac9bf35868b771a2cbb,"[""comma""]",0,[0.32719999999926586],29,0,29,0,1
,,,,,,,5e7393671992802ef5c0f535,,,,,,5e7393671992802ef5c0f535,Mężczyzna,23,2021-09-06_19h09.15.762,rantool2,2021.1.4,Win32,59.86590038,6135e006383e6ea6c3d06a28,61364ac9bf35868b771a2cbb,"[""comma"",""period""]",0,"[0.2620999999996343,0.2952000000011594]",30,0,30,0,1
,,,,,,,5e7393671992802ef5c0f535,,,,,,5e7393671992802ef5c0f535,Mężczyzna,23,2021-09-06_19h09.15.762,rantool2,2021.1.4,Win32,59.86590038,6135e006383e6ea6c3d06a28,61364ac9bf35868b771a2cbb,"[""comma"",""period""]",0,"[0.12009999999963838,0.15119999999927813]",31,0,31,0,1
,,,,,,,5e7393671992802ef5c0f535,,,,,,5e7393671992802ef5c0f535,Mężczyzna,23,2021-09-06_19h09.15.762,rantool2,2021.1.4,Win32,59.86590038,6135e006383e6ea6c3d06a28,61364ac9bf35868b771a2cbb,"[""period"",""comma"",""period"",""comma""]",0,"[0.2993999999985135,0.2995999999996002,1.9616999999992686,1.962099999999623]",32,0,32,0,1
,,,,,,,5e7393671992802ef5c0f535,,,,,,5e7393671992802ef5c0f535,Mężczyzna,23,2021-09-06_19h09.15.762,rantool2,2021.1.4,Win32,59.86590038,6135e006383e6ea6c3d06a28,61364ac9bf35868b771a2cbb,"[""comma"",""period""]",0,"[0.49360000000149284,0.5091000000015242]",33,0,33,0,1
,,,,,,,5e7393671992802ef5c0f535,,,,,,5e7393671992802ef5c0f535,Mężczyzna,23,2021-09-06_19h09.15.762,rantool2,2021.1.4,Win32,59.86590038,6135e006383e6ea6c3d06a28,61364ac9bf35868b771a2cbb,"[""period"",""comma""]",0,"[0.35139999999853444,0.369199999999239]",34,0,34,0,1
,,,,,,,5e7393671992802ef5c0f535,,,,,,5e7393671992802ef5c0f535,Mężczyzna,23,2021-09-06_19h09.15.762,rantool2,2021.1.4,Win32,59.86590038,6135e006383e6ea6c3d06a28,61364ac9bf35868b771a2cbb,"[""comma"",""period""]",0,"[0.31979999999884967,0.3365999999995779]",35,0,35,0,1
,,,,,,,5e7393671992802ef5c0f535,,,,,,5e7393671992802ef5c0f535,Mężczyzna,23,2021-09-06_19h09.15.762,rantool2,2021.1.4,Win32,59.86590038,6135e006383e6ea6c3d06a28,61364ac9bf35868b771a2cbb,"[""comma"",""period""]",0,"[0.25579999999888514,0.39999999999997726]",36,0,36,0,1
,,,,,,,5e7393671992802ef5c0f535,,,,,,5e7393671992802ef5c0f535,Mężczyzna,23,2021-09-06_19h09.15.762,rantool2,2021.1.4,Win32,59.86590038,6135e006383e6ea6c3d06a28,61364ac9bf35868b771a2cbb,"[""comma"",""period""]",0,"[0.20809999999960382,0.22479999999887923]",37,0,37,0,1
,,,,,,,5e7393671992802ef5c0f535,,,,,,5e7393671992802ef5c0f535,Mężczyzna,23,2021-09-06_19h09.15.762,rantool2,2021.1.4,Win32,59.86590038,6135e006383e6ea6c3d06a28,61364ac9bf35868b771a2cbb,"[""period"",""comma""]",0,"[0.3398000000007073,0.3400999999996088]",38,0,38,0,1
,,,,,,,5e7393671992802ef5c0f535,,,,,,5e7393671992802ef5c0f535,Mężczyzna,23,2021-09-06_19h09.15.762,rantool2,2021.1.4,Win32,59.86590038,6135e006383e6ea6c3d06a28,61364ac9bf35868b771a2cbb,"[""comma""]",0,[0.9699000000003366],39,0,39,0,1
,,,,,,,5e7393671992802ef5c0f535,,,,,,5e7393671992802ef5c0f535,Mężczyzna,23,2021-09-06_19h09.15.762,rantool2,2021.1.4,Win32,59.86590038,6135e006383e6ea6c3d06a28,61364ac9bf35868b771a2cbb,"[""period""]",0,[0.5226999999992472],40,0,40,0,1
,,,,,,,5e7393671992802ef5c0f535,,,,,,5e7393671992802ef5c0f535,Mężczyzna,23,2021-09-06_19h09.15.762,rantool2,2021.1.4,Win32,59.86590038,6135e006383e6ea6c3d06a28,61364ac9bf35868b771a2cbb,"[""period""]",0,[0.3605000000000018],41,0,41,0,1
,,,,,,,5e7393671992802ef5c0f535,,,,,,5e7393671992802ef5c0f535,Mężczyzna,23,2021-09-06_19h09.15.762,rantool2,2021.1.4,Win32,59.86590038,6135e006383e6ea6c3d06a28,61364ac9bf35868b771a2cbb,"[""comma""]",0,[0.3612999999988915],42,0,42,0,1
,,,,,,,5e7393671992802ef5c0f535,,,,,,5e7393671992802ef5c0f535,Mężczyzna,23,2021-09-06_19h09.15.762,rantool2,2021.1.4,Win32,59.86590038,6135e006383e6ea6c3d06a28,61364ac9bf35868b771a2cbb,"[""period""]",0,[0.33449999999999136],43,0,43,0,1
,,,,,,,5e7393671992802ef5c0f535,,,,,,5e7393671992802ef5c0f535,Mężczyzna,23,2021-09-06_19h09.15.762,rantool2,2021.1.4,Win32,59.86590038,6135e006383e6ea6c3d06a28,61364ac9bf35868b771a2cbb,"[""period"",""comma""]",0,"[0.29700000000002547,1.8810999999996056]",44,0,44,0,1
,,,,,,,5e7393671992802ef5c0f535,,,,,,5e7393671992802ef5c0f535,Mężczyzna,23,2021-09-06_19h09.15.762,rantool2,2021.1.4,Win32,59.86590038,6135e006383e6ea6c3d06a28,61364ac9bf35868b771a2cbb,"[""comma"",""comma""]",0,"[0.23699999999996635,0.9789000000003512]",45,0,45,0,1
,,,,,,,5e7393671992802ef5c0f535,,,,,,5e7393671992802ef5c0f535,Mężczyzna,23,2021-09-06_19h09.15.762,rantool2,2021.1.4,Win32,59.86590038,6135e006383e6ea6c3d06a28,61364ac9bf35868b771a2cbb,"[""period"",""comma""]",0,"[0.38349999999996953,1.9167000000011285]",46,0,46,0,1
,,,,,,,5e7393671992802ef5c0f535,,,,,,5e7393671992802ef5c0f535,Mężczyzna,23,2021-09-06_19h09.15.762,rantool2,2021.1.4,Win32,59.86590038,6135e006383e6ea6c3d06a28,61364ac9bf35868b771a2cbb,"[""comma"",""comma""]",0,"[0.3204000000003475,0.7563000000007492]",47,0,47,0,1
,,,,,,,5e7393671992802ef5c0f535,,,,,,5e7393671992802ef5c0f535,Mężczyzna,23,2021-09-06_19h09.15.762,rantool2,2021.1.4,Win32,59.86590038,6135e006383e6ea6c3d06a28,61364ac9bf35868b771a2cbb,"[""comma""]",0,[0.7746999999992568],48,0,48,0,1
,,,,,,,5e7393671992802ef5c0f535,,,,,,5e7393671992802ef5c0f535,Mężczyzna,23,2021-09-06_19h09.15.762,rantool2,2021.1.4,Win32,59.86590038,6135e006383e6ea6c3d06a28,61364ac9bf35868b771a2cbb,"[""period""]",0,[0.7767999999989001],49,0,49,0,1
,,,,,,,5e7393671992802ef5c0f535,,,,,,5e7393671992802ef5c0f535,Mężczyzna,23,2021-09-06_19h09.15.762,rantool2,2021.1.4,Win32,59.86590038,6135e006383e6ea6c3d06a28,61364ac9bf35868b771a2cbb,"[""period""]",0,[0.8271000000015079],50,0,50,0,1
,,,,,,,5e7393671992802ef5c0f535,,,,,,5e7393671992802ef5c0f535,Mężczyzna,23,2021-09-06_19h09.15.762,rantool2,2021.1.4,Win32,59.86590038,6135e006383e6ea6c3d06a28,61364ac9bf35868b771a2cbb,0,0,,51,0,51,0,1
,,,,,,,5e7393671992802ef5c0f535,,,,,,5e7393671992802ef5c0f535,Mężczyzna,23,2021-09-06_19h09.15.762,rantool2,2021.1.4,Win32,59.86590038,6135e006383e6ea6c3d06a28,61364ac9bf35868b771a2cbb,"[""comma""]",0,[0.5865999999996347],52,0,52,0,1
,,,,,,,5e7393671992802ef5c0f535,,,,,,5e7393671992802ef5c0f535,Mężczyzna,23,2021-09-06_19h09.15.762,rantool2,2021.1.4,Win32,59.86590038,6135e006383e6ea6c3d06a28,61364ac9bf35868b771a2cbb,"[""period""]",0,[0.3020999999995979],53,0,53,0,1
,,,,,,,5e7393671992802ef5c0f535,,,,,,5e7393671992802ef5c0f535,Mężczyzna,23,2021-09-06_19h09.15.762,rantool2,2021.1.4,Win32,59.86590038,6135e006383e6ea6c3d06a28,61364ac9bf35868b771a2cbb,"[""comma"",""period""]",0,"[0.23799999999999955,0.24989999999849033]",54,0,54,0,1
,,,,,,,5e7393671992802ef5c0f535,,,,,,5e7393671992802ef5c0f535,Mężczyzna,23,2021-09-06_19h09.15.762,rantool2,2021.1.4,Win32,59.86590038,6135e006383e6ea6c3d06a28,61364ac9bf35868b771a2cbb,"[""period"",""comma""]",0,"[0.640299999998831,0.7360999999996238]",55,0,55,0,1
,,,,,,,5e7393671992802ef5c0f535,,,,,,5e7393671992802ef5c0f535,Mężczyzna,23,2021-09-06_19h09.15.762,rantool2,2021.1.4,Win32,59.86590038,6135e006383e6ea6c3d06a28,61364ac9bf35868b771a2cbb,"[""comma""]",0,[0.8507999999989124],56,0,56,0,1
,,,,,,,5e7393671992802ef5c0f535,,,,,,5e7393671992802ef5c0f535,Mężczyzna,23,2021-09-06_19h09.15.762,rantool2,2021.1.4,Win32,59.86590038,6135e006383e6ea6c3d06a28,61364ac9bf35868b771a2cbb,"[""period"",""comma""]",0,"[0.4326999999992722,0.4670999999996184]",57,0,57,0,1
,,,,,,,5e7393671992802ef5c0f535,,,,,,5e7393671992802ef5c0f535,Mężczyzna,23,2021-09-06_19h09.15.762,rantool2,2021.1.4,Win32,59.86590038,6135e006383e6ea6c3d06a28,61364ac9bf35868b771a2cbb,"[""period"",""comma""]",0,"[0.2869000000003439,0.30349999999998545]",58,0,58,0,1
,,,,,,,5e7393671992802ef5c0f535,,,,,,5e7393671992802ef5c0f535,Mężczyzna,23,2021-09-06_19h09.15.762,rantool2,2021.1.4,Win32,59.86590038,6135e006383e6ea6c3d06a28,61364ac9bf35868b771a2cbb,"[""comma"",""period""]",0,"[0.548400000000413,0.5663000000007514]",59,0,59,0,1
,,,,,,,5e7393671992802ef5c0f535,,,,,,5e7393671992802ef5c0f535,Mężczyzna,23,2021-09-06_19h09.15.762,rantool2,2021.1.4,Win32,59.86590038,6135e006383e6ea6c3d06a28,61364ac9bf35868b771a2cbb,"[""period"",""comma""]",0,"[0.4867999999988797,0.487199999999234]",60,0,60,0,1
,,,,,,,5e7393671992802ef5c0f535,,,,,,5e7393671992802ef5c0f535,Mężczyzna,23,2021-09-06_19h09.15.762,rantool2,2021.1.4,Win32,59.86590038,6135e006383e6ea6c3d06a28,61364ac9bf35868b771a2cbb,"[""period"",""comma""]",0,"[0.34190000000040754,0.35759999999964975]",61,0,61,0,1
,,,,,,,5e7393671992802ef5c0f535,,,,,,5e7393671992802ef5c0f535,Mężczyzna,23,2021-09-06_19h09.15.762,rantool2,2021.1.4,Win32,59.86590038,6135e006383e6ea6c3d06a28,61364ac9bf35868b771a2cbb,"[""period"",""comma""]",0,"[0.521599999999637,0.5376999999992336]",62,0,62,0,1
,,,,,,,5e7393671992802ef5c0f535,,,,,,5e7393671992802ef5c0f535,Mężczyzna,23,2021-09-06_19h09.15.762,rantool2,2021.1.4,Win32,59.86590038,6135e006383e6ea6c3d06a28,61364ac9bf35868b771a2cbb,"[""period"",""comma""]",0,"[0.7655999999996084,0.765800000000695]",63,0,63,0,1
,,,,,,,5e7393671992802ef5c0f535,,,,,,5e7393671992802ef5c0f535,Mężczyzna,23,2021-09-06_19h09.15.762,rantool2,2021.1.4,Win32,59.86590038,6135e006383e6ea6c3d06a28,61364ac9bf35868b771a2cbb,"[""comma"",""period""]",0,"[0.6049000000003844,0.6213000000007582]",64,0,64,0,1
,,,,,,,5e7393671992802ef5c0f535,,,,,,5e7393671992802ef5c0f535,Mężczyzna,23,2021-09-06_19h09.15.762,rantool2,2021.1.4,Win32,59.86590038,6135e006383e6ea6c3d06a28,61364ac9bf35868b771a2cbb,"[""period"",""comma""]",0,"[0.3490000000000464,0.3490999999996234]",65,0,65,0,1
,,,,,,,5e7393671992802ef5c0f535,,,,,,5e7393671992802ef5c0f535,Mężczyzna,23,2021-09-06_19h09.15.762,rantool2,2021.1.4,Win32,59.86590038,6135e006383e6ea6c3d06a28,61364ac9bf35868b771a2cbb,"[""period""]",0,[0.3830999999996152],66,0,66,0,1
,,,,,,,5e7393671992802ef5c0f535,,,,,,5e7393671992802ef5c0f535,Mężczyzna,23,2021-09-06_19h09.15.762,rantool2,2021.1.4,Win32,59.86590038,6135e006383e6ea6c3d06a28,61364ac9bf35868b771a2cbb,"[""comma""]",0,[0.49580000000077007],67,0,67,0,1
,,,,,,,5e7393671992802ef5c0f535,,,,,,5e7393671992802ef5c0f535,Mężczyzna,23,2021-09-06_19h09.15.762,rantool2,2021.1.4,Win32,59.86590038,6135e006383e6ea6c3d06a28,61364ac9bf35868b771a2cbb,"[""comma""]",0,[0.804399999998509],68,0,68,0,1
,,,,,,,5e7393671992802ef5c0f535,,,,,,5e7393671992802ef5c0f535,Mężczyzna,23,2021-09-06_19h09.15.762,rantool2,2021.1.4,Win32,59.86590038,6135e006383e6ea6c3d06a28,61364ac9bf35868b771a2cbb,"[""period""]",0,[0.46800000000001774],69,0,69,0,1
,,,,,,,5e7393671992802ef5c0f535,,,,,,5e7393671992802ef5c0f535,Mężczyzna,23,2021-09-06_19h09.15.762,rantool2,2021.1.4,Win32,59.86590038,6135e006383e6ea6c3d06a28,61364ac9bf35868b771a2cbb,"[""comma"",""period""]",0,"[0.7592999999988592,0.8082999999988942]",70,0,70,0,1
,,,,,,,5e7393671992802ef5c0f535,,,,,,5e7393671992802ef5c0f535,Mężczyzna,23,2021-09-06_19h09.15.762,rantool2,2021.1.4,Win32,59.86590038,6135e006383e6ea6c3d06a28,61364ac9bf35868b771a2cbb,"[""comma"",""period""]",0,"[1.115599999999631,1.1679000000003725]",71,0,71,0,1
,,,,,,,5e7393671992802ef5c0f535,,,,,,5e7393671992802ef5c0f535,Mężczyzna,23,2021-09-06_19h09.15.762,rantool2,2021.1.4,Win32,59.86590038,6135e006383e6ea6c3d06a28,61364ac9bf35868b771a2cbb,"[""comma"",""period""]",0,"[0.4534999999999627,0.46920000000108075]",72,0,72,0,1
,,,,,,,5e7393671992802ef5c0f535,,,,,,5e7393671992802ef5c0f535,Mężczyzna,23,2021-09-06_19h09.15.762,rantool2,2021.1.4,Win32,59.86590038,6135e006383e6ea6c3d06a28,61364ac9bf35868b771a2cbb,"[""comma""]",0,[0.34529999999887195],73,0,73,0,1
,,,,,,,5e7393671992802ef5c0f535,,,,,,5e7393671992802ef5c0f535,Mężczyzna,23,2021-09-06_19h09.15.762,rantool2,2021.1.4,Win32,59.86590038,6135e006383e6ea6c3d06a28,61364ac9bf35868b771a2cbb,"[""period"",""comma""]",0,"[0.20190000000036434,0.20199999999999818]",74,0,74,0,1
,,,,,,,5e7393671992802ef5c0f535,,,,,,5e7393671992802ef5c0f535,Mężczyzna,23,2021-09-06_19h09.15.762,rantool2,2021.1.4,Win32,59.86590038,6135e006383e6ea6c3d06a28,61364ac9bf35868b771a2cbb,"[""comma""]",0,[0.346400000000358],75,0,75,0,1
,,,,,,,5e7393671992802ef5c0f535,,,,,,5e7393671992802ef5c0f535,Mężczyzna,23,2021-09-06_19h09.15.762,rantool2,2021.1.4,Win32,59.86590038,6135e006383e6ea6c3d06a28,61364ac9bf35868b771a2cbb,"[""period""]",0,[0.3969000000003575],76,0,76,0,1
,,,,,,,5e7393671992802ef5c0f535,,,,,,5e7393671992802ef5c0f535,Mężczyzna,23,2021-09-06_19h09.15.762,rantool2,2021.1.4,Win32,59.86590038,6135e006383e6ea6c3d06a28,61364ac9bf35868b771a2cbb,"[""period""]",0,[0.31850000000002865],77,0,77,0,1
,,,,,,,5e7393671992802ef5c0f535,,,,,,5e7393671992802ef5c0f535,Mężczyzna,23,2021-09-06_19h09.15.762,rantool2,2021.1.4,Win32,59.86590038,6135e006383e6ea6c3d06a28,61364ac9bf35868b771a2cbb,"[""period""]",0,[0.6435999999996511],78,0,78,0,1
,,,,,,,5e7393671992802ef5c0f535,,,,,,5e7393671992802ef5c0f535,Mężczyzna,23,2021-09-06_19h09.15.762,rantool2,2021.1.4,Win32,59.86590038,6135e006383e6ea6c3d06a28,61364ac9bf35868b771a2cbb,"[""comma""]",0,[0.5311999999992167],79,0,79,0,1
,,,,,,,5e7393671992802ef5c0f535,,,,,,5e7393671992802ef5c0f535,Mężczyzna,23,2021-09-06_19h09.15.762,rantool2,2021.1.4,Win32,59.86590038,6135e006383e6ea6c3d06a28,61364ac9bf35868b771a2cbb,"[""comma""]",0,[0.43459999999964793],80,0,80,0,1
,,,,,,,5e7393671992802ef5c0f535,,,,,,5e7393671992802ef5c0f535,Mężczyzna,23,2021-09-06_19h09.15.762,rantool2,2021.1.4,Win32,59.86590038,6135e006383e6ea6c3d06a28,61364ac9bf35868b771a2cbb,"[""comma""]",0,[0.5810000000000173],81,0,81,0,1
,,,,,,,5e7393671992802ef5c0f535,,,,,,5e7393671992802ef5c0f535,Mężczyzna,23,2021-09-06_19h09.15.762,rantool2,2021.1.4,Win32,59.86590038,6135e006383e6ea6c3d06a28,61364ac9bf35868b771a2cbb,"[""period"",""comma"",""period""]",0,"[0.5199999999999818,0.53449999999998,0.616800000000751]",82,0,82,0,1
,,,,,,,5e7393671992802ef5c0f535,,,,,,5e7393671992802ef5c0f535,Mężczyzna,23,2021-09-06_19h09.15.762,rantool2,2021.1.4,Win32,59.86590038,6135e006383e6ea6c3d06a28,61364ac9bf35868b771a2cbb,"[""period""]",0,[0.6992999999989138],83,0,83,0,1
,,,,,,,5e7393671992802ef5c0f535,,,,,,5e7393671992802ef5c0f535,Mężczyzna,23,2021-09-06_19h09.15.762,rantool2,2021.1.4,Win32,59.86590038,6135e006383e6ea6c3d06a28,61364ac9bf35868b771a2cbb,"[""comma""]",0,[0.6362999999988688],84,0,84,0,1
,,,,,,,5e7393671992802ef5c0f535,,,,,,5e7393671992802ef5c0f535,Mężczyzna,23,2021-09-06_19h09.15.762,rantool2,2021.1.4,Win32,59.86590038,6135e006383e6ea6c3d06a28,61364ac9bf35868b771a2cbb,"[""period""]",0,[0.3129999999999882],85,0,85,0,1
,,,,,,,5e7393671992802ef5c0f535,,,,,,5e7393671992802ef5c0f535,Mężczyzna,23,2021-09-06_19h09.15.762,rantool2,2021.1.4,Win32,59.86590038,6135e006383e6ea6c3d06a28,61364ac9bf35868b771a2cbb,"[""comma"",""period""]",0,"[0.28169999999926176,0.297900000000368]",86,0,86,0,1
,,,,,,,5e7393671992802ef5c0f535,,,,,,5e7393671992802ef5c0f535,Mężczyzna,23,2021-09-06_19h09.15.762,rantool2,2021.1.4,Win32,59.86590038,6135e006383e6ea6c3d06a28,61364ac9bf35868b771a2cbb,"[""period"",""comma""]",0,"[-0.006299999998873318,0.01030000000076825]",87,0,87,0,1
,,,,,,,5e7393671992802ef5c0f535,,,,,,5e7393671992802ef5c0f535,Mężczyzna,23,2021-09-06_19h09.15.762,rantool2,2021.1.4,Win32,59.86590038,6135e006383e6ea6c3d06a28,61364ac9bf35868b771a2cbb,"[""period"",""comma""]",0,"[0.8035999999996193,0.8353000000007569]",88,0,88,0,1
,,,,,,,5e7393671992802ef5c0f535,,,,,,5e7393671992802ef5c0f535,Mężczyzna,23,2021-09-06_19h09.15.762,rantool2,2021.1.4,Win32,59.86590038,6135e006383e6ea6c3d06a28,61364ac9bf35868b771a2cbb,"[""period"",""comma""]",0,"[1.176300000000765,1.176900000000387]",89,0,89,0,1
,,,,,,,5e7393671992802ef5c0f535,,,,,,5e7393671992802ef5c0f535,Mężczyzna,23,2021-09-06_19h09.15.762,rantool2,2021.1.4,Win32,59.86590038,6135e006383e6ea6c3d06a28,61364ac9bf35868b771a2cbb,"[""period"",""comma""]",0,"[0.6778000000007296,0.6782000000011408]",90,0,90,0,1
,,,,,,,5e7393671992802ef5c0f535,,,,,,5e7393671992802ef5c0f535,Mężczyzna,23,2021-09-06_19h09.15.762,rantool2,2021.1.4,Win32,59.86590038,6135e006383e6ea6c3d06a28,61364ac9bf35868b771a2cbb,"[""period"",""comma""]",0,"[1.4535000000000196,1.4535999999996534]",91,0,91,0,1
,,,,,,,5e7393671992802ef5c0f535,,,,,,5e7393671992802ef5c0f535,Mężczyzna,23,2021-09-06_19h09.15.762,rantool2,2021.1.4,Win32,59.86590038,6135e006383e6ea6c3d06a28,61364ac9bf35868b771a2cbb,0,0,,92,0,92,0,1
,,,,,,,5e7393671992802ef5c0f535,,,,,,5e7393671992802ef5c0f535,Mężczyzna,23,2021-09-06_19h09.15.762,rantool2,2021.1.4,Win32,59.86590038,6135e006383e6ea6c3d06a28,61364ac9bf35868b771a2cbb,0,0,,93,0,93,0,1
,,,,,,,5e7393671992802ef5c0f535,,,,,,5e7393671992802ef5c0f535,Mężczyzna,23,2021-09-06_19h09.15.762,rantool2,2021.1.4,Win32,59.86590038,6135e006383e6ea6c3d06a28,61364ac9bf35868b771a2cbb,"[""period"",""comma""]",0,"[0.4091999999992595,0.4410000000000309]",94,0,94,0,1
,,,,,,,5e7393671992802ef5c0f535,,,,,,5e7393671992802ef5c0f535,Mężczyzna,23,2021-09-06_19h09.15.762,rantool2,2021.1.4,Win32,59.86590038,6135e006383e6ea6c3d06a28,61364ac9bf35868b771a2cbb,"[""period"",""comma""]",0,"[1.5197999999988951,1.5370999999996684]",95,0,95,0,1
,,,,,,,5e7393671992802ef5c0f535,,,,,,5e7393671992802ef5c0f535,Mężczyzna,23,2021-09-06_19h09.15.762,rantool2,2021.1.4,Win32,59.86590038,6135e006383e6ea6c3d06a28,61364ac9bf35868b771a2cbb,"[""period"",""comma""]",0,"[1.188099999999622,1.1883000000007087]",96,0,96,0,1
,,,,,,,5e7393671992802ef5c0f535,,,,,,5e7393671992802ef5c0f535,Mężczyzna,23,2021-09-06_19h09.15.762,rantool2,2021.1.4,Win32,59.86590038,6135e006383e6ea6c3d06a28,61364ac9bf35868b771a2cbb,"[""comma"",""period""]",0,"[0.5105000000000359,0.5264999999999986]",97,0,97,0,1
,,,,,,,5e7393671992802ef5c0f535,,,,,,5e7393671992802ef5c0f535,Mężczyzna,23,2021-09-06_19h09.15.762,rantool2,2021.1.4,Win32,59.86590038,6135e006383e6ea6c3d06a28,61364ac9bf35868b771a2cbb,"[""period"",""comma""]",0,"[0.967300000000705,0.9675999999996066]",98,0,98,0,1
,,,,,,,5e7393671992802ef5c0f535,,,,,,5e7393671992802ef5c0f535,Mężczyzna,23,2021-09-06_19h09.15.762,rantool2,2021.1.4,Win32,59.86590038,6135e006383e6ea6c3d06a28,61364ac9bf35868b771a2cbb,"[""period"",""comma""]",0,"[0.5765999999996438,0.5936999999992736]",99,0,99,0,1
,,,,,,,5e7393671992802ef5c0f535,,,,,,5e7393671992802ef5c0f535,Mężczyzna,23,2021-09-06_19h09.15.762,rantool2,2021.1.4,Win32,59.86590038,6135e006383e6ea6c3d06a28,61364ac9bf35868b771a2cbb,"[""period"",""comma"",""period"",""comma"",""period"",""comma""]",0,"[0.04529999999891743,0.04569999999927177,0.36729999999892016,0.5445999999996616,0.771000000000015,0.835299999998881]",100,0,100,0,1
,,,,,,,5e7393671992802ef5c0f535,,,,,,5e7393671992802ef5c0f535,Mężczyzna,23,2021-09-06_19h09.15.762,rantool2,2021.1.4,Win32,59.86590038,6135e006383e6ea6c3d06a28,61364ac9bf35868b771a2cbb,"[""period"",""comma"",""comma"",""period""]",0,"[0.24259999999964066,0.27350000000001273,0.6937000000011722,0.789099999999678]",101,0,101,0,1
,,,,,,,5e7393671992802ef5c0f535,,,,,,5e7393671992802ef5c0f535,Mężczyzna,23,2021-09-06_19h09.15.762,rantool2,2021.1.4,Win32,59.86590038,6135e006383e6ea6c3d06a28,61364ac9bf35868b771a2cbb,"[""period"",""comma"",""comma"",""period""]",0,"[0.3550000000000182,0.43620000000112213,1.0485000000000468,1.1777000000011526]",102,0,102,0,1
,,,,,,,5e7393671992802ef5c0f535,,,,,,5e7393671992802ef5c0f535,Mężczyzna,23,2021-09-06_19h09.15.762,rantool2,2021.1.4,Win32,59.86590038,6135e006383e6ea6c3d06a28,61364ac9bf35868b771a2cbb,"[""period"",""comma""]",0,"[0.8740000000000236,0.8909000000003857]",103,0,103,0,1
,,,,,,,5e7393671992802ef5c0f535,,,,,,5e7393671992802ef5c0f535,Mężczyzna,23,2021-09-06_19h09.15.762,rantool2,2021.1.4,Win32,59.86590038,6135e006383e6ea6c3d06a28,61364ac9bf35868b771a2cbb,"[""period"",""comma""]",0,"[0.7343999999985158,0.7507999999988897]",104,0,104,0,1
,,,,,,,5e7393671992802ef5c0f535,,,,,,5e7393671992802ef5c0f535,Mężczyzna,23,2021-09-06_19h09.15.762,rantool2,2021.1.4,Win32,59.86590038,6135e006383e6ea6c3d06a28,61364ac9bf35868b771a2cbb,"[""period"",""comma""]",0,"[0.5049999999999955,0.5205999999996038]",105,0,105,0,1
,,,,,,,5e7393671992802ef5c0f535,,,,,,5e7393671992802ef5c0f535,Mężczyzna,23,2021-09-06_19h09.15.762,rantool2,2021.1.4,Win32,59.86590038,6135e006383e6ea6c3d06a28,61364ac9bf35868b771a2cbb,"[""period""]",0,[0.2661000000014724],106,0,106,0,1
,,,,,,,5e7393671992802ef5c0f535,,,,,,5e7393671992802ef5c0f535,Mężczyzna,23,2021-09-06_19h09.15.762,rantool2,2021.1.4,Win32,59.86590038,6135e006383e6ea6c3d06a28,61364ac9bf35868b771a2cbb,"[""comma""]",0,[0.31480000000073005],107,0,107,0,1
,,,,,,,5e7393671992802ef5c0f535,,,,,,5e7393671992802ef5c0f535,Mężczyzna,23,2021-09-06_19h09.15.762,rantool2,2021.1.4,Win32,59.86590038,6135e006383e6ea6c3d06a28,61364ac9bf35868b771a2cbb,"[""comma""]",0,[0.42999999999995],108,0,108,0,1
,,,,,,,5e7393671992802ef5c0f535,,,,,,5e7393671992802ef5c0f535,Mężczyzna,23,2021-09-06_19h09.15.762,rantool2,2021.1.4,Win32,59.86590038,6135e006383e6ea6c3d06a28,61364ac9bf35868b771a2cbb,"[""comma""]",0,[0.43280000000072505],109,0,109,0,1
,,,,,,,5e7393671992802ef5c0f535,,,,,,5e7393671992802ef5c0f535,Mężczyzna,23,2021-09-06_19h09.15.762,rantool2,2021.1.4,Win32,59.86590038,6135e006383e6ea6c3d06a28,61364ac9bf35868b771a2cbb,"[""comma""]",0,[0.2876999999992904],110,0,110,0,1
,,,,,,,5e7393671992802ef5c0f535,,,,,,5e7393671992802ef5c0f535,Mężczyzna,23,2021-09-06_19h09.15.762,rantool2,2021.1.4,Win32,59.86590038,6135e006383e6ea6c3d06a28,61364ac9bf35868b771a2cbb,"[""period""]",0,[0.17609999999962156],111,0,111,0,1
,,,,,,,5e7393671992802ef5c0f535,,,,,,5e7393671992802ef5c0f535,Mężczyzna,23,2021-09-06_19h09.15.762,rantool2,2021.1.4,Win32,59.86590038,6135e006383e6ea6c3d06a28,61364ac9bf35868b771a2cbb,"[""period""]",0,[0.9371999999992227],112,0,112,0,1
,,,,,,,5e7393671992802ef5c0f535,,,,,,5e7393671992802ef5c0f535,Mężczyzna,23,2021-09-06_19h09.15.762,rantool2,2021.1.4,Win32,59.86590038,6135e006383e6ea6c3d06a28,61364ac9bf35868b771a2cbb,"[""period""]",0,[0.22709999999960928],113,0,113,0,1
,,,,,,,5e7393671992802ef5c0f535,,,,,,5e7393671992802ef5c0f535,Mężczyzna,23,2021-09-06_19h09.15.762,rantool2,2021.1.4,Win32,59.86590038,6135e006383e6ea6c3d06a28,61364ac9bf35868b771a2cbb,"[""period"",""period"",""comma""]",0,"[0.10180000000076461,0.3575000000000159,1.9709000000003698]",114,0,114,0,1
,,,,,,,5e7393671992802ef5c0f535,,,,,,5e7393671992802ef5c0f535,Mężczyzna,23,2021-09-06_19h09.15.762,rantool2,2021.1.4,Win32,59.86590038,6135e006383e6ea6c3d06a28,61364ac9bf35868b771a2cbb,"[""period"",""comma""]",0,"[0.665800000000786,0.7007000000011203]",115,0,115,0,1
,,,,,,,5e7393671992802ef5c0f535,,,,,,5e7393671992802ef5c0f535,Mężczyzna,23,2021-09-06_19h09.15.762,rantool2,2021.1.4,Win32,59.86590038,6135e006383e6ea6c3d06a28,61364ac9bf35868b771a2cbb,"[""period"",""comma""]",0,"[0.3782999999988874,0.39559999999966067]",116,0,116,0,1
,,,,,,,5e7393671992802ef5c0f535,,,,,,5e7393671992802ef5c0f535,Mężczyzna,23,2021-09-06_19h09.15.762,rantool2,2021.1.4,Win32,59.86590038,6135e006383e6ea6c3d06a28,61364ac9bf35868b771a2cbb,"[""period"",""comma""]",0,"[0.33190000000041664,0.33229999999889515]",117,0,117,0,1
,,,,,,,5e7393671992802ef5c0f535,,,,,,5e7393671992802ef5c0f535,Mężczyzna,23,2021-09-06_19h09.15.762,rantool2,2021.1.4,Win32,59.86590038,6135e006383e6ea6c3d06a28,61364ac9bf35868b771a2cbb,"[""comma"",""period""]",0,"[0.3480000000000132,0.36590000000040845]",118,0,118,0,1
,,,,,,,5e7393671992802ef5c0f535,,,,,,5e7393671992802ef5c0f535,Mężczyzna,23,2021-09-06_19h09.15.762,rantool2,2021.1.4,Win32,59.86590038,6135e006383e6ea6c3d06a28,61364ac9bf35868b771a2cbb,"[""period"",""comma""]",0,"[0.35019999999923357,0.35050000000006776]",119,0,119,0,1
