key_resp_7.keys,key_resp_7.rt,trials_2.thisRepN,trials_2.thisTrialN,trials_2.thisN,trials_2.thisIndex,trials_2.ran,id,series_0,series_1,acss_0,acss_1,comparison,id*,Płeć*,Wiek*,date,expName,psychopyVersion,OS,frameRate,STUDY_ID,SESSION_ID,key_resp_5.keys,key_resp_5.corr,key_resp_5.rt,trials.thisRepN,trials.thisTrialN,trials.thisN,trials.thisIndex,trials.ran
f,1.742,0,0,0,48,1,5fcfe4545aaa21191399943d,RROOOOO,RROOOOR,20.90986523,22.15934078,series_1,5fcfe4545aaa21191399943d,Kobieta,19,2021-09-06_19h03.39.303,rantool2,2021.1.4,Win32,60.0132029,6135e006383e6ea6c3d06a28,61364995e14d8e66ee13bb69,,,,,,,,
f,1.5355,0,1,1,0,1,5fcfe4545aaa21191399943d,OOOOOOO,OOOOOOR,18.52739004,19.62521613,series_1,5fcfe4545aaa21191399943d,Kobieta,19,2021-09-06_19h03.39.303,rantool2,2021.1.4,Win32,60.0132029,6135e006383e6ea6c3d06a28,61364995e14d8e66ee13bb69,,,,,,,,
j,1.3304,0,2,2,17,1,5fcfe4545aaa21191399943d,OROOORO,OROOORR,21.03750787,22.12173012,series_1,5fcfe4545aaa21191399943d,Kobieta,19,2021-09-06_19h03.39.303,rantool2,2021.1.4,Win32,60.0132029,6135e006383e6ea6c3d06a28,61364995e14d8e66ee13bb69,,,,,,,,
j,2.8225,0,3,3,39,1,5fcfe4545aaa21191399943d,ROORRRO,ROORRRR,21.82425538,21.38562617,series_0,5fcfe4545aaa21191399943d,Kobieta,19,2021-09-06_19h03.39.303,rantool2,2021.1.4,Win32,60.0132029,6135e006383e6ea6c3d06a28,61364995e14d8e66ee13bb69,,,,,,,,
j,1.7306,0,4,4,4,1,5fcfe4545aaa21191399943d,OOOROOO,OOOROOR,19.91402015,21.21223021,series_1,5fcfe4545aaa21191399943d,Kobieta,19,2021-09-06_19h03.39.303,rantool2,2021.1.4,Win32,60.0132029,6135e006383e6ea6c3d06a28,61364995e14d8e66ee13bb69,,,,,,,,
f,3.1352,0,5,5,46,1,5fcfe4545aaa21191399943d,RORRROO,RORRROR,22.00300695,21.24781509,series_0,5fcfe4545aaa21191399943d,Kobieta,19,2021-09-06_19h03.39.303,rantool2,2021.1.4,Win32,60.0132029,6135e006383e6ea6c3d06a28,61364995e14d8e66ee13bb69,,,,,,,,
j,1.9143,0,6,6,60,1,5fcfe4545aaa21191399943d,RRRROOO,RRRROOR,22.10108823,22.15934078,series_1,5fcfe4545aaa21191399943d,Kobieta,19,2021-09-06_19h03.39.303,rantool2,2021.1.4,Win32,60.0132029,6135e006383e6ea6c3d06a28,61364995e14d8e66ee13bb69,,,,,,,,
f,2.4822,0,7,7,42,1,5fcfe4545aaa21191399943d,ROROROO,ROROROR,20.39515459,19.8361834,series_0,5fcfe4545aaa21191399943d,Kobieta,19,2021-09-06_19h03.39.303,rantool2,2021.1.4,Win32,60.0132029,6135e006383e6ea6c3d06a28,61364995e14d8e66ee13bb69,,,,,,,,
f,2.3879,0,8,8,1,1,5fcfe4545aaa21191399943d,OOOOORO,OOOOORR,19.92253567,20.74050628,series_1,5fcfe4545aaa21191399943d,Kobieta,19,2021-09-06_19h03.39.303,rantool2,2021.1.4,Win32,60.0132029,6135e006383e6ea6c3d06a28,61364995e14d8e66ee13bb69,,,,,,,,
f,2.1813,0,9,9,63,1,5fcfe4545aaa21191399943d,RRRRRRO,RRRRRRR,21.35278725,19.62521613,series_0,5fcfe4545aaa21191399943d,Kobieta,19,2021-09-06_19h03.39.303,rantool2,2021.1.4,Win32,60.0132029,6135e006383e6ea6c3d06a28,61364995e14d8e66ee13bb69,,,,,,,,
j,1.7889,0,10,10,10,1,5fcfe4545aaa21191399943d,OOROROO,OOROROR,21.31236711,21.07490964,series_0,5fcfe4545aaa21191399943d,Kobieta,19,2021-09-06_19h03.39.303,rantool2,2021.1.4,Win32,60.0132029,6135e006383e6ea6c3d06a28,61364995e14d8e66ee13bb69,,,,,,,,
f,1.8238,0,11,11,29,1,5fcfe4545aaa21191399943d,ORRRORO,ORRRORR,22.00300695,22.12173012,series_1,5fcfe4545aaa21191399943d,Kobieta,19,2021-09-06_19h03.39.303,rantool2,2021.1.4,Win32,60.0132029,6135e006383e6ea6c3d06a28,61364995e14d8e66ee13bb69,,,,,,,,
f,2.6832,0,12,12,59,1,5fcfe4545aaa21191399943d,RRRORRO,RRRORRR,21.56657303,20.89823192,series_0,5fcfe4545aaa21191399943d,Kobieta,19,2021-09-06_19h03.39.303,rantool2,2021.1.4,Win32,60.0132029,6135e006383e6ea6c3d06a28,61364995e14d8e66ee13bb69,,,,,,,,
f,2.2002,0,13,13,3,1,5fcfe4545aaa21191399943d,OOOORRO,OOOORRR,20.90986523,21.74922619,series_1,5fcfe4545aaa21191399943d,Kobieta,19,2021-09-06_19h03.39.303,rantool2,2021.1.4,Win32,60.0132029,6135e006383e6ea6c3d06a28,61364995e14d8e66ee13bb69,,,,,,,,
j,1.809,0,14,14,28,1,5fcfe4545aaa21191399943d,ORRROOO,ORRROOR,22.24142883,22.53364006,series_1,5fcfe4545aaa21191399943d,Kobieta,19,2021-09-06_19h03.39.303,rantool2,2021.1.4,Win32,60.0132029,6135e006383e6ea6c3d06a28,61364995e14d8e66ee13bb69,,,,,,,,
f,1.9526,0,15,15,25,1,5fcfe4545aaa21191399943d,ORROORO,ORROORR,21.79500819,22.61624387,series_1,5fcfe4545aaa21191399943d,Kobieta,19,2021-09-06_19h03.39.303,rantool2,2021.1.4,Win32,60.0132029,6135e006383e6ea6c3d06a28,61364995e14d8e66ee13bb69,,,,,,,,
j,2.7562,0,16,16,6,1,5fcfe4545aaa21191399943d,OOORROO,OOORROR,21.12383932,21.38562617,series_1,5fcfe4545aaa21191399943d,Kobieta,19,2021-09-06_19h03.39.303,rantool2,2021.1.4,Win32,60.0132029,6135e006383e6ea6c3d06a28,61364995e14d8e66ee13bb69,,,,,,,,
f,2.8061,0,17,17,5,1,5fcfe4545aaa21191399943d,OOORORO,OOORORR,20.87963819,21.9921709,series_1,5fcfe4545aaa21191399943d,Kobieta,19,2021-09-06_19h03.39.303,rantool2,2021.1.4,Win32,60.0132029,6135e006383e6ea6c3d06a28,61364995e14d8e66ee13bb69,,,,,,,,
j,3.0834,0,18,18,36,1,5fcfe4545aaa21191399943d,ROOROOO,ROOROOR,21.07991943,20.9984461,series_0,5fcfe4545aaa21191399943d,Kobieta,19,2021-09-06_19h03.39.303,rantool2,2021.1.4,Win32,60.0132029,6135e006383e6ea6c3d06a28,61364995e14d8e66ee13bb69,,,,,,,,
f,1.6812,0,19,19,54,1,5fcfe4545aaa21191399943d,RRORROO,RRORROR,21.55250791,20.9984461,series_0,5fcfe4545aaa21191399943d,Kobieta,19,2021-09-06_19h03.39.303,rantool2,2021.1.4,Win32,60.0132029,6135e006383e6ea6c3d06a28,61364995e14d8e66ee13bb69,,,,,,,,
j,1.8483,0,20,20,16,1,5fcfe4545aaa21191399943d,OROOOOO,OROOOOR,20.43051175,21.17347734,series_1,5fcfe4545aaa21191399943d,Kobieta,19,2021-09-06_19h03.39.303,rantool2,2021.1.4,Win32,60.0132029,6135e006383e6ea6c3d06a28,61364995e14d8e66ee13bb69,,,,,,,,
f,1.582,0,21,21,22,1,5fcfe4545aaa21191399943d,ORORROO,ORORROR,22.02732763,21.57657071,series_0,5fcfe4545aaa21191399943d,Kobieta,19,2021-09-06_19h03.39.303,rantool2,2021.1.4,Win32,60.0132029,6135e006383e6ea6c3d06a28,61364995e14d8e66ee13bb69,,,,,,,,
j,1.2574,0,22,22,44,1,5fcfe4545aaa21191399943d,RORROOO,RORROOR,21.66733484,22.02566557,series_1,5fcfe4545aaa21191399943d,Kobieta,19,2021-09-06_19h03.39.303,rantool2,2021.1.4,Win32,60.0132029,6135e006383e6ea6c3d06a28,61364995e14d8e66ee13bb69,,,,,,,,
f,1.2318,0,23,23,14,1,5fcfe4545aaa21191399943d,OORRROO,OORRROR,22.24142883,22.16977179,series_0,5fcfe4545aaa21191399943d,Kobieta,19,2021-09-06_19h03.39.303,rantool2,2021.1.4,Win32,60.0132029,6135e006383e6ea6c3d06a28,61364995e14d8e66ee13bb69,,,,,,,,
f,1.569,0,24,24,35,1,5fcfe4545aaa21191399943d,ROOORRO,ROOORRR,21.76276513,22.16977179,series_1,5fcfe4545aaa21191399943d,Kobieta,19,2021-09-06_19h03.39.303,rantool2,2021.1.4,Win32,60.0132029,6135e006383e6ea6c3d06a28,61364995e14d8e66ee13bb69,,,,,,,,
j,1.4875,0,25,25,21,1,5fcfe4545aaa21191399943d,ORORORO,ORORORR,20.39515459,22.06781359,series_1,5fcfe4545aaa21191399943d,Kobieta,19,2021-09-06_19h03.39.303,rantool2,2021.1.4,Win32,60.0132029,6135e006383e6ea6c3d06a28,61364995e14d8e66ee13bb69,,,,,,,,
j,1.635,0,26,26,30,1,5fcfe4545aaa21191399943d,ORRRROO,ORRRROR,22.46748491,22.03072203,series_0,5fcfe4545aaa21191399943d,Kobieta,19,2021-09-06_19h03.39.303,rantool2,2021.1.4,Win32,60.0132029,6135e006383e6ea6c3d06a28,61364995e14d8e66ee13bb69,,,,,,,,
f,1.5927,0,27,27,23,1,5fcfe4545aaa21191399943d,ORORRRO,ORORRRR,22.1285618,21.9921709,series_0,5fcfe4545aaa21191399943d,Kobieta,19,2021-09-06_19h03.39.303,rantool2,2021.1.4,Win32,60.0132029,6135e006383e6ea6c3d06a28,61364995e14d8e66ee13bb69,,,,,,,,
j,0.8917,0,28,28,52,1,5fcfe4545aaa21191399943d,RROROOO,RROROOR,22.18365867,22.11097995,series_0,5fcfe4545aaa21191399943d,Kobieta,19,2021-09-06_19h03.39.303,rantool2,2021.1.4,Win32,60.0132029,6135e006383e6ea6c3d06a28,61364995e14d8e66ee13bb69,,,,,,,,
f,2.5389,0,29,29,31,1,5fcfe4545aaa21191399943d,ORRRRRO,ORRRRRR,22.16413392,20.74050628,series_0,5fcfe4545aaa21191399943d,Kobieta,19,2021-09-06_19h03.39.303,rantool2,2021.1.4,Win32,60.0132029,6135e006383e6ea6c3d06a28,61364995e14d8e66ee13bb69,,,,,,,,
j,1.4391,0,30,30,26,1,5fcfe4545aaa21191399943d,ORROROO,ORROROR,22.02732763,21.71443381,series_0,5fcfe4545aaa21191399943d,Kobieta,19,2021-09-06_19h03.39.303,rantool2,2021.1.4,Win32,60.0132029,6135e006383e6ea6c3d06a28,61364995e14d8e66ee13bb69,,,,,,,,
j,1.788,0,31,31,61,1,5fcfe4545aaa21191399943d,RRRRORO,RRRRORR,21.81333602,21.17347734,series_0,5fcfe4545aaa21191399943d,Kobieta,19,2021-09-06_19h03.39.303,rantool2,2021.1.4,Win32,60.0132029,6135e006383e6ea6c3d06a28,61364995e14d8e66ee13bb69,,,,,,,,
f,3.1371,0,32,32,27,1,5fcfe4545aaa21191399943d,ORRORRO,ORRORRR,21.55250791,22.2428857,series_1,5fcfe4545aaa21191399943d,Kobieta,19,2021-09-06_19h03.39.303,rantool2,2021.1.4,Win32,60.0132029,6135e006383e6ea6c3d06a28,61364995e14d8e66ee13bb69,,,,,,,,
j,4.1538,0,33,33,58,1,5fcfe4545aaa21191399943d,RRROROO,RRROROR,22.1285618,21.37121559,series_0,5fcfe4545aaa21191399943d,Kobieta,19,2021-09-06_19h03.39.303,rantool2,2021.1.4,Win32,60.0132029,6135e006383e6ea6c3d06a28,61364995e14d8e66ee13bb69,,,,,,,,
j,2.4978,0,34,34,47,1,5fcfe4545aaa21191399943d,RORRRRO,RORRRRR,21.81333602,21.02936224,series_0,5fcfe4545aaa21191399943d,Kobieta,19,2021-09-06_19h03.39.303,rantool2,2021.1.4,Win32,60.0132029,6135e006383e6ea6c3d06a28,61364995e14d8e66ee13bb69,,,,,,,,
j,2.4403,0,35,35,15,1,5fcfe4545aaa21191399943d,OORRRRO,OORRRRR,22.10108823,21.74922619,series_0,5fcfe4545aaa21191399943d,Kobieta,19,2021-09-06_19h03.39.303,rantool2,2021.1.4,Win32,60.0132029,6135e006383e6ea6c3d06a28,61364995e14d8e66ee13bb69,,,,,,,,
j,3.6474,0,36,36,12,1,5fcfe4545aaa21191399943d,OORROOO,OORROOR,21.30250474,22.02786418,series_1,5fcfe4545aaa21191399943d,Kobieta,19,2021-09-06_19h03.39.303,rantool2,2021.1.4,Win32,60.0132029,6135e006383e6ea6c3d06a28,61364995e14d8e66ee13bb69,,,,,,,,
f,1.7397,0,37,37,20,1,5fcfe4545aaa21191399943d,OROROOO,OROROOR,21.31236711,21.90565814,series_1,5fcfe4545aaa21191399943d,Kobieta,19,2021-09-06_19h03.39.303,rantool2,2021.1.4,Win32,60.0132029,6135e006383e6ea6c3d06a28,61364995e14d8e66ee13bb69,,,,,,,,
j,1.1872,0,38,38,13,1,5fcfe4545aaa21191399943d,OORRORO,OORRORR,21.66733484,22.11181017,series_1,5fcfe4545aaa21191399943d,Kobieta,19,2021-09-06_19h03.39.303,rantool2,2021.1.4,Win32,60.0132029,6135e006383e6ea6c3d06a28,61364995e14d8e66ee13bb69,,,,,,,,
f,1.3652,0,39,39,51,1,5fcfe4545aaa21191399943d,RROORRO,RROORRR,21.89852628,22.02786418,series_1,5fcfe4545aaa21191399943d,Kobieta,19,2021-09-06_19h03.39.303,rantool2,2021.1.4,Win32,60.0132029,6135e006383e6ea6c3d06a28,61364995e14d8e66ee13bb69,,,,,,,,
j,1.85,0,40,40,11,1,5fcfe4545aaa21191399943d,OORORRO,OORORRR,22.18365867,22.6797523,series_1,5fcfe4545aaa21191399943d,Kobieta,19,2021-09-06_19h03.39.303,rantool2,2021.1.4,Win32,60.0132029,6135e006383e6ea6c3d06a28,61364995e14d8e66ee13bb69,,,,,,,,
f,1.0651,0,41,41,24,1,5fcfe4545aaa21191399943d,ORROOOO,ORROOOR,21.12383932,22.07102821,series_1,5fcfe4545aaa21191399943d,Kobieta,19,2021-09-06_19h03.39.303,rantool2,2021.1.4,Win32,60.0132029,6135e006383e6ea6c3d06a28,61364995e14d8e66ee13bb69,,,,,,,,
f,1.3495,0,42,42,43,1,5fcfe4545aaa21191399943d,RORORRO,RORORRR,20.71309134,21.07490964,series_1,5fcfe4545aaa21191399943d,Kobieta,19,2021-09-06_19h03.39.303,rantool2,2021.1.4,Win32,60.0132029,6135e006383e6ea6c3d06a28,61364995e14d8e66ee13bb69,,,,,,,,
f,1.7157,0,43,43,37,1,5fcfe4545aaa21191399943d,ROORORO,ROORORR,20.42602454,21.57657071,series_1,5fcfe4545aaa21191399943d,Kobieta,19,2021-09-06_19h03.39.303,rantool2,2021.1.4,Win32,60.0132029,6135e006383e6ea6c3d06a28,61364995e14d8e66ee13bb69,,,,,,,,
j,1.2809,0,44,44,9,1,5fcfe4545aaa21191399943d,OOROORO,OOROORR,21.07991943,22.2428857,series_1,5fcfe4545aaa21191399943d,Kobieta,19,2021-09-06_19h03.39.303,rantool2,2021.1.4,Win32,60.0132029,6135e006383e6ea6c3d06a28,61364995e14d8e66ee13bb69,,,,,,,,
f,1.9154,0,45,45,7,1,5fcfe4545aaa21191399943d,OOORRRO,OOORRRR,21.6194508,21.899017,series_1,5fcfe4545aaa21191399943d,Kobieta,19,2021-09-06_19h03.39.303,rantool2,2021.1.4,Win32,60.0132029,6135e006383e6ea6c3d06a28,61364995e14d8e66ee13bb69,,,,,,,,
j,2.2826,0,46,46,19,1,5fcfe4545aaa21191399943d,OROORRO,OROORRR,21.73568164,22.11181017,series_1,5fcfe4545aaa21191399943d,Kobieta,19,2021-09-06_19h03.39.303,rantool2,2021.1.4,Win32,60.0132029,6135e006383e6ea6c3d06a28,61364995e14d8e66ee13bb69,,,,,,,,
f,1.9492,0,47,47,32,1,5fcfe4545aaa21191399943d,ROOOOOO,ROOOOOR,19.92253567,21.27974287,series_1,5fcfe4545aaa21191399943d,Kobieta,19,2021-09-06_19h03.39.303,rantool2,2021.1.4,Win32,60.0132029,6135e006383e6ea6c3d06a28,61364995e14d8e66ee13bb69,,,,,,,,
j,1.2649,0,48,48,8,1,5fcfe4545aaa21191399943d,OOROOOO,OOROOOR,19.91402015,20.89823192,series_1,5fcfe4545aaa21191399943d,Kobieta,19,2021-09-06_19h03.39.303,rantool2,2021.1.4,Win32,60.0132029,6135e006383e6ea6c3d06a28,61364995e14d8e66ee13bb69,,,,,,,,
j,1.3314,0,49,49,45,1,5fcfe4545aaa21191399943d,RORRORO,RORRORR,20.78182524,21.22513037,series_1,5fcfe4545aaa21191399943d,Kobieta,19,2021-09-06_19h03.39.303,rantool2,2021.1.4,Win32,60.0132029,6135e006383e6ea6c3d06a28,61364995e14d8e66ee13bb69,,,,,,,,
j,1.3556,0,50,50,53,1,5fcfe4545aaa21191399943d,RRORORO,RRORORR,20.71309134,21.90565814,series_1,5fcfe4545aaa21191399943d,Kobieta,19,2021-09-06_19h03.39.303,rantool2,2021.1.4,Win32,60.0132029,6135e006383e6ea6c3d06a28,61364995e14d8e66ee13bb69,,,,,,,,
f,2.999,0,51,51,56,1,5fcfe4545aaa21191399943d,RRROOOO,RRROOOR,21.6194508,22.31681875,series_1,5fcfe4545aaa21191399943d,Kobieta,19,2021-09-06_19h03.39.303,rantool2,2021.1.4,Win32,60.0132029,6135e006383e6ea6c3d06a28,61364995e14d8e66ee13bb69,,,,,,,,
j,2.1278,0,52,52,55,1,5fcfe4545aaa21191399943d,RRORRRO,RRORRRR,21.56657303,21.21223021,series_0,5fcfe4545aaa21191399943d,Kobieta,19,2021-09-06_19h03.39.303,rantool2,2021.1.4,Win32,60.0132029,6135e006383e6ea6c3d06a28,61364995e14d8e66ee13bb69,,,,,,,,
f,1.3991,0,53,53,41,1,5fcfe4545aaa21191399943d,ROROORO,ROROORR,20.42602454,21.71443381,series_1,5fcfe4545aaa21191399943d,Kobieta,19,2021-09-06_19h03.39.303,rantool2,2021.1.4,Win32,60.0132029,6135e006383e6ea6c3d06a28,61364995e14d8e66ee13bb69,,,,,,,,
j,2.2129,0,54,54,38,1,5fcfe4545aaa21191399943d,ROORROO,ROORROR,21.79500819,21.36812781,series_0,5fcfe4545aaa21191399943d,Kobieta,19,2021-09-06_19h03.39.303,rantool2,2021.1.4,Win32,60.0132029,6135e006383e6ea6c3d06a28,61364995e14d8e66ee13bb69,,,,,,,,
f,0.9485,0,55,55,62,1,5fcfe4545aaa21191399943d,RRRRROO,RRRRROR,22.16413392,21.27974287,series_0,5fcfe4545aaa21191399943d,Kobieta,19,2021-09-06_19h03.39.303,rantool2,2021.1.4,Win32,60.0132029,6135e006383e6ea6c3d06a28,61364995e14d8e66ee13bb69,,,,,,,,
j,1.0485,0,56,56,40,1,5fcfe4545aaa21191399943d,ROROOOO,ROROOOR,20.87963819,21.37121559,series_1,5fcfe4545aaa21191399943d,Kobieta,19,2021-09-06_19h03.39.303,rantool2,2021.1.4,Win32,60.0132029,6135e006383e6ea6c3d06a28,61364995e14d8e66ee13bb69,,,,,,,,
f,1.0651,0,57,57,50,1,5fcfe4545aaa21191399943d,RROOROO,RROOROR,21.73568164,22.02566557,series_1,5fcfe4545aaa21191399943d,Kobieta,19,2021-09-06_19h03.39.303,rantool2,2021.1.4,Win32,60.0132029,6135e006383e6ea6c3d06a28,61364995e14d8e66ee13bb69,,,,,,,,
j,1.1084,0,58,58,34,1,5fcfe4545aaa21191399943d,ROOOROO,ROOOROR,21.03750787,21.24781509,series_1,5fcfe4545aaa21191399943d,Kobieta,19,2021-09-06_19h03.39.303,rantool2,2021.1.4,Win32,60.0132029,6135e006383e6ea6c3d06a28,61364995e14d8e66ee13bb69,,,,,,,,
f,1.2728,0,59,59,57,1,5fcfe4545aaa21191399943d,RRROORO,RRROORR,21.82425538,22.07102821,series_1,5fcfe4545aaa21191399943d,Kobieta,19,2021-09-06_19h03.39.303,rantool2,2021.1.4,Win32,60.0132029,6135e006383e6ea6c3d06a28,61364995e14d8e66ee13bb69,,,,,,,,
f,1.3744,0,60,60,49,1,5fcfe4545aaa21191399943d,RROOORO,RROOORR,21.76276513,22.53364006,series_1,5fcfe4545aaa21191399943d,Kobieta,19,2021-09-06_19h03.39.303,rantool2,2021.1.4,Win32,60.0132029,6135e006383e6ea6c3d06a28,61364995e14d8e66ee13bb69,,,,,,,,
j,1.5209,0,61,61,33,1,5fcfe4545aaa21191399943d,ROOOORO,ROOOORR,20.83779602,22.03072203,series_1,5fcfe4545aaa21191399943d,Kobieta,19,2021-09-06_19h03.39.303,rantool2,2021.1.4,Win32,60.0132029,6135e006383e6ea6c3d06a28,61364995e14d8e66ee13bb69,,,,,,,,
f,1.6304,0,62,62,18,1,5fcfe4545aaa21191399943d,OROOROO,OROOROR,20.84860893,21.22513037,series_1,5fcfe4545aaa21191399943d,Kobieta,19,2021-09-06_19h03.39.303,rantool2,2021.1.4,Win32,60.0132029,6135e006383e6ea6c3d06a28,61364995e14d8e66ee13bb69,,,,,,,,
j,1.0655,0,63,63,2,1,5fcfe4545aaa21191399943d,OOOOROO,OOOOROR,20.43051175,21.02936224,series_1,5fcfe4545aaa21191399943d,Kobieta,19,2021-09-06_19h03.39.303,rantool2,2021.1.4,Win32,60.0132029,6135e006383e6ea6c3d06a28,61364995e14d8e66ee13bb69,,,,,,,,
,,,,,,,5fcfe4545aaa21191399943d,,,,,,5fcfe4545aaa21191399943d,Kobieta,19,2021-09-06_19h03.39.303,rantool2,2021.1.4,Win32,60.0132029,6135e006383e6ea6c3d06a28,61364995e14d8e66ee13bb69,0,,,0,0,0,0,1
,,,,,,,5fcfe4545aaa21191399943d,,,,,,5fcfe4545aaa21191399943d,Kobieta,19,2021-09-06_19h03.39.303,rantool2,2021.1.4,Win32,60.0132029,6135e006383e6ea6c3d06a28,61364995e14d8e66ee13bb69,0,,,1,0,1,0,1
,,,,,,,5fcfe4545aaa21191399943d,,,,,,5fcfe4545aaa21191399943d,Kobieta,19,2021-09-06_19h03.39.303,rantool2,2021.1.4,Win32,60.0132029,6135e006383e6ea6c3d06a28,61364995e14d8e66ee13bb69,0,,,2,0,2,0,1
,,,,,,,5fcfe4545aaa21191399943d,,,,,,5fcfe4545aaa21191399943d,Kobieta,19,2021-09-06_19h03.39.303,rantool2,2021.1.4,Win32,60.0132029,6135e006383e6ea6c3d06a28,61364995e14d8e66ee13bb69,0,,,3,0,3,0,1
,,,,,,,5fcfe4545aaa21191399943d,,,,,,5fcfe4545aaa21191399943d,Kobieta,19,2021-09-06_19h03.39.303,rantool2,2021.1.4,Win32,60.0132029,6135e006383e6ea6c3d06a28,61364995e14d8e66ee13bb69,0,,,4,0,4,0,1
,,,,,,,5fcfe4545aaa21191399943d,,,,,,5fcfe4545aaa21191399943d,Kobieta,19,2021-09-06_19h03.39.303,rantool2,2021.1.4,Win32,60.0132029,6135e006383e6ea6c3d06a28,61364995e14d8e66ee13bb69,0,,,5,0,5,0,1
,,,,,,,5fcfe4545aaa21191399943d,,,,,,5fcfe4545aaa21191399943d,Kobieta,19,2021-09-06_19h03.39.303,rantool2,2021.1.4,Win32,60.0132029,6135e006383e6ea6c3d06a28,61364995e14d8e66ee13bb69,0,,,6,0,6,0,1
,,,,,,,5fcfe4545aaa21191399943d,,,,,,5fcfe4545aaa21191399943d,Kobieta,19,2021-09-06_19h03.39.303,rantool2,2021.1.4,Win32,60.0132029,6135e006383e6ea6c3d06a28,61364995e14d8e66ee13bb69,0,,,7,0,7,0,1
,,,,,,,5fcfe4545aaa21191399943d,,,,,,5fcfe4545aaa21191399943d,Kobieta,19,2021-09-06_19h03.39.303,rantool2,2021.1.4,Win32,60.0132029,6135e006383e6ea6c3d06a28,61364995e14d8e66ee13bb69,0,,,8,0,8,0,1
,,,,,,,5fcfe4545aaa21191399943d,,,,,,5fcfe4545aaa21191399943d,Kobieta,19,2021-09-06_19h03.39.303,rantool2,2021.1.4,Win32,60.0132029,6135e006383e6ea6c3d06a28,61364995e14d8e66ee13bb69,0,,,9,0,9,0,1
,,,,,,,5fcfe4545aaa21191399943d,,,,,,5fcfe4545aaa21191399943d,Kobieta,19,2021-09-06_19h03.39.303,rantool2,2021.1.4,Win32,60.0132029,6135e006383e6ea6c3d06a28,61364995e14d8e66ee13bb69,0,,,10,0,10,0,1
,,,,,,,5fcfe4545aaa21191399943d,,,,,,5fcfe4545aaa21191399943d,Kobieta,19,2021-09-06_19h03.39.303,rantool2,2021.1.4,Win32,60.0132029,6135e006383e6ea6c3d06a28,61364995e14d8e66ee13bb69,0,,,11,0,11,0,1
,,,,,,,5fcfe4545aaa21191399943d,,,,,,5fcfe4545aaa21191399943d,Kobieta,19,2021-09-06_19h03.39.303,rantool2,2021.1.4,Win32,60.0132029,6135e006383e6ea6c3d06a28,61364995e14d8e66ee13bb69,0,,,12,0,12,0,1
,,,,,,,5fcfe4545aaa21191399943d,,,,,,5fcfe4545aaa21191399943d,Kobieta,19,2021-09-06_19h03.39.303,rantool2,2021.1.4,Win32,60.0132029,6135e006383e6ea6c3d06a28,61364995e14d8e66ee13bb69,0,,,13,0,13,0,1
,,,,,,,5fcfe4545aaa21191399943d,,,,,,5fcfe4545aaa21191399943d,Kobieta,19,2021-09-06_19h03.39.303,rantool2,2021.1.4,Win32,60.0132029,6135e006383e6ea6c3d06a28,61364995e14d8e66ee13bb69,0,,,14,0,14,0,1
,,,,,,,5fcfe4545aaa21191399943d,,,,,,5fcfe4545aaa21191399943d,Kobieta,19,2021-09-06_19h03.39.303,rantool2,2021.1.4,Win32,60.0132029,6135e006383e6ea6c3d06a28,61364995e14d8e66ee13bb69,0,,,15,0,15,0,1
,,,,,,,5fcfe4545aaa21191399943d,,,,,,5fcfe4545aaa21191399943d,Kobieta,19,2021-09-06_19h03.39.303,rantool2,2021.1.4,Win32,60.0132029,6135e006383e6ea6c3d06a28,61364995e14d8e66ee13bb69,0,,,16,0,16,0,1
,,,,,,,5fcfe4545aaa21191399943d,,,,,,5fcfe4545aaa21191399943d,Kobieta,19,2021-09-06_19h03.39.303,rantool2,2021.1.4,Win32,60.0132029,6135e006383e6ea6c3d06a28,61364995e14d8e66ee13bb69,0,,,17,0,17,0,1
,,,,,,,5fcfe4545aaa21191399943d,,,,,,5fcfe4545aaa21191399943d,Kobieta,19,2021-09-06_19h03.39.303,rantool2,2021.1.4,Win32,60.0132029,6135e006383e6ea6c3d06a28,61364995e14d8e66ee13bb69,0,,,18,0,18,0,1
,,,,,,,5fcfe4545aaa21191399943d,,,,,,5fcfe4545aaa21191399943d,Kobieta,19,2021-09-06_19h03.39.303,rantool2,2021.1.4,Win32,60.0132029,6135e006383e6ea6c3d06a28,61364995e14d8e66ee13bb69,0,,,19,0,19,0,1
,,,,,,,5fcfe4545aaa21191399943d,,,,,,5fcfe4545aaa21191399943d,Kobieta,19,2021-09-06_19h03.39.303,rantool2,2021.1.4,Win32,60.0132029,6135e006383e6ea6c3d06a28,61364995e14d8e66ee13bb69,0,,,20,0,20,0,1
,,,,,,,5fcfe4545aaa21191399943d,,,,,,5fcfe4545aaa21191399943d,Kobieta,19,2021-09-06_19h03.39.303,rantool2,2021.1.4,Win32,60.0132029,6135e006383e6ea6c3d06a28,61364995e14d8e66ee13bb69,"[""period""]",0,[0.24770000000296477],21,0,21,0,1
,,,,,,,5fcfe4545aaa21191399943d,,,,,,5fcfe4545aaa21191399943d,Kobieta,19,2021-09-06_19h03.39.303,rantool2,2021.1.4,Win32,60.0132029,6135e006383e6ea6c3d06a28,61364995e14d8e66ee13bb69,"[""comma""]",0,[0.04779999999703932],22,0,22,0,1
,,,,,,,5fcfe4545aaa21191399943d,,,,,,5fcfe4545aaa21191399943d,Kobieta,19,2021-09-06_19h03.39.303,rantool2,2021.1.4,Win32,60.0132029,6135e006383e6ea6c3d06a28,61364995e14d8e66ee13bb69,"[""period""]",0,[0.25269999998806725],23,0,23,0,1
,,,,,,,5fcfe4545aaa21191399943d,,,,,,5fcfe4545aaa21191399943d,Kobieta,19,2021-09-06_19h03.39.303,rantool2,2021.1.4,Win32,60.0132029,6135e006383e6ea6c3d06a28,61364995e14d8e66ee13bb69,"[""comma""]",0,[0.10459999999403635],24,0,24,0,1
,,,,,,,5fcfe4545aaa21191399943d,,,,,,5fcfe4545aaa21191399943d,Kobieta,19,2021-09-06_19h03.39.303,rantool2,2021.1.4,Win32,60.0132029,6135e006383e6ea6c3d06a28,61364995e14d8e66ee13bb69,"[""comma""]",0,[0.2992000000029691],25,0,25,0,1
,,,,,,,5fcfe4545aaa21191399943d,,,,,,5fcfe4545aaa21191399943d,Kobieta,19,2021-09-06_19h03.39.303,rantool2,2021.1.4,Win32,60.0132029,6135e006383e6ea6c3d06a28,61364995e14d8e66ee13bb69,"[""period""]",0,[0.2029000000059682],26,0,26,0,1
,,,,,,,5fcfe4545aaa21191399943d,,,,,,5fcfe4545aaa21191399943d,Kobieta,19,2021-09-06_19h03.39.303,rantool2,2021.1.4,Win32,60.0132029,6135e006383e6ea6c3d06a28,61364995e14d8e66ee13bb69,"[""period""]",0,[0.19769999998806043],27,0,27,0,1
,,,,,,,5fcfe4545aaa21191399943d,,,,,,5fcfe4545aaa21191399943d,Kobieta,19,2021-09-06_19h03.39.303,rantool2,2021.1.4,Win32,60.0132029,6135e006383e6ea6c3d06a28,61364995e14d8e66ee13bb69,"[""comma"",""comma""]",0,"[0.09989999999106658,1.9516999999880795]",28,0,28,0,1
,,,,,,,5fcfe4545aaa21191399943d,,,,,,5fcfe4545aaa21191399943d,Kobieta,19,2021-09-06_19h03.39.303,rantool2,2021.1.4,Win32,60.0132029,6135e006383e6ea6c3d06a28,61364995e14d8e66ee13bb69,0,0,,29,0,29,0,1
,,,,,,,5fcfe4545aaa21191399943d,,,,,,5fcfe4545aaa21191399943d,Kobieta,19,2021-09-06_19h03.39.303,rantool2,2021.1.4,Win32,60.0132029,6135e006383e6ea6c3d06a28,61364995e14d8e66ee13bb69,"[""period"",""comma""]",0,"[0.000799999997013856,1.6191999999880977]",30,0,30,0,1
,,,,,,,5fcfe4545aaa21191399943d,,,,,,5fcfe4545aaa21191399943d,Kobieta,19,2021-09-06_19h03.39.303,rantool2,2021.1.4,Win32,60.0132029,6135e006383e6ea6c3d06a28,61364995e14d8e66ee13bb69,"[""period""]",0,[0.5980000000000132],31,0,31,0,1
,,,,,,,5fcfe4545aaa21191399943d,,,,,,5fcfe4545aaa21191399943d,Kobieta,19,2021-09-06_19h03.39.303,rantool2,2021.1.4,Win32,60.0132029,6135e006383e6ea6c3d06a28,61364995e14d8e66ee13bb69,"[""comma""]",0,[0.2810000000000059],32,0,32,0,1
,,,,,,,5fcfe4545aaa21191399943d,,,,,,5fcfe4545aaa21191399943d,Kobieta,19,2021-09-06_19h03.39.303,rantool2,2021.1.4,Win32,60.0132029,6135e006383e6ea6c3d06a28,61364995e14d8e66ee13bb69,"[""period""]",0,[0.24770000000302161],33,0,33,0,1
,,,,,,,5fcfe4545aaa21191399943d,,,,,,5fcfe4545aaa21191399943d,Kobieta,19,2021-09-06_19h03.39.303,rantool2,2021.1.4,Win32,60.0132029,6135e006383e6ea6c3d06a28,61364995e14d8e66ee13bb69,"[""comma""]",0,[0.21450000000004366],34,0,34,0,1
,,,,,,,5fcfe4545aaa21191399943d,,,,,,5fcfe4545aaa21191399943d,Kobieta,19,2021-09-06_19h03.39.303,rantool2,2021.1.4,Win32,60.0132029,6135e006383e6ea6c3d06a28,61364995e14d8e66ee13bb69,"[""comma""]",0,[0.25310000000894206],35,0,35,0,1
,,,,,,,5fcfe4545aaa21191399943d,,,,,,5fcfe4545aaa21191399943d,Kobieta,19,2021-09-06_19h03.39.303,rantool2,2021.1.4,Win32,60.0132029,6135e006383e6ea6c3d06a28,61364995e14d8e66ee13bb69,"[""comma""]",0,[0.3005999999940627],36,0,36,0,1
,,,,,,,5fcfe4545aaa21191399943d,,,,,,5fcfe4545aaa21191399943d,Kobieta,19,2021-09-06_19h03.39.303,rantool2,2021.1.4,Win32,60.0132029,6135e006383e6ea6c3d06a28,61364995e14d8e66ee13bb69,"[""period""]",0,[0.24009999999401543],37,0,37,0,1
,,,,,,,5fcfe4545aaa21191399943d,,,,,,5fcfe4545aaa21191399943d,Kobieta,19,2021-09-06_19h03.39.303,rantool2,2021.1.4,Win32,60.0132029,6135e006383e6ea6c3d06a28,61364995e14d8e66ee13bb69,"[""comma""]",0,[0.2577000000030125],38,0,38,0,1
,,,,,,,5fcfe4545aaa21191399943d,,,,,,5fcfe4545aaa21191399943d,Kobieta,19,2021-09-06_19h03.39.303,rantool2,2021.1.4,Win32,60.0132029,6135e006383e6ea6c3d06a28,61364995e14d8e66ee13bb69,"[""period""]",0,[0.2987999999970157],39,0,39,0,1
,,,,,,,5fcfe4545aaa21191399943d,,,,,,5fcfe4545aaa21191399943d,Kobieta,19,2021-09-06_19h03.39.303,rantool2,2021.1.4,Win32,60.0132029,6135e006383e6ea6c3d06a28,61364995e14d8e66ee13bb69,"[""period""]",0,[0.07240000000592772],40,0,40,0,1
,,,,,,,5fcfe4545aaa21191399943d,,,,,,5fcfe4545aaa21191399943d,Kobieta,19,2021-09-06_19h03.39.303,rantool2,2021.1.4,Win32,60.0132029,6135e006383e6ea6c3d06a28,61364995e14d8e66ee13bb69,"[""period"",""comma""]",0,"[0.08179999999703114,1.8502000000029852]",41,0,41,0,1
,,,,,,,5fcfe4545aaa21191399943d,,,,,,5fcfe4545aaa21191399943d,Kobieta,19,2021-09-06_19h03.39.303,rantool2,2021.1.4,Win32,60.0132029,6135e006383e6ea6c3d06a28,61364995e14d8e66ee13bb69,0,0,,42,0,42,0,1
,,,,,,,5fcfe4545aaa21191399943d,,,,,,5fcfe4545aaa21191399943d,Kobieta,19,2021-09-06_19h03.39.303,rantool2,2021.1.4,Win32,60.0132029,6135e006383e6ea6c3d06a28,61364995e14d8e66ee13bb69,"[""period""]",0,[0.2644999999999982],43,0,43,0,1
,,,,,,,5fcfe4545aaa21191399943d,,,,,,5fcfe4545aaa21191399943d,Kobieta,19,2021-09-06_19h03.39.303,rantool2,2021.1.4,Win32,60.0132029,6135e006383e6ea6c3d06a28,61364995e14d8e66ee13bb69,"[""period""]",0,[0.26739999999108477],44,0,44,0,1
,,,,,,,5fcfe4545aaa21191399943d,,,,,,5fcfe4545aaa21191399943d,Kobieta,19,2021-09-06_19h03.39.303,rantool2,2021.1.4,Win32,60.0132029,6135e006383e6ea6c3d06a28,61364995e14d8e66ee13bb69,"[""comma""]",0,[0.2577000000030125],45,0,45,0,1
,,,,,,,5fcfe4545aaa21191399943d,,,,,,5fcfe4545aaa21191399943d,Kobieta,19,2021-09-06_19h03.39.303,rantool2,2021.1.4,Win32,60.0132029,6135e006383e6ea6c3d06a28,61364995e14d8e66ee13bb69,"[""comma""]",0,[0.25489999999109614],46,0,46,0,1
,,,,,,,5fcfe4545aaa21191399943d,,,,,,5fcfe4545aaa21191399943d,Kobieta,19,2021-09-06_19h03.39.303,rantool2,2021.1.4,Win32,60.0132029,6135e006383e6ea6c3d06a28,61364995e14d8e66ee13bb69,"[""comma""]",0,[0.2642999999970357],47,0,47,0,1
,,,,,,,5fcfe4545aaa21191399943d,,,,,,5fcfe4545aaa21191399943d,Kobieta,19,2021-09-06_19h03.39.303,rantool2,2021.1.4,Win32,60.0132029,6135e006383e6ea6c3d06a28,61364995e14d8e66ee13bb69,"[""period""]",0,[0.001299999997058876],48,0,48,0,1
,,,,,,,5fcfe4545aaa21191399943d,,,,,,5fcfe4545aaa21191399943d,Kobieta,19,2021-09-06_19h03.39.303,rantool2,2021.1.4,Win32,60.0132029,6135e006383e6ea6c3d06a28,61364995e14d8e66ee13bb69,"[""comma""]",0,[0.2529000000059227],49,0,49,0,1
,,,,,,,5fcfe4545aaa21191399943d,,,,,,5fcfe4545aaa21191399943d,Kobieta,19,2021-09-06_19h03.39.303,rantool2,2021.1.4,Win32,60.0132029,6135e006383e6ea6c3d06a28,61364995e14d8e66ee13bb69,"[""comma""]",0,[0.24759999999406546],50,0,50,0,1
,,,,,,,5fcfe4545aaa21191399943d,,,,,,5fcfe4545aaa21191399943d,Kobieta,19,2021-09-06_19h03.39.303,rantool2,2021.1.4,Win32,60.0132029,6135e006383e6ea6c3d06a28,61364995e14d8e66ee13bb69,"[""period""]",0,[0.22420000000295204],51,0,51,0,1
,,,,,,,5fcfe4545aaa21191399943d,,,,,,5fcfe4545aaa21191399943d,Kobieta,19,2021-09-06_19h03.39.303,rantool2,2021.1.4,Win32,60.0132029,6135e006383e6ea6c3d06a28,61364995e14d8e66ee13bb69,"[""period""]",0,[0.22229999999700567],52,0,52,0,1
,,,,,,,5fcfe4545aaa21191399943d,,,,,,5fcfe4545aaa21191399943d,Kobieta,19,2021-09-06_19h03.39.303,rantool2,2021.1.4,Win32,60.0132029,6135e006383e6ea6c3d06a28,61364995e14d8e66ee13bb69,"[""comma""]",0,[0.24059999999406045],53,0,53,0,1
,,,,,,,5fcfe4545aaa21191399943d,,,,,,5fcfe4545aaa21191399943d,Kobieta,19,2021-09-06_19h03.39.303,rantool2,2021.1.4,Win32,60.0132029,6135e006383e6ea6c3d06a28,61364995e14d8e66ee13bb69,"[""period""]",0,[0.1304000000059773],54,0,54,0,1
,,,,,,,5fcfe4545aaa21191399943d,,,,,,5fcfe4545aaa21191399943d,Kobieta,19,2021-09-06_19h03.39.303,rantool2,2021.1.4,Win32,60.0132029,6135e006383e6ea6c3d06a28,61364995e14d8e66ee13bb69,"[""period""]",0,[0.21829999999698657],55,0,55,0,1
,,,,,,,5fcfe4545aaa21191399943d,,,,,,5fcfe4545aaa21191399943d,Kobieta,19,2021-09-06_19h03.39.303,rantool2,2021.1.4,Win32,60.0132029,6135e006383e6ea6c3d06a28,61364995e14d8e66ee13bb69,"[""comma""]",0,[0.28929999999701295],56,0,56,0,1
,,,,,,,5fcfe4545aaa21191399943d,,,,,,5fcfe4545aaa21191399943d,Kobieta,19,2021-09-06_19h03.39.303,rantool2,2021.1.4,Win32,60.0132029,6135e006383e6ea6c3d06a28,61364995e14d8e66ee13bb69,"[""comma""]",0,[0.25520000000295795],57,0,57,0,1
,,,,,,,5fcfe4545aaa21191399943d,,,,,,5fcfe4545aaa21191399943d,Kobieta,19,2021-09-06_19h03.39.303,rantool2,2021.1.4,Win32,60.0132029,6135e006383e6ea6c3d06a28,61364995e14d8e66ee13bb69,"[""comma""]",0,[0.3240999999940186],58,0,58,0,1
,,,,,,,5fcfe4545aaa21191399943d,,,,,,5fcfe4545aaa21191399943d,Kobieta,19,2021-09-06_19h03.39.303,rantool2,2021.1.4,Win32,60.0132029,6135e006383e6ea6c3d06a28,61364995e14d8e66ee13bb69,"[""period"",""period""]",0,"[0.1480999999940309,1.771799999996972]",59,0,59,0,1
,,,,,,,5fcfe4545aaa21191399943d,,,,,,5fcfe4545aaa21191399943d,Kobieta,19,2021-09-06_19h03.39.303,rantool2,2021.1.4,Win32,60.0132029,6135e006383e6ea6c3d06a28,61364995e14d8e66ee13bb69,0,0,,60,0,60,0,1
,,,,,,,5fcfe4545aaa21191399943d,,,,,,5fcfe4545aaa21191399943d,Kobieta,19,2021-09-06_19h03.39.303,rantool2,2021.1.4,Win32,60.0132029,6135e006383e6ea6c3d06a28,61364995e14d8e66ee13bb69,"[""comma""]",0,[0.32269999998811727],61,0,61,0,1
,,,,,,,5fcfe4545aaa21191399943d,,,,,,5fcfe4545aaa21191399943d,Kobieta,19,2021-09-06_19h03.39.303,rantool2,2021.1.4,Win32,60.0132029,6135e006383e6ea6c3d06a28,61364995e14d8e66ee13bb69,"[""period""]",0,[0.2872999999970034],62,0,62,0,1
,,,,,,,5fcfe4545aaa21191399943d,,,,,,5fcfe4545aaa21191399943d,Kobieta,19,2021-09-06_19h03.39.303,rantool2,2021.1.4,Win32,60.0132029,6135e006383e6ea6c3d06a28,61364995e14d8e66ee13bb69,"[""comma""]",0,[0.3350999999940427],63,0,63,0,1
,,,,,,,5fcfe4545aaa21191399943d,,,,,,5fcfe4545aaa21191399943d,Kobieta,19,2021-09-06_19h03.39.303,rantool2,2021.1.4,Win32,60.0132029,6135e006383e6ea6c3d06a28,61364995e14d8e66ee13bb69,"[""period""]",0,[0.3036000000089416],64,0,64,0,1
,,,,,,,5fcfe4545aaa21191399943d,,,,,,5fcfe4545aaa21191399943d,Kobieta,19,2021-09-06_19h03.39.303,rantool2,2021.1.4,Win32,60.0132029,6135e006383e6ea6c3d06a28,61364995e14d8e66ee13bb69,"[""comma""]",0,[0.3311999999880868],65,0,65,0,1
,,,,,,,5fcfe4545aaa21191399943d,,,,,,5fcfe4545aaa21191399943d,Kobieta,19,2021-09-06_19h03.39.303,rantool2,2021.1.4,Win32,60.0132029,6135e006383e6ea6c3d06a28,61364995e14d8e66ee13bb69,"[""period""]",0,[0.41409999999405045],66,0,66,0,1
,,,,,,,5fcfe4545aaa21191399943d,,,,,,5fcfe4545aaa21191399943d,Kobieta,19,2021-09-06_19h03.39.303,rantool2,2021.1.4,Win32,60.0132029,6135e006383e6ea6c3d06a28,61364995e14d8e66ee13bb69,"[""period""]",0,[0.3145999999940159],67,0,67,0,1
,,,,,,,5fcfe4545aaa21191399943d,,,,,,5fcfe4545aaa21191399943d,Kobieta,19,2021-09-06_19h03.39.303,rantool2,2021.1.4,Win32,60.0132029,6135e006383e6ea6c3d06a28,61364995e14d8e66ee13bb69,"[""period""]",0,[0.35789999999104793],68,0,68,0,1
,,,,,,,5fcfe4545aaa21191399943d,,,,,,5fcfe4545aaa21191399943d,Kobieta,19,2021-09-06_19h03.39.303,rantool2,2021.1.4,Win32,60.0132029,6135e006383e6ea6c3d06a28,61364995e14d8e66ee13bb69,"[""period""]",0,[0.7483000000119091],69,0,69,0,1
,,,,,,,5fcfe4545aaa21191399943d,,,,,,5fcfe4545aaa21191399943d,Kobieta,19,2021-09-06_19h03.39.303,rantool2,2021.1.4,Win32,60.0132029,6135e006383e6ea6c3d06a28,61364995e14d8e66ee13bb69,"[""comma""]",0,[0.7551999999881218],70,0,70,0,1
,,,,,,,5fcfe4545aaa21191399943d,,,,,,5fcfe4545aaa21191399943d,Kobieta,19,2021-09-06_19h03.39.303,rantool2,2021.1.4,Win32,60.0132029,6135e006383e6ea6c3d06a28,61364995e14d8e66ee13bb69,"[""period""]",0,[1.148200000002987],71,0,71,0,1
,,,,,,,5fcfe4545aaa21191399943d,,,,,,5fcfe4545aaa21191399943d,Kobieta,19,2021-09-06_19h03.39.303,rantool2,2021.1.4,Win32,60.0132029,6135e006383e6ea6c3d06a28,61364995e14d8e66ee13bb69,"[""comma""]",0,[0.6232000000030098],72,0,72,0,1
,,,,,,,5fcfe4545aaa21191399943d,,,,,,5fcfe4545aaa21191399943d,Kobieta,19,2021-09-06_19h03.39.303,rantool2,2021.1.4,Win32,60.0132029,6135e006383e6ea6c3d06a28,61364995e14d8e66ee13bb69,"[""comma""]",0,[0.25120000000293885],73,0,73,0,1
,,,,,,,5fcfe4545aaa21191399943d,,,,,,5fcfe4545aaa21191399943d,Kobieta,19,2021-09-06_19h03.39.303,rantool2,2021.1.4,Win32,60.0132029,6135e006383e6ea6c3d06a28,61364995e14d8e66ee13bb69,"[""comma""]",0,[0.2555999999940468],74,0,74,0,1
,,,,,,,5fcfe4545aaa21191399943d,,,,,,5fcfe4545aaa21191399943d,Kobieta,19,2021-09-06_19h03.39.303,rantool2,2021.1.4,Win32,60.0132029,6135e006383e6ea6c3d06a28,61364995e14d8e66ee13bb69,"[""period""]",0,[0.19179999999704478],75,0,75,0,1
,,,,,,,5fcfe4545aaa21191399943d,,,,,,5fcfe4545aaa21191399943d,Kobieta,19,2021-09-06_19h03.39.303,rantool2,2021.1.4,Win32,60.0132029,6135e006383e6ea6c3d06a28,61364995e14d8e66ee13bb69,"[""period""]",0,[0.33449999999999136],76,0,76,0,1
,,,,,,,5fcfe4545aaa21191399943d,,,,,,5fcfe4545aaa21191399943d,Kobieta,19,2021-09-06_19h03.39.303,rantool2,2021.1.4,Win32,60.0132029,6135e006383e6ea6c3d06a28,61364995e14d8e66ee13bb69,"[""period""]",0,[0.2680000000000291],77,0,77,0,1
,,,,,,,5fcfe4545aaa21191399943d,,,,,,5fcfe4545aaa21191399943d,Kobieta,19,2021-09-06_19h03.39.303,rantool2,2021.1.4,Win32,60.0132029,6135e006383e6ea6c3d06a28,61364995e14d8e66ee13bb69,"[""comma""]",0,[0.25829999999700703],78,0,78,0,1
,,,,,,,5fcfe4545aaa21191399943d,,,,,,5fcfe4545aaa21191399943d,Kobieta,19,2021-09-06_19h03.39.303,rantool2,2021.1.4,Win32,60.0132029,6135e006383e6ea6c3d06a28,61364995e14d8e66ee13bb69,"[""period""]",0,[0.22620000000301843],79,0,79,0,1
,,,,,,,5fcfe4545aaa21191399943d,,,,,,5fcfe4545aaa21191399943d,Kobieta,19,2021-09-06_19h03.39.303,rantool2,2021.1.4,Win32,60.0132029,6135e006383e6ea6c3d06a28,61364995e14d8e66ee13bb69,"[""comma""]",0,[0.07620000000298432],80,0,80,0,1
,,,,,,,5fcfe4545aaa21191399943d,,,,,,5fcfe4545aaa21191399943d,Kobieta,19,2021-09-06_19h03.39.303,rantool2,2021.1.4,Win32,60.0132029,6135e006383e6ea6c3d06a28,61364995e14d8e66ee13bb69,"[""period""]",0,[0.285000000000025],81,0,81,0,1
,,,,,,,5fcfe4545aaa21191399943d,,,,,,5fcfe4545aaa21191399943d,Kobieta,19,2021-09-06_19h03.39.303,rantool2,2021.1.4,Win32,60.0132029,6135e006383e6ea6c3d06a28,61364995e14d8e66ee13bb69,"[""comma""]",0,[0.055499999999995],82,0,82,0,1
,,,,,,,5fcfe4545aaa21191399943d,,,,,,5fcfe4545aaa21191399943d,Kobieta,19,2021-09-06_19h03.39.303,rantool2,2021.1.4,Win32,60.0132029,6135e006383e6ea6c3d06a28,61364995e14d8e66ee13bb69,"[""comma""]",0,[0.33479999999701704],83,0,83,0,1
,,,,,,,5fcfe4545aaa21191399943d,,,,,,5fcfe4545aaa21191399943d,Kobieta,19,2021-09-06_19h03.39.303,rantool2,2021.1.4,Win32,60.0132029,6135e006383e6ea6c3d06a28,61364995e14d8e66ee13bb69,"[""comma""]",0,[0.2520999999940159],84,0,84,0,1
,,,,,,,5fcfe4545aaa21191399943d,,,,,,5fcfe4545aaa21191399943d,Kobieta,19,2021-09-06_19h03.39.303,rantool2,2021.1.4,Win32,60.0132029,6135e006383e6ea6c3d06a28,61364995e14d8e66ee13bb69,"[""period""]",0,[0.22160000000894797],85,0,85,0,1
,,,,,,,5fcfe4545aaa21191399943d,,,,,,5fcfe4545aaa21191399943d,Kobieta,19,2021-09-06_19h03.39.303,rantool2,2021.1.4,Win32,60.0132029,6135e006383e6ea6c3d06a28,61364995e14d8e66ee13bb69,"[""comma""]",0,[0.08659999999406409],86,0,86,0,1
,,,,,,,5fcfe4545aaa21191399943d,,,,,,5fcfe4545aaa21191399943d,Kobieta,19,2021-09-06_19h03.39.303,rantool2,2021.1.4,Win32,60.0132029,6135e006383e6ea6c3d06a28,61364995e14d8e66ee13bb69,"[""comma""]",0,[0.16609999999400316],87,0,87,0,1
,,,,,,,5fcfe4545aaa21191399943d,,,,,,5fcfe4545aaa21191399943d,Kobieta,19,2021-09-06_19h03.39.303,rantool2,2021.1.4,Win32,60.0132029,6135e006383e6ea6c3d06a28,61364995e14d8e66ee13bb69,"[""period""]",0,[0.21350000000001046],88,0,88,0,1
,,,,,,,5fcfe4545aaa21191399943d,,,,,,5fcfe4545aaa21191399943d,Kobieta,19,2021-09-06_19h03.39.303,rantool2,2021.1.4,Win32,60.0132029,6135e006383e6ea6c3d06a28,61364995e14d8e66ee13bb69,"[""comma""]",0,[0.2733000000119432],89,0,89,0,1
,,,,,,,5fcfe4545aaa21191399943d,,,,,,5fcfe4545aaa21191399943d,Kobieta,19,2021-09-06_19h03.39.303,rantool2,2021.1.4,Win32,60.0132029,6135e006383e6ea6c3d06a28,61364995e14d8e66ee13bb69,"[""comma""]",0,[0.3010999999940509],90,0,90,0,1
,,,,,,,5fcfe4545aaa21191399943d,,,,,,5fcfe4545aaa21191399943d,Kobieta,19,2021-09-06_19h03.39.303,rantool2,2021.1.4,Win32,60.0132029,6135e006383e6ea6c3d06a28,61364995e14d8e66ee13bb69,"[""comma""]",0,[0.30359999999404863],91,0,91,0,1
,,,,,,,5fcfe4545aaa21191399943d,,,,,,5fcfe4545aaa21191399943d,Kobieta,19,2021-09-06_19h03.39.303,rantool2,2021.1.4,Win32,60.0132029,6135e006383e6ea6c3d06a28,61364995e14d8e66ee13bb69,"[""comma""]",0,[0.2648999999910302],92,0,92,0,1
,,,,,,,5fcfe4545aaa21191399943d,,,,,,5fcfe4545aaa21191399943d,Kobieta,19,2021-09-06_19h03.39.303,rantool2,2021.1.4,Win32,60.0132029,6135e006383e6ea6c3d06a28,61364995e14d8e66ee13bb69,"[""period""]",0,[0.2814999999999941],93,0,93,0,1
,,,,,,,5fcfe4545aaa21191399943d,,,,,,5fcfe4545aaa21191399943d,Kobieta,19,2021-09-06_19h03.39.303,rantool2,2021.1.4,Win32,60.0132029,6135e006383e6ea6c3d06a28,61364995e14d8e66ee13bb69,"[""comma""]",0,[0.28789999999105476],94,0,94,0,1
,,,,,,,5fcfe4545aaa21191399943d,,,,,,5fcfe4545aaa21191399943d,Kobieta,19,2021-09-06_19h03.39.303,rantool2,2021.1.4,Win32,60.0132029,6135e006383e6ea6c3d06a28,61364995e14d8e66ee13bb69,"[""comma""]",0,[0.2517999999969902],95,0,95,0,1
,,,,,,,5fcfe4545aaa21191399943d,,,,,,5fcfe4545aaa21191399943d,Kobieta,19,2021-09-06_19h03.39.303,rantool2,2021.1.4,Win32,60.0132029,6135e006383e6ea6c3d06a28,61364995e14d8e66ee13bb69,"[""period""]",0,[0.04710000000892478],96,0,96,0,1
,,,,,,,5fcfe4545aaa21191399943d,,,,,,5fcfe4545aaa21191399943d,Kobieta,19,2021-09-06_19h03.39.303,rantool2,2021.1.4,Win32,60.0132029,6135e006383e6ea6c3d06a28,61364995e14d8e66ee13bb69,"[""period""]",0,[0.291499999999985],97,0,97,0,1
,,,,,,,5fcfe4545aaa21191399943d,,,,,,5fcfe4545aaa21191399943d,Kobieta,19,2021-09-06_19h03.39.303,rantool2,2021.1.4,Win32,60.0132029,6135e006383e6ea6c3d06a28,61364995e14d8e66ee13bb69,"[""period""]",0,[0.04970000000298569],98,0,98,0,1
,,,,,,,5fcfe4545aaa21191399943d,,,,,,5fcfe4545aaa21191399943d,Kobieta,19,2021-09-06_19h03.39.303,rantool2,2021.1.4,Win32,60.0132029,6135e006383e6ea6c3d06a28,61364995e14d8e66ee13bb69,"[""comma""]",0,[0.19859999999403044],99,0,99,0,1
,,,,,,,5fcfe4545aaa21191399943d,,,,,,5fcfe4545aaa21191399943d,Kobieta,19,2021-09-06_19h03.39.303,rantool2,2021.1.4,Win32,60.0132029,6135e006383e6ea6c3d06a28,61364995e14d8e66ee13bb69,"[""period""]",0,[0.18090000000592],100,0,100,0,1
,,,,,,,5fcfe4545aaa21191399943d,,,,,,5fcfe4545aaa21191399943d,Kobieta,19,2021-09-06_19h03.39.303,rantool2,2021.1.4,Win32,60.0132029,6135e006383e6ea6c3d06a28,61364995e14d8e66ee13bb69,"[""period""]",0,[0.25590000000596547],101,0,101,0,1
,,,,,,,5fcfe4545aaa21191399943d,,,,,,5fcfe4545aaa21191399943d,Kobieta,19,2021-09-06_19h03.39.303,rantool2,2021.1.4,Win32,60.0132029,6135e006383e6ea6c3d06a28,61364995e14d8e66ee13bb69,"[""comma""]",0,[0.2517999999969902],102,0,102,0,1
,,,,,,,5fcfe4545aaa21191399943d,,,,,,5fcfe4545aaa21191399943d,Kobieta,19,2021-09-06_19h03.39.303,rantool2,2021.1.4,Win32,60.0132029,6135e006383e6ea6c3d06a28,61364995e14d8e66ee13bb69,"[""comma""]",0,[-0.007900000005975016],103,0,103,0,1
,,,,,,,5fcfe4545aaa21191399943d,,,,,,5fcfe4545aaa21191399943d,Kobieta,19,2021-09-06_19h03.39.303,rantool2,2021.1.4,Win32,60.0132029,6135e006383e6ea6c3d06a28,61364995e14d8e66ee13bb69,"[""comma""]",0,[0.21949999999998226],104,0,104,0,1
,,,,,,,5fcfe4545aaa21191399943d,,,,,,5fcfe4545aaa21191399943d,Kobieta,19,2021-09-06_19h03.39.303,rantool2,2021.1.4,Win32,60.0132029,6135e006383e6ea6c3d06a28,61364995e14d8e66ee13bb69,"[""period""]",0,[0.4816999999881091],105,0,105,0,1
,,,,,,,5fcfe4545aaa21191399943d,,,,,,5fcfe4545aaa21191399943d,Kobieta,19,2021-09-06_19h03.39.303,rantool2,2021.1.4,Win32,60.0132029,6135e006383e6ea6c3d06a28,61364995e14d8e66ee13bb69,"[""period""]",0,[0.6480999999940877],106,0,106,0,1
,,,,,,,5fcfe4545aaa21191399943d,,,,,,5fcfe4545aaa21191399943d,Kobieta,19,2021-09-06_19h03.39.303,rantool2,2021.1.4,Win32,60.0132029,6135e006383e6ea6c3d06a28,61364995e14d8e66ee13bb69,"[""comma""]",0,[0.26540000000591135],107,0,107,0,1
,,,,,,,5fcfe4545aaa21191399943d,,,,,,5fcfe4545aaa21191399943d,Kobieta,19,2021-09-06_19h03.39.303,rantool2,2021.1.4,Win32,60.0132029,6135e006383e6ea6c3d06a28,61364995e14d8e66ee13bb69,"[""period""]",0,[0.26490000000598],108,0,108,0,1
,,,,,,,5fcfe4545aaa21191399943d,,,,,,5fcfe4545aaa21191399943d,Kobieta,19,2021-09-06_19h03.39.303,rantool2,2021.1.4,Win32,60.0132029,6135e006383e6ea6c3d06a28,61364995e14d8e66ee13bb69,"[""comma""]",0,[0.1089000000059741],109,0,109,0,1
,,,,,,,5fcfe4545aaa21191399943d,,,,,,5fcfe4545aaa21191399943d,Kobieta,19,2021-09-06_19h03.39.303,rantool2,2021.1.4,Win32,60.0132029,6135e006383e6ea6c3d06a28,61364995e14d8e66ee13bb69,"[""period""]",0,[0.45100000000002183],110,0,110,0,1
,,,,,,,5fcfe4545aaa21191399943d,,,,,,5fcfe4545aaa21191399943d,Kobieta,19,2021-09-06_19h03.39.303,rantool2,2021.1.4,Win32,60.0132029,6135e006383e6ea6c3d06a28,61364995e14d8e66ee13bb69,"[""period""]",0,[0.33129999999704296],111,0,111,0,1
,,,,,,,5fcfe4545aaa21191399943d,,,,,,5fcfe4545aaa21191399943d,Kobieta,19,2021-09-06_19h03.39.303,rantool2,2021.1.4,Win32,60.0132029,6135e006383e6ea6c3d06a28,61364995e14d8e66ee13bb69,"[""period""]",0,[0.31840000000596547],112,0,112,0,1
,,,,,,,5fcfe4545aaa21191399943d,,,,,,5fcfe4545aaa21191399943d,Kobieta,19,2021-09-06_19h03.39.303,rantool2,2021.1.4,Win32,60.0132029,6135e006383e6ea6c3d06a28,61364995e14d8e66ee13bb69,"[""comma"",""period""]",0,"[0.31979999999697384,0.7707000000029325]",113,0,113,0,1
,,,,,,,5fcfe4545aaa21191399943d,,,,,,5fcfe4545aaa21191399943d,Kobieta,19,2021-09-06_19h03.39.303,rantool2,2021.1.4,Win32,60.0132029,6135e006383e6ea6c3d06a28,61364995e14d8e66ee13bb69,"[""comma""]",0,[0.2752999999970598],114,0,114,0,1
,,,,,,,5fcfe4545aaa21191399943d,,,,,,5fcfe4545aaa21191399943d,Kobieta,19,2021-09-06_19h03.39.303,rantool2,2021.1.4,Win32,60.0132029,6135e006383e6ea6c3d06a28,61364995e14d8e66ee13bb69,"[""period""]",0,[0.20130000001194048],115,0,115,0,1
,,,,,,,5fcfe4545aaa21191399943d,,,,,,5fcfe4545aaa21191399943d,Kobieta,19,2021-09-06_19h03.39.303,rantool2,2021.1.4,Win32,60.0132029,6135e006383e6ea6c3d06a28,61364995e14d8e66ee13bb69,"[""comma""]",0,[0.28139999999103793],116,0,116,0,1
,,,,,,,5fcfe4545aaa21191399943d,,,,,,5fcfe4545aaa21191399943d,Kobieta,19,2021-09-06_19h03.39.303,rantool2,2021.1.4,Win32,60.0132029,6135e006383e6ea6c3d06a28,61364995e14d8e66ee13bb69,"[""period""]",0,[0.2480000000000473],117,0,117,0,1
,,,,,,,5fcfe4545aaa21191399943d,,,,,,5fcfe4545aaa21191399943d,Kobieta,19,2021-09-06_19h03.39.303,rantool2,2021.1.4,Win32,60.0132029,6135e006383e6ea6c3d06a28,61364995e14d8e66ee13bb69,"[""comma""]",0,[0.24660000000898208],118,0,118,0,1
,,,,,,,5fcfe4545aaa21191399943d,,,,,,5fcfe4545aaa21191399943d,Kobieta,19,2021-09-06_19h03.39.303,rantool2,2021.1.4,Win32,60.0132029,6135e006383e6ea6c3d06a28,61364995e14d8e66ee13bb69,"[""comma""]",0,[0.298100000008958],119,0,119,0,1
