key_resp_7.keys,key_resp_7.rt,trials_2.thisRepN,trials_2.thisTrialN,trials_2.thisN,trials_2.thisIndex,trials_2.ran,id,series_0,series_1,acss_0,acss_1,comparison,id*,Płeć*,Wiek*,date,expName,psychopyVersion,OS,frameRate,STUDY_ID,SESSION_ID,key_resp_5.keys,key_resp_5.corr,key_resp_5.rt,trials.thisRepN,trials.thisTrialN,trials.thisN,trials.thisIndex,trials.ran
f,2.4425,0,0,0,34,1,60128b0e0f9e1d2e9eaa9b53,ROOOROO,ROOOROR,21.03750787,21.24781509,series_1,60128b0e0f9e1d2e9eaa9b53,Mężczyzna,20,2021-09-06_19h26.02.833,rantool2,2021.1.4,Win32,74.67702188,6135e006383e6ea6c3d06a28,61364f06f3b89e3fcb9a46ad,,,,,,,,
f,2.7635,0,1,1,7,1,60128b0e0f9e1d2e9eaa9b53,OOORRRO,OOORRRR,21.6194508,21.899017,series_1,60128b0e0f9e1d2e9eaa9b53,Mężczyzna,20,2021-09-06_19h26.02.833,rantool2,2021.1.4,Win32,74.67702188,6135e006383e6ea6c3d06a28,61364f06f3b89e3fcb9a46ad,,,,,,,,
j,2.7367,0,2,2,23,1,60128b0e0f9e1d2e9eaa9b53,ORORRRO,ORORRRR,22.1285618,21.9921709,series_0,60128b0e0f9e1d2e9eaa9b53,Mężczyzna,20,2021-09-06_19h26.02.833,rantool2,2021.1.4,Win32,74.67702188,6135e006383e6ea6c3d06a28,61364f06f3b89e3fcb9a46ad,,,,,,,,
j,1.9485,0,3,3,42,1,60128b0e0f9e1d2e9eaa9b53,ROROROO,ROROROR,20.39515459,19.8361834,series_0,60128b0e0f9e1d2e9eaa9b53,Mężczyzna,20,2021-09-06_19h26.02.833,rantool2,2021.1.4,Win32,74.67702188,6135e006383e6ea6c3d06a28,61364f06f3b89e3fcb9a46ad,,,,,,,,
j,2.1751,0,4,4,1,1,60128b0e0f9e1d2e9eaa9b53,OOOOORO,OOOOORR,19.92253567,20.74050628,series_1,60128b0e0f9e1d2e9eaa9b53,Mężczyzna,20,2021-09-06_19h26.02.833,rantool2,2021.1.4,Win32,74.67702188,6135e006383e6ea6c3d06a28,61364f06f3b89e3fcb9a46ad,,,,,,,,
f,1.6684,0,5,5,52,1,60128b0e0f9e1d2e9eaa9b53,RROROOO,RROROOR,22.18365867,22.11097995,series_0,60128b0e0f9e1d2e9eaa9b53,Mężczyzna,20,2021-09-06_19h26.02.833,rantool2,2021.1.4,Win32,74.67702188,6135e006383e6ea6c3d06a28,61364f06f3b89e3fcb9a46ad,,,,,,,,
f,1.2863,0,6,6,16,1,60128b0e0f9e1d2e9eaa9b53,OROOOOO,OROOOOR,20.43051175,21.17347734,series_1,60128b0e0f9e1d2e9eaa9b53,Mężczyzna,20,2021-09-06_19h26.02.833,rantool2,2021.1.4,Win32,74.67702188,6135e006383e6ea6c3d06a28,61364f06f3b89e3fcb9a46ad,,,,,,,,
j,1.602,0,7,7,24,1,60128b0e0f9e1d2e9eaa9b53,ORROOOO,ORROOOR,21.12383932,22.07102821,series_1,60128b0e0f9e1d2e9eaa9b53,Mężczyzna,20,2021-09-06_19h26.02.833,rantool2,2021.1.4,Win32,74.67702188,6135e006383e6ea6c3d06a28,61364f06f3b89e3fcb9a46ad,,,,,,,,
j,1.9622,0,8,8,48,1,60128b0e0f9e1d2e9eaa9b53,RROOOOO,RROOOOR,20.90986523,22.15934078,series_1,60128b0e0f9e1d2e9eaa9b53,Mężczyzna,20,2021-09-06_19h26.02.833,rantool2,2021.1.4,Win32,74.67702188,6135e006383e6ea6c3d06a28,61364f06f3b89e3fcb9a46ad,,,,,,,,
j,1.2982,0,9,9,39,1,60128b0e0f9e1d2e9eaa9b53,ROORRRO,ROORRRR,21.82425538,21.38562617,series_0,60128b0e0f9e1d2e9eaa9b53,Mężczyzna,20,2021-09-06_19h26.02.833,rantool2,2021.1.4,Win32,74.67702188,6135e006383e6ea6c3d06a28,61364f06f3b89e3fcb9a46ad,,,,,,,,
j,1.8142,0,10,10,9,1,60128b0e0f9e1d2e9eaa9b53,OOROORO,OOROORR,21.07991943,22.2428857,series_1,60128b0e0f9e1d2e9eaa9b53,Mężczyzna,20,2021-09-06_19h26.02.833,rantool2,2021.1.4,Win32,74.67702188,6135e006383e6ea6c3d06a28,61364f06f3b89e3fcb9a46ad,,,,,,,,
f,0.9333,0,11,11,6,1,60128b0e0f9e1d2e9eaa9b53,OOORROO,OOORROR,21.12383932,21.38562617,series_1,60128b0e0f9e1d2e9eaa9b53,Mężczyzna,20,2021-09-06_19h26.02.833,rantool2,2021.1.4,Win32,74.67702188,6135e006383e6ea6c3d06a28,61364f06f3b89e3fcb9a46ad,,,,,,,,
f,1.9859,0,12,12,55,1,60128b0e0f9e1d2e9eaa9b53,RRORRRO,RRORRRR,21.56657303,21.21223021,series_0,60128b0e0f9e1d2e9eaa9b53,Mężczyzna,20,2021-09-06_19h26.02.833,rantool2,2021.1.4,Win32,74.67702188,6135e006383e6ea6c3d06a28,61364f06f3b89e3fcb9a46ad,,,,,,,,
j,1.6516,0,13,13,56,1,60128b0e0f9e1d2e9eaa9b53,RRROOOO,RRROOOR,21.6194508,22.31681875,series_1,60128b0e0f9e1d2e9eaa9b53,Mężczyzna,20,2021-09-06_19h26.02.833,rantool2,2021.1.4,Win32,74.67702188,6135e006383e6ea6c3d06a28,61364f06f3b89e3fcb9a46ad,,,,,,,,
j,1.0704,0,14,14,29,1,60128b0e0f9e1d2e9eaa9b53,ORRRORO,ORRRORR,22.00300695,22.12173012,series_1,60128b0e0f9e1d2e9eaa9b53,Mężczyzna,20,2021-09-06_19h26.02.833,rantool2,2021.1.4,Win32,74.67702188,6135e006383e6ea6c3d06a28,61364f06f3b89e3fcb9a46ad,,,,,,,,
j,1.8472,0,15,15,60,1,60128b0e0f9e1d2e9eaa9b53,RRRROOO,RRRROOR,22.10108823,22.15934078,series_1,60128b0e0f9e1d2e9eaa9b53,Mężczyzna,20,2021-09-06_19h26.02.833,rantool2,2021.1.4,Win32,74.67702188,6135e006383e6ea6c3d06a28,61364f06f3b89e3fcb9a46ad,,,,,,,,
j,1.4862,0,16,16,49,1,60128b0e0f9e1d2e9eaa9b53,RROOORO,RROOORR,21.76276513,22.53364006,series_1,60128b0e0f9e1d2e9eaa9b53,Mężczyzna,20,2021-09-06_19h26.02.833,rantool2,2021.1.4,Win32,74.67702188,6135e006383e6ea6c3d06a28,61364f06f3b89e3fcb9a46ad,,,,,,,,
f,1.6947,0,17,17,63,1,60128b0e0f9e1d2e9eaa9b53,RRRRRRO,RRRRRRR,21.35278725,19.62521613,series_0,60128b0e0f9e1d2e9eaa9b53,Mężczyzna,20,2021-09-06_19h26.02.833,rantool2,2021.1.4,Win32,74.67702188,6135e006383e6ea6c3d06a28,61364f06f3b89e3fcb9a46ad,,,,,,,,
j,1.1356,0,18,18,5,1,60128b0e0f9e1d2e9eaa9b53,OOORORO,OOORORR,20.87963819,21.9921709,series_1,60128b0e0f9e1d2e9eaa9b53,Mężczyzna,20,2021-09-06_19h26.02.833,rantool2,2021.1.4,Win32,74.67702188,6135e006383e6ea6c3d06a28,61364f06f3b89e3fcb9a46ad,,,,,,,,
j,0.9267,0,19,19,59,1,60128b0e0f9e1d2e9eaa9b53,RRRORRO,RRRORRR,21.56657303,20.89823192,series_0,60128b0e0f9e1d2e9eaa9b53,Mężczyzna,20,2021-09-06_19h26.02.833,rantool2,2021.1.4,Win32,74.67702188,6135e006383e6ea6c3d06a28,61364f06f3b89e3fcb9a46ad,,,,,,,,
j,1.6121,0,20,20,31,1,60128b0e0f9e1d2e9eaa9b53,ORRRRRO,ORRRRRR,22.16413392,20.74050628,series_0,60128b0e0f9e1d2e9eaa9b53,Mężczyzna,20,2021-09-06_19h26.02.833,rantool2,2021.1.4,Win32,74.67702188,6135e006383e6ea6c3d06a28,61364f06f3b89e3fcb9a46ad,,,,,,,,
f,0.8191,0,21,21,22,1,60128b0e0f9e1d2e9eaa9b53,ORORROO,ORORROR,22.02732763,21.57657071,series_0,60128b0e0f9e1d2e9eaa9b53,Mężczyzna,20,2021-09-06_19h26.02.833,rantool2,2021.1.4,Win32,74.67702188,6135e006383e6ea6c3d06a28,61364f06f3b89e3fcb9a46ad,,,,,,,,
f,0.7907,0,22,22,25,1,60128b0e0f9e1d2e9eaa9b53,ORROORO,ORROORR,21.79500819,22.61624387,series_1,60128b0e0f9e1d2e9eaa9b53,Mężczyzna,20,2021-09-06_19h26.02.833,rantool2,2021.1.4,Win32,74.67702188,6135e006383e6ea6c3d06a28,61364f06f3b89e3fcb9a46ad,,,,,,,,
j,0.8467,0,23,23,13,1,60128b0e0f9e1d2e9eaa9b53,OORRORO,OORRORR,21.66733484,22.11181017,series_1,60128b0e0f9e1d2e9eaa9b53,Mężczyzna,20,2021-09-06_19h26.02.833,rantool2,2021.1.4,Win32,74.67702188,6135e006383e6ea6c3d06a28,61364f06f3b89e3fcb9a46ad,,,,,,,,
j,1.3737,0,24,24,30,1,60128b0e0f9e1d2e9eaa9b53,ORRRROO,ORRRROR,22.46748491,22.03072203,series_0,60128b0e0f9e1d2e9eaa9b53,Mężczyzna,20,2021-09-06_19h26.02.833,rantool2,2021.1.4,Win32,74.67702188,6135e006383e6ea6c3d06a28,61364f06f3b89e3fcb9a46ad,,,,,,,,
f,0.5457,0,25,25,26,1,60128b0e0f9e1d2e9eaa9b53,ORROROO,ORROROR,22.02732763,21.71443381,series_0,60128b0e0f9e1d2e9eaa9b53,Mężczyzna,20,2021-09-06_19h26.02.833,rantool2,2021.1.4,Win32,74.67702188,6135e006383e6ea6c3d06a28,61364f06f3b89e3fcb9a46ad,,,,,,,,
j,1.8948,0,26,26,0,1,60128b0e0f9e1d2e9eaa9b53,OOOOOOO,OOOOOOR,18.52739004,19.62521613,series_1,60128b0e0f9e1d2e9eaa9b53,Mężczyzna,20,2021-09-06_19h26.02.833,rantool2,2021.1.4,Win32,74.67702188,6135e006383e6ea6c3d06a28,61364f06f3b89e3fcb9a46ad,,,,,,,,
j,1.2048,0,27,27,33,1,60128b0e0f9e1d2e9eaa9b53,ROOOORO,ROOOORR,20.83779602,22.03072203,series_1,60128b0e0f9e1d2e9eaa9b53,Mężczyzna,20,2021-09-06_19h26.02.833,rantool2,2021.1.4,Win32,74.67702188,6135e006383e6ea6c3d06a28,61364f06f3b89e3fcb9a46ad,,,,,,,,
j,0.6593,0,28,28,36,1,60128b0e0f9e1d2e9eaa9b53,ROOROOO,ROOROOR,21.07991943,20.9984461,series_0,60128b0e0f9e1d2e9eaa9b53,Mężczyzna,20,2021-09-06_19h26.02.833,rantool2,2021.1.4,Win32,74.67702188,6135e006383e6ea6c3d06a28,61364f06f3b89e3fcb9a46ad,,,,,,,,
f,0.5347,0,29,29,61,1,60128b0e0f9e1d2e9eaa9b53,RRRRORO,RRRRORR,21.81333602,21.17347734,series_0,60128b0e0f9e1d2e9eaa9b53,Mężczyzna,20,2021-09-06_19h26.02.833,rantool2,2021.1.4,Win32,74.67702188,6135e006383e6ea6c3d06a28,61364f06f3b89e3fcb9a46ad,,,,,,,,
j,1.6413,0,30,30,19,1,60128b0e0f9e1d2e9eaa9b53,OROORRO,OROORRR,21.73568164,22.11181017,series_1,60128b0e0f9e1d2e9eaa9b53,Mężczyzna,20,2021-09-06_19h26.02.833,rantool2,2021.1.4,Win32,74.67702188,6135e006383e6ea6c3d06a28,61364f06f3b89e3fcb9a46ad,,,,,,,,
j,1.4429,0,31,31,8,1,60128b0e0f9e1d2e9eaa9b53,OOROOOO,OOROOOR,19.91402015,20.89823192,series_1,60128b0e0f9e1d2e9eaa9b53,Mężczyzna,20,2021-09-06_19h26.02.833,rantool2,2021.1.4,Win32,74.67702188,6135e006383e6ea6c3d06a28,61364f06f3b89e3fcb9a46ad,,,,,,,,
j,0.9073,0,32,32,38,1,60128b0e0f9e1d2e9eaa9b53,ROORROO,ROORROR,21.79500819,21.36812781,series_0,60128b0e0f9e1d2e9eaa9b53,Mężczyzna,20,2021-09-06_19h26.02.833,rantool2,2021.1.4,Win32,74.67702188,6135e006383e6ea6c3d06a28,61364f06f3b89e3fcb9a46ad,,,,,,,,
f,1.3225,0,33,33,32,1,60128b0e0f9e1d2e9eaa9b53,ROOOOOO,ROOOOOR,19.92253567,21.27974287,series_1,60128b0e0f9e1d2e9eaa9b53,Mężczyzna,20,2021-09-06_19h26.02.833,rantool2,2021.1.4,Win32,74.67702188,6135e006383e6ea6c3d06a28,61364f06f3b89e3fcb9a46ad,,,,,,,,
j,1.841,0,34,34,28,1,60128b0e0f9e1d2e9eaa9b53,ORRROOO,ORRROOR,22.24142883,22.53364006,series_1,60128b0e0f9e1d2e9eaa9b53,Mężczyzna,20,2021-09-06_19h26.02.833,rantool2,2021.1.4,Win32,74.67702188,6135e006383e6ea6c3d06a28,61364f06f3b89e3fcb9a46ad,,,,,,,,
j,0.8933,0,35,35,53,1,60128b0e0f9e1d2e9eaa9b53,RRORORO,RRORORR,20.71309134,21.90565814,series_1,60128b0e0f9e1d2e9eaa9b53,Mężczyzna,20,2021-09-06_19h26.02.833,rantool2,2021.1.4,Win32,74.67702188,6135e006383e6ea6c3d06a28,61364f06f3b89e3fcb9a46ad,,,,,,,,
j,1.3212,0,36,36,37,1,60128b0e0f9e1d2e9eaa9b53,ROORORO,ROORORR,20.42602454,21.57657071,series_1,60128b0e0f9e1d2e9eaa9b53,Mężczyzna,20,2021-09-06_19h26.02.833,rantool2,2021.1.4,Win32,74.67702188,6135e006383e6ea6c3d06a28,61364f06f3b89e3fcb9a46ad,,,,,,,,
f,2.5239,0,37,37,12,1,60128b0e0f9e1d2e9eaa9b53,OORROOO,OORROOR,21.30250474,22.02786418,series_1,60128b0e0f9e1d2e9eaa9b53,Mężczyzna,20,2021-09-06_19h26.02.833,rantool2,2021.1.4,Win32,74.67702188,6135e006383e6ea6c3d06a28,61364f06f3b89e3fcb9a46ad,,,,,,,,
j,1.4325,0,38,38,57,1,60128b0e0f9e1d2e9eaa9b53,RRROORO,RRROORR,21.82425538,22.07102821,series_1,60128b0e0f9e1d2e9eaa9b53,Mężczyzna,20,2021-09-06_19h26.02.833,rantool2,2021.1.4,Win32,74.67702188,6135e006383e6ea6c3d06a28,61364f06f3b89e3fcb9a46ad,,,,,,,,
j,0.7675,0,39,39,44,1,60128b0e0f9e1d2e9eaa9b53,RORROOO,RORROOR,21.66733484,22.02566557,series_1,60128b0e0f9e1d2e9eaa9b53,Mężczyzna,20,2021-09-06_19h26.02.833,rantool2,2021.1.4,Win32,74.67702188,6135e006383e6ea6c3d06a28,61364f06f3b89e3fcb9a46ad,,,,,,,,
f,0.6315,0,40,40,41,1,60128b0e0f9e1d2e9eaa9b53,ROROORO,ROROORR,20.42602454,21.71443381,series_1,60128b0e0f9e1d2e9eaa9b53,Mężczyzna,20,2021-09-06_19h26.02.833,rantool2,2021.1.4,Win32,74.67702188,6135e006383e6ea6c3d06a28,61364f06f3b89e3fcb9a46ad,,,,,,,,
f,1.7,0,41,41,46,1,60128b0e0f9e1d2e9eaa9b53,RORRROO,RORRROR,22.00300695,21.24781509,series_0,60128b0e0f9e1d2e9eaa9b53,Mężczyzna,20,2021-09-06_19h26.02.833,rantool2,2021.1.4,Win32,74.67702188,6135e006383e6ea6c3d06a28,61364f06f3b89e3fcb9a46ad,,,,,,,,
j,1.2412,0,42,42,18,1,60128b0e0f9e1d2e9eaa9b53,OROOROO,OROOROR,20.84860893,21.22513037,series_1,60128b0e0f9e1d2e9eaa9b53,Mężczyzna,20,2021-09-06_19h26.02.833,rantool2,2021.1.4,Win32,74.67702188,6135e006383e6ea6c3d06a28,61364f06f3b89e3fcb9a46ad,,,,,,,,
f,0.9485,0,43,43,14,1,60128b0e0f9e1d2e9eaa9b53,OORRROO,OORRROR,22.24142883,22.16977179,series_0,60128b0e0f9e1d2e9eaa9b53,Mężczyzna,20,2021-09-06_19h26.02.833,rantool2,2021.1.4,Win32,74.67702188,6135e006383e6ea6c3d06a28,61364f06f3b89e3fcb9a46ad,,,,,,,,
j,1.1755,0,44,44,62,1,60128b0e0f9e1d2e9eaa9b53,RRRRROO,RRRRROR,22.16413392,21.27974287,series_0,60128b0e0f9e1d2e9eaa9b53,Mężczyzna,20,2021-09-06_19h26.02.833,rantool2,2021.1.4,Win32,74.67702188,6135e006383e6ea6c3d06a28,61364f06f3b89e3fcb9a46ad,,,,,,,,
j,1.1801,0,45,45,20,1,60128b0e0f9e1d2e9eaa9b53,OROROOO,OROROOR,21.31236711,21.90565814,series_1,60128b0e0f9e1d2e9eaa9b53,Mężczyzna,20,2021-09-06_19h26.02.833,rantool2,2021.1.4,Win32,74.67702188,6135e006383e6ea6c3d06a28,61364f06f3b89e3fcb9a46ad,,,,,,,,
f,1.8619,0,46,46,47,1,60128b0e0f9e1d2e9eaa9b53,RORRRRO,RORRRRR,21.81333602,21.02936224,series_0,60128b0e0f9e1d2e9eaa9b53,Mężczyzna,20,2021-09-06_19h26.02.833,rantool2,2021.1.4,Win32,74.67702188,6135e006383e6ea6c3d06a28,61364f06f3b89e3fcb9a46ad,,,,,,,,
j,1.6612,0,47,47,43,1,60128b0e0f9e1d2e9eaa9b53,RORORRO,RORORRR,20.71309134,21.07490964,series_1,60128b0e0f9e1d2e9eaa9b53,Mężczyzna,20,2021-09-06_19h26.02.833,rantool2,2021.1.4,Win32,74.67702188,6135e006383e6ea6c3d06a28,61364f06f3b89e3fcb9a46ad,,,,,,,,
f,1.8328,0,48,48,54,1,60128b0e0f9e1d2e9eaa9b53,RRORROO,RRORROR,21.55250791,20.9984461,series_0,60128b0e0f9e1d2e9eaa9b53,Mężczyzna,20,2021-09-06_19h26.02.833,rantool2,2021.1.4,Win32,74.67702188,6135e006383e6ea6c3d06a28,61364f06f3b89e3fcb9a46ad,,,,,,,,
j,1.3117,0,49,49,21,1,60128b0e0f9e1d2e9eaa9b53,ORORORO,ORORORR,20.39515459,22.06781359,series_1,60128b0e0f9e1d2e9eaa9b53,Mężczyzna,20,2021-09-06_19h26.02.833,rantool2,2021.1.4,Win32,74.67702188,6135e006383e6ea6c3d06a28,61364f06f3b89e3fcb9a46ad,,,,,,,,
j,0.7246,0,50,50,11,1,60128b0e0f9e1d2e9eaa9b53,OORORRO,OORORRR,22.18365867,22.6797523,series_1,60128b0e0f9e1d2e9eaa9b53,Mężczyzna,20,2021-09-06_19h26.02.833,rantool2,2021.1.4,Win32,74.67702188,6135e006383e6ea6c3d06a28,61364f06f3b89e3fcb9a46ad,,,,,,,,
j,0.6947,0,51,51,27,1,60128b0e0f9e1d2e9eaa9b53,ORRORRO,ORRORRR,21.55250791,22.2428857,series_1,60128b0e0f9e1d2e9eaa9b53,Mężczyzna,20,2021-09-06_19h26.02.833,rantool2,2021.1.4,Win32,74.67702188,6135e006383e6ea6c3d06a28,61364f06f3b89e3fcb9a46ad,,,,,,,,
j,0.8316,0,52,52,2,1,60128b0e0f9e1d2e9eaa9b53,OOOOROO,OOOOROR,20.43051175,21.02936224,series_1,60128b0e0f9e1d2e9eaa9b53,Mężczyzna,20,2021-09-06_19h26.02.833,rantool2,2021.1.4,Win32,74.67702188,6135e006383e6ea6c3d06a28,61364f06f3b89e3fcb9a46ad,,,,,,,,
j,1.1924,0,53,53,58,1,60128b0e0f9e1d2e9eaa9b53,RRROROO,RRROROR,22.1285618,21.37121559,series_0,60128b0e0f9e1d2e9eaa9b53,Mężczyzna,20,2021-09-06_19h26.02.833,rantool2,2021.1.4,Win32,74.67702188,6135e006383e6ea6c3d06a28,61364f06f3b89e3fcb9a46ad,,,,,,,,
,,0,54,54,51,1,60128b0e0f9e1d2e9eaa9b53,RROORRO,RROORRR,21.89852628,22.02786418,series_1,60128b0e0f9e1d2e9eaa9b53,Mężczyzna,20,2021-09-06_19h26.02.833,rantool2,2021.1.4,Win32,74.67702188,6135e006383e6ea6c3d06a28,61364f06f3b89e3fcb9a46ad,,,,,,,,
j,1.2427,0,55,55,3,1,60128b0e0f9e1d2e9eaa9b53,OOOORRO,OOOORRR,20.90986523,21.74922619,series_1,60128b0e0f9e1d2e9eaa9b53,Mężczyzna,20,2021-09-06_19h26.02.833,rantool2,2021.1.4,Win32,74.67702188,6135e006383e6ea6c3d06a28,61364f06f3b89e3fcb9a46ad,,,,,,,,
j,1.9267,0,56,56,4,1,60128b0e0f9e1d2e9eaa9b53,OOOROOO,OOOROOR,19.91402015,21.21223021,series_1,60128b0e0f9e1d2e9eaa9b53,Mężczyzna,20,2021-09-06_19h26.02.833,rantool2,2021.1.4,Win32,74.67702188,6135e006383e6ea6c3d06a28,61364f06f3b89e3fcb9a46ad,,,,,,,,
f,1.0141,0,57,57,15,1,60128b0e0f9e1d2e9eaa9b53,OORRRRO,OORRRRR,22.10108823,21.74922619,series_0,60128b0e0f9e1d2e9eaa9b53,Mężczyzna,20,2021-09-06_19h26.02.833,rantool2,2021.1.4,Win32,74.67702188,6135e006383e6ea6c3d06a28,61364f06f3b89e3fcb9a46ad,,,,,,,,
j,1.0987,0,58,58,17,1,60128b0e0f9e1d2e9eaa9b53,OROOORO,OROOORR,21.03750787,22.12173012,series_1,60128b0e0f9e1d2e9eaa9b53,Mężczyzna,20,2021-09-06_19h26.02.833,rantool2,2021.1.4,Win32,74.67702188,6135e006383e6ea6c3d06a28,61364f06f3b89e3fcb9a46ad,,,,,,,,
j,0.8648,0,59,59,45,1,60128b0e0f9e1d2e9eaa9b53,RORRORO,RORRORR,20.78182524,21.22513037,series_1,60128b0e0f9e1d2e9eaa9b53,Mężczyzna,20,2021-09-06_19h26.02.833,rantool2,2021.1.4,Win32,74.67702188,6135e006383e6ea6c3d06a28,61364f06f3b89e3fcb9a46ad,,,,,,,,
f,1.0667,0,60,60,35,1,60128b0e0f9e1d2e9eaa9b53,ROOORRO,ROOORRR,21.76276513,22.16977179,series_1,60128b0e0f9e1d2e9eaa9b53,Mężczyzna,20,2021-09-06_19h26.02.833,rantool2,2021.1.4,Win32,74.67702188,6135e006383e6ea6c3d06a28,61364f06f3b89e3fcb9a46ad,,,,,,,,
f,0.9518,0,61,61,50,1,60128b0e0f9e1d2e9eaa9b53,RROOROO,RROOROR,21.73568164,22.02566557,series_1,60128b0e0f9e1d2e9eaa9b53,Mężczyzna,20,2021-09-06_19h26.02.833,rantool2,2021.1.4,Win32,74.67702188,6135e006383e6ea6c3d06a28,61364f06f3b89e3fcb9a46ad,,,,,,,,
f,0.8275,0,62,62,10,1,60128b0e0f9e1d2e9eaa9b53,OOROROO,OOROROR,21.31236711,21.07490964,series_0,60128b0e0f9e1d2e9eaa9b53,Mężczyzna,20,2021-09-06_19h26.02.833,rantool2,2021.1.4,Win32,74.67702188,6135e006383e6ea6c3d06a28,61364f06f3b89e3fcb9a46ad,,,,,,,,
f,0.8432,0,63,63,40,1,60128b0e0f9e1d2e9eaa9b53,ROROOOO,ROROOOR,20.87963819,21.37121559,series_1,60128b0e0f9e1d2e9eaa9b53,Mężczyzna,20,2021-09-06_19h26.02.833,rantool2,2021.1.4,Win32,74.67702188,6135e006383e6ea6c3d06a28,61364f06f3b89e3fcb9a46ad,,,,,,,,
,,,,,,,60128b0e0f9e1d2e9eaa9b53,,,,,,60128b0e0f9e1d2e9eaa9b53,Mężczyzna,20,2021-09-06_19h26.02.833,rantool2,2021.1.4,Win32,74.67702188,6135e006383e6ea6c3d06a28,61364f06f3b89e3fcb9a46ad,"[""period""]",0,[1.4596999999284606],0,0,0,0,1
,,,,,,,60128b0e0f9e1d2e9eaa9b53,,,,,,60128b0e0f9e1d2e9eaa9b53,Mężczyzna,20,2021-09-06_19h26.02.833,rantool2,2021.1.4,Win32,74.67702188,6135e006383e6ea6c3d06a28,61364f06f3b89e3fcb9a46ad,"[""period""]",0,[1.5262000000476803],1,0,1,0,1
,,,,,,,60128b0e0f9e1d2e9eaa9b53,,,,,,60128b0e0f9e1d2e9eaa9b53,Mężczyzna,20,2021-09-06_19h26.02.833,rantool2,2021.1.4,Win32,74.67702188,6135e006383e6ea6c3d06a28,61364f06f3b89e3fcb9a46ad,"[""comma""]",0,[1.468999999999994],2,0,2,0,1
,,,,,,,60128b0e0f9e1d2e9eaa9b53,,,,,,60128b0e0f9e1d2e9eaa9b53,Mężczyzna,20,2021-09-06_19h26.02.833,rantool2,2021.1.4,Win32,74.67702188,6135e006383e6ea6c3d06a28,61364f06f3b89e3fcb9a46ad,"[""comma""]",0,[1.6172999999523086],3,0,3,0,1
,,,,,,,60128b0e0f9e1d2e9eaa9b53,,,,,,60128b0e0f9e1d2e9eaa9b53,Mężczyzna,20,2021-09-06_19h26.02.833,rantool2,2021.1.4,Win32,74.67702188,6135e006383e6ea6c3d06a28,61364f06f3b89e3fcb9a46ad,"[""comma""]",0,[1.427000000000021],4,0,4,0,1
,,,,,,,60128b0e0f9e1d2e9eaa9b53,,,,,,60128b0e0f9e1d2e9eaa9b53,Mężczyzna,20,2021-09-06_19h26.02.833,rantool2,2021.1.4,Win32,74.67702188,6135e006383e6ea6c3d06a28,61364f06f3b89e3fcb9a46ad,"[""period""]",0,[1.3222000000476726],5,0,5,0,1
,,,,,,,60128b0e0f9e1d2e9eaa9b53,,,,,,60128b0e0f9e1d2e9eaa9b53,Mężczyzna,20,2021-09-06_19h26.02.833,rantool2,2021.1.4,Win32,74.67702188,6135e006383e6ea6c3d06a28,61364f06f3b89e3fcb9a46ad,"[""period""]",0,[1.4269999999999925],6,0,6,0,1
,,,,,,,60128b0e0f9e1d2e9eaa9b53,,,,,,60128b0e0f9e1d2e9eaa9b53,Mężczyzna,20,2021-09-06_19h26.02.833,rantool2,2021.1.4,Win32,74.67702188,6135e006383e6ea6c3d06a28,61364f06f3b89e3fcb9a46ad,"[""comma""]",0,[1.272500000000008],7,0,7,0,1
,,,,,,,60128b0e0f9e1d2e9eaa9b53,,,,,,60128b0e0f9e1d2e9eaa9b53,Mężczyzna,20,2021-09-06_19h26.02.833,rantool2,2021.1.4,Win32,74.67702188,6135e006383e6ea6c3d06a28,61364f06f3b89e3fcb9a46ad,"[""comma""]",0,[1.3083000000715117],8,0,8,0,1
,,,,,,,60128b0e0f9e1d2e9eaa9b53,,,,,,60128b0e0f9e1d2e9eaa9b53,Mężczyzna,20,2021-09-06_19h26.02.833,rantool2,2021.1.4,Win32,74.67702188,6135e006383e6ea6c3d06a28,61364f06f3b89e3fcb9a46ad,"[""comma""]",0,[1.2013999999761609],9,0,9,0,1
,,,,,,,60128b0e0f9e1d2e9eaa9b53,,,,,,60128b0e0f9e1d2e9eaa9b53,Mężczyzna,20,2021-09-06_19h26.02.833,rantool2,2021.1.4,Win32,74.67702188,6135e006383e6ea6c3d06a28,61364f06f3b89e3fcb9a46ad,"[""period""]",0,[1.0562000000476814],10,0,10,0,1
,,,,,,,60128b0e0f9e1d2e9eaa9b53,,,,,,60128b0e0f9e1d2e9eaa9b53,Mężczyzna,20,2021-09-06_19h26.02.833,rantool2,2021.1.4,Win32,74.67702188,6135e006383e6ea6c3d06a28,61364f06f3b89e3fcb9a46ad,"[""comma""]",0,[1.0541000000238512],11,0,11,0,1
,,,,,,,60128b0e0f9e1d2e9eaa9b53,,,,,,60128b0e0f9e1d2e9eaa9b53,Mężczyzna,20,2021-09-06_19h26.02.833,rantool2,2021.1.4,Win32,74.67702188,6135e006383e6ea6c3d06a28,61364f06f3b89e3fcb9a46ad,0,0,,12,0,12,0,1
,,,,,,,60128b0e0f9e1d2e9eaa9b53,,,,,,60128b0e0f9e1d2e9eaa9b53,Mężczyzna,20,2021-09-06_19h26.02.833,rantool2,2021.1.4,Win32,74.67702188,6135e006383e6ea6c3d06a28,61364f06f3b89e3fcb9a46ad,"[""period""]",0,[1.0611000000238562],13,0,13,0,1
,,,,,,,60128b0e0f9e1d2e9eaa9b53,,,,,,60128b0e0f9e1d2e9eaa9b53,Mężczyzna,20,2021-09-06_19h26.02.833,rantool2,2021.1.4,Win32,74.67702188,6135e006383e6ea6c3d06a28,61364f06f3b89e3fcb9a46ad,"[""comma""]",0,[1.0096000000238519],14,0,14,0,1
,,,,,,,60128b0e0f9e1d2e9eaa9b53,,,,,,60128b0e0f9e1d2e9eaa9b53,Mężczyzna,20,2021-09-06_19h26.02.833,rantool2,2021.1.4,Win32,74.67702188,6135e006383e6ea6c3d06a28,61364f06f3b89e3fcb9a46ad,"[""period""]",0,[1.1893000000715404],15,0,15,0,1
,,,,,,,60128b0e0f9e1d2e9eaa9b53,,,,,,60128b0e0f9e1d2e9eaa9b53,Mężczyzna,20,2021-09-06_19h26.02.833,rantool2,2021.1.4,Win32,74.67702188,6135e006383e6ea6c3d06a28,61364f06f3b89e3fcb9a46ad,"[""comma""]",0,[1.1757000000476694],16,0,16,0,1
,,,,,,,60128b0e0f9e1d2e9eaa9b53,,,,,,60128b0e0f9e1d2e9eaa9b53,Mężczyzna,20,2021-09-06_19h26.02.833,rantool2,2021.1.4,Win32,74.67702188,6135e006383e6ea6c3d06a28,61364f06f3b89e3fcb9a46ad,"[""comma""]",0,[0.7788999999761756],17,0,17,0,1
,,,,,,,60128b0e0f9e1d2e9eaa9b53,,,,,,60128b0e0f9e1d2e9eaa9b53,Mężczyzna,20,2021-09-06_19h26.02.833,rantool2,2021.1.4,Win32,74.67702188,6135e006383e6ea6c3d06a28,61364f06f3b89e3fcb9a46ad,"[""comma""]",0,[0.8787000000476723],18,0,18,0,1
,,,,,,,60128b0e0f9e1d2e9eaa9b53,,,,,,60128b0e0f9e1d2e9eaa9b53,Mężczyzna,20,2021-09-06_19h26.02.833,rantool2,2021.1.4,Win32,74.67702188,6135e006383e6ea6c3d06a28,61364f06f3b89e3fcb9a46ad,"[""period""]",0,[0.3949999999999818],19,0,19,0,1
,,,,,,,60128b0e0f9e1d2e9eaa9b53,,,,,,60128b0e0f9e1d2e9eaa9b53,Mężczyzna,20,2021-09-06_19h26.02.833,rantool2,2021.1.4,Win32,74.67702188,6135e006383e6ea6c3d06a28,61364f06f3b89e3fcb9a46ad,"[""period""]",0,[0.15489999997618042],20,0,20,0,1
,,,,,,,60128b0e0f9e1d2e9eaa9b53,,,,,,60128b0e0f9e1d2e9eaa9b53,Mężczyzna,20,2021-09-06_19h26.02.833,rantool2,2021.1.4,Win32,74.67702188,6135e006383e6ea6c3d06a28,61364f06f3b89e3fcb9a46ad,"[""comma""]",0,[1.1821000000238087],21,0,21,0,1
,,,,,,,60128b0e0f9e1d2e9eaa9b53,,,,,,60128b0e0f9e1d2e9eaa9b53,Mężczyzna,20,2021-09-06_19h26.02.833,rantool2,2021.1.4,Win32,74.67702188,6135e006383e6ea6c3d06a28,61364f06f3b89e3fcb9a46ad,"[""comma""]",0,[1.0856000000238168],22,0,22,0,1
,,,,,,,60128b0e0f9e1d2e9eaa9b53,,,,,,60128b0e0f9e1d2e9eaa9b53,Mężczyzna,20,2021-09-06_19h26.02.833,rantool2,2021.1.4,Win32,74.67702188,6135e006383e6ea6c3d06a28,61364f06f3b89e3fcb9a46ad,"[""period""]",0,[1.0102000000476892],23,0,23,0,1
,,,,,,,60128b0e0f9e1d2e9eaa9b53,,,,,,60128b0e0f9e1d2e9eaa9b53,Mężczyzna,20,2021-09-06_19h26.02.833,rantool2,2021.1.4,Win32,74.67702188,6135e006383e6ea6c3d06a28,61364f06f3b89e3fcb9a46ad,"[""comma""]",0,[1.02800000000002],24,0,24,0,1
,,,,,,,60128b0e0f9e1d2e9eaa9b53,,,,,,60128b0e0f9e1d2e9eaa9b53,Mężczyzna,20,2021-09-06_19h26.02.833,rantool2,2021.1.4,Win32,74.67702188,6135e006383e6ea6c3d06a28,61364f06f3b89e3fcb9a46ad,"[""comma""]",0,[1.1062999999522845],25,0,25,0,1
,,,,,,,60128b0e0f9e1d2e9eaa9b53,,,,,,60128b0e0f9e1d2e9eaa9b53,Mężczyzna,20,2021-09-06_19h26.02.833,rantool2,2021.1.4,Win32,74.67702188,6135e006383e6ea6c3d06a28,61364f06f3b89e3fcb9a46ad,"[""comma""]",0,[1.015199999928484],26,0,26,0,1
,,,,,,,60128b0e0f9e1d2e9eaa9b53,,,,,,60128b0e0f9e1d2e9eaa9b53,Mężczyzna,20,2021-09-06_19h26.02.833,rantool2,2021.1.4,Win32,74.67702188,6135e006383e6ea6c3d06a28,61364f06f3b89e3fcb9a46ad,"[""period""]",0,[1.0698000000714956],27,0,27,0,1
,,,,,,,60128b0e0f9e1d2e9eaa9b53,,,,,,60128b0e0f9e1d2e9eaa9b53,Mężczyzna,20,2021-09-06_19h26.02.833,rantool2,2021.1.4,Win32,74.67702188,6135e006383e6ea6c3d06a28,61364f06f3b89e3fcb9a46ad,"[""period""]",0,[1.028399999976159],28,0,28,0,1
,,,,,,,60128b0e0f9e1d2e9eaa9b53,,,,,,60128b0e0f9e1d2e9eaa9b53,Mężczyzna,20,2021-09-06_19h26.02.833,rantool2,2021.1.4,Win32,74.67702188,6135e006383e6ea6c3d06a28,61364f06f3b89e3fcb9a46ad,"[""comma""]",0,[1.0278999999761709],29,0,29,0,1
,,,,,,,60128b0e0f9e1d2e9eaa9b53,,,,,,60128b0e0f9e1d2e9eaa9b53,Mężczyzna,20,2021-09-06_19h26.02.833,rantool2,2021.1.4,Win32,74.67702188,6135e006383e6ea6c3d06a28,61364f06f3b89e3fcb9a46ad,"[""comma""]",0,[0.9934999999999832],30,0,30,0,1
,,,,,,,60128b0e0f9e1d2e9eaa9b53,,,,,,60128b0e0f9e1d2e9eaa9b53,Mężczyzna,20,2021-09-06_19h26.02.833,rantool2,2021.1.4,Win32,74.67702188,6135e006383e6ea6c3d06a28,61364f06f3b89e3fcb9a46ad,"[""comma""]",0,[1.0168999999761468],31,0,31,0,1
,,,,,,,60128b0e0f9e1d2e9eaa9b53,,,,,,60128b0e0f9e1d2e9eaa9b53,Mężczyzna,20,2021-09-06_19h26.02.833,rantool2,2021.1.4,Win32,74.67702188,6135e006383e6ea6c3d06a28,61364f06f3b89e3fcb9a46ad,"[""comma""]",0,[1.0129999999999768],32,0,32,0,1
,,,,,,,60128b0e0f9e1d2e9eaa9b53,,,,,,60128b0e0f9e1d2e9eaa9b53,Mężczyzna,20,2021-09-06_19h26.02.833,rantool2,2021.1.4,Win32,74.67702188,6135e006383e6ea6c3d06a28,61364f06f3b89e3fcb9a46ad,"[""period""]",0,[1.0996999999284753],33,0,33,0,1
,,,,,,,60128b0e0f9e1d2e9eaa9b53,,,,,,60128b0e0f9e1d2e9eaa9b53,Mężczyzna,20,2021-09-06_19h26.02.833,rantool2,2021.1.4,Win32,74.67702188,6135e006383e6ea6c3d06a28,61364f06f3b89e3fcb9a46ad,"[""comma""]",0,[1.0701000000238423],34,0,34,0,1
,,,,,,,60128b0e0f9e1d2e9eaa9b53,,,,,,60128b0e0f9e1d2e9eaa9b53,Mężczyzna,20,2021-09-06_19h26.02.833,rantool2,2021.1.4,Win32,74.67702188,6135e006383e6ea6c3d06a28,61364f06f3b89e3fcb9a46ad,"[""comma""]",0,[1.0032999999522758],35,0,35,0,1
,,,,,,,60128b0e0f9e1d2e9eaa9b53,,,,,,60128b0e0f9e1d2e9eaa9b53,Mężczyzna,20,2021-09-06_19h26.02.833,rantool2,2021.1.4,Win32,74.67702188,6135e006383e6ea6c3d06a28,61364f06f3b89e3fcb9a46ad,"[""period""]",0,[0.8006999999284972],36,0,36,0,1
,,,,,,,60128b0e0f9e1d2e9eaa9b53,,,,,,60128b0e0f9e1d2e9eaa9b53,Mężczyzna,20,2021-09-06_19h26.02.833,rantool2,2021.1.4,Win32,74.67702188,6135e006383e6ea6c3d06a28,61364f06f3b89e3fcb9a46ad,"[""period""]",0,[0.9964999999999691],37,0,37,0,1
,,,,,,,60128b0e0f9e1d2e9eaa9b53,,,,,,60128b0e0f9e1d2e9eaa9b53,Mężczyzna,20,2021-09-06_19h26.02.833,rantool2,2021.1.4,Win32,74.67702188,6135e006383e6ea6c3d06a28,61364f06f3b89e3fcb9a46ad,"[""comma""]",0,[1.015199999928484],38,0,38,0,1
,,,,,,,60128b0e0f9e1d2e9eaa9b53,,,,,,60128b0e0f9e1d2e9eaa9b53,Mężczyzna,20,2021-09-06_19h26.02.833,rantool2,2021.1.4,Win32,74.67702188,6135e006383e6ea6c3d06a28,61364f06f3b89e3fcb9a46ad,"[""period""]",0,[0.9870999999046148],39,0,39,0,1
,,,,,,,60128b0e0f9e1d2e9eaa9b53,,,,,,60128b0e0f9e1d2e9eaa9b53,Mężczyzna,20,2021-09-06_19h26.02.833,rantool2,2021.1.4,Win32,74.67702188,6135e006383e6ea6c3d06a28,61364f06f3b89e3fcb9a46ad,"[""period""]",0,[0.9243999999761741],40,0,40,0,1
,,,,,,,60128b0e0f9e1d2e9eaa9b53,,,,,,60128b0e0f9e1d2e9eaa9b53,Mężczyzna,20,2021-09-06_19h26.02.833,rantool2,2021.1.4,Win32,74.67702188,6135e006383e6ea6c3d06a28,61364f06f3b89e3fcb9a46ad,"[""period""]",0,[0.9875999999046599],41,0,41,0,1
,,,,,,,60128b0e0f9e1d2e9eaa9b53,,,,,,60128b0e0f9e1d2e9eaa9b53,Mężczyzna,20,2021-09-06_19h26.02.833,rantool2,2021.1.4,Win32,74.67702188,6135e006383e6ea6c3d06a28,61364f06f3b89e3fcb9a46ad,"[""comma""]",0,[0.9376999999284408],42,0,42,0,1
,,,,,,,60128b0e0f9e1d2e9eaa9b53,,,,,,60128b0e0f9e1d2e9eaa9b53,Mężczyzna,20,2021-09-06_19h26.02.833,rantool2,2021.1.4,Win32,74.67702188,6135e006383e6ea6c3d06a28,61364f06f3b89e3fcb9a46ad,"[""period""]",0,[1.051899999976115],43,0,43,0,1
,,,,,,,60128b0e0f9e1d2e9eaa9b53,,,,,,60128b0e0f9e1d2e9eaa9b53,Mężczyzna,20,2021-09-06_19h26.02.833,rantool2,2021.1.4,Win32,74.67702188,6135e006383e6ea6c3d06a28,61364f06f3b89e3fcb9a46ad,"[""period""]",0,[0.4012000000476519],44,0,44,0,1
,,,,,,,60128b0e0f9e1d2e9eaa9b53,,,,,,60128b0e0f9e1d2e9eaa9b53,Mężczyzna,20,2021-09-06_19h26.02.833,rantool2,2021.1.4,Win32,74.67702188,6135e006383e6ea6c3d06a28,61364f06f3b89e3fcb9a46ad,"[""comma""]",0,[1.0241999999284417],45,0,45,0,1
,,,,,,,60128b0e0f9e1d2e9eaa9b53,,,,,,60128b0e0f9e1d2e9eaa9b53,Mężczyzna,20,2021-09-06_19h26.02.833,rantool2,2021.1.4,Win32,74.67702188,6135e006383e6ea6c3d06a28,61364f06f3b89e3fcb9a46ad,"[""period""]",0,[1.0471000000238746],46,0,46,0,1
,,,,,,,60128b0e0f9e1d2e9eaa9b53,,,,,,60128b0e0f9e1d2e9eaa9b53,Mężczyzna,20,2021-09-06_19h26.02.833,rantool2,2021.1.4,Win32,74.67702188,6135e006383e6ea6c3d06a28,61364f06f3b89e3fcb9a46ad,"[""comma""]",0,[0.9902000000477074],47,0,47,0,1
,,,,,,,60128b0e0f9e1d2e9eaa9b53,,,,,,60128b0e0f9e1d2e9eaa9b53,Mężczyzna,20,2021-09-06_19h26.02.833,rantool2,2021.1.4,Win32,74.67702188,6135e006383e6ea6c3d06a28,61364f06f3b89e3fcb9a46ad,"[""period""]",0,[0.9660000000000082],48,0,48,0,1
,,,,,,,60128b0e0f9e1d2e9eaa9b53,,,,,,60128b0e0f9e1d2e9eaa9b53,Mężczyzna,20,2021-09-06_19h26.02.833,rantool2,2021.1.4,Win32,74.67702188,6135e006383e6ea6c3d06a28,61364f06f3b89e3fcb9a46ad,"[""comma""]",0,[0.9715999999046403],49,0,49,0,1
,,,,,,,60128b0e0f9e1d2e9eaa9b53,,,,,,60128b0e0f9e1d2e9eaa9b53,Mężczyzna,20,2021-09-06_19h26.02.833,rantool2,2021.1.4,Win32,74.67702188,6135e006383e6ea6c3d06a28,61364f06f3b89e3fcb9a46ad,"[""comma""]",0,[1.0319999999999823],50,0,50,0,1
,,,,,,,60128b0e0f9e1d2e9eaa9b53,,,,,,60128b0e0f9e1d2e9eaa9b53,Mężczyzna,20,2021-09-06_19h26.02.833,rantool2,2021.1.4,Win32,74.67702188,6135e006383e6ea6c3d06a28,61364f06f3b89e3fcb9a46ad,"[""comma""]",0,[1.016999999999996],51,0,51,0,1
,,,,,,,60128b0e0f9e1d2e9eaa9b53,,,,,,60128b0e0f9e1d2e9eaa9b53,Mężczyzna,20,2021-09-06_19h26.02.833,rantool2,2021.1.4,Win32,74.67702188,6135e006383e6ea6c3d06a28,61364f06f3b89e3fcb9a46ad,"[""period""]",0,[1.0292999999522863],52,0,52,0,1
,,,,,,,60128b0e0f9e1d2e9eaa9b53,,,,,,60128b0e0f9e1d2e9eaa9b53,Mężczyzna,20,2021-09-06_19h26.02.833,rantool2,2021.1.4,Win32,74.67702188,6135e006383e6ea6c3d06a28,61364f06f3b89e3fcb9a46ad,"[""period""]",0,[0.8546999999284708],53,0,53,0,1
,,,,,,,60128b0e0f9e1d2e9eaa9b53,,,,,,60128b0e0f9e1d2e9eaa9b53,Mężczyzna,20,2021-09-06_19h26.02.833,rantool2,2021.1.4,Win32,74.67702188,6135e006383e6ea6c3d06a28,61364f06f3b89e3fcb9a46ad,"[""comma""]",0,[0.966699999928494],54,0,54,0,1
,,,,,,,60128b0e0f9e1d2e9eaa9b53,,,,,,60128b0e0f9e1d2e9eaa9b53,Mężczyzna,20,2021-09-06_19h26.02.833,rantool2,2021.1.4,Win32,74.67702188,6135e006383e6ea6c3d06a28,61364f06f3b89e3fcb9a46ad,"[""period""]",0,[1.0018000000715688],55,0,55,0,1
,,,,,,,60128b0e0f9e1d2e9eaa9b53,,,,,,60128b0e0f9e1d2e9eaa9b53,Mężczyzna,20,2021-09-06_19h26.02.833,rantool2,2021.1.4,Win32,74.67702188,6135e006383e6ea6c3d06a28,61364f06f3b89e3fcb9a46ad,"[""period""]",0,[0.92349999999999],56,0,56,0,1
,,,,,,,60128b0e0f9e1d2e9eaa9b53,,,,,,60128b0e0f9e1d2e9eaa9b53,Mężczyzna,20,2021-09-06_19h26.02.833,rantool2,2021.1.4,Win32,74.67702188,6135e006383e6ea6c3d06a28,61364f06f3b89e3fcb9a46ad,"[""period""]",0,[0.9557000000476705],57,0,57,0,1
,,,,,,,60128b0e0f9e1d2e9eaa9b53,,,,,,60128b0e0f9e1d2e9eaa9b53,Mężczyzna,20,2021-09-06_19h26.02.833,rantool2,2021.1.4,Win32,74.67702188,6135e006383e6ea6c3d06a28,61364f06f3b89e3fcb9a46ad,"[""comma""]",0,[0.9628999999761731],58,0,58,0,1
,,,,,,,60128b0e0f9e1d2e9eaa9b53,,,,,,60128b0e0f9e1d2e9eaa9b53,Mężczyzna,20,2021-09-06_19h26.02.833,rantool2,2021.1.4,Win32,74.67702188,6135e006383e6ea6c3d06a28,61364f06f3b89e3fcb9a46ad,"[""period""]",0,[0.9866000000238273],59,0,59,0,1
,,,,,,,60128b0e0f9e1d2e9eaa9b53,,,,,,60128b0e0f9e1d2e9eaa9b53,Mężczyzna,20,2021-09-06_19h26.02.833,rantool2,2021.1.4,Win32,74.67702188,6135e006383e6ea6c3d06a28,61364f06f3b89e3fcb9a46ad,"[""period""]",0,[1.0288000000715556],60,0,60,0,1
,,,,,,,60128b0e0f9e1d2e9eaa9b53,,,,,,60128b0e0f9e1d2e9eaa9b53,Mężczyzna,20,2021-09-06_19h26.02.833,rantool2,2021.1.4,Win32,74.67702188,6135e006383e6ea6c3d06a28,61364f06f3b89e3fcb9a46ad,"[""period""]",0,[1.0643999999761604],61,0,61,0,1
,,,,,,,60128b0e0f9e1d2e9eaa9b53,,,,,,60128b0e0f9e1d2e9eaa9b53,Mężczyzna,20,2021-09-06_19h26.02.833,rantool2,2021.1.4,Win32,74.67702188,6135e006383e6ea6c3d06a28,61364f06f3b89e3fcb9a46ad,"[""comma""]",0,[1],62,0,62,0,1
,,,,,,,60128b0e0f9e1d2e9eaa9b53,,,,,,60128b0e0f9e1d2e9eaa9b53,Mężczyzna,20,2021-09-06_19h26.02.833,rantool2,2021.1.4,Win32,74.67702188,6135e006383e6ea6c3d06a28,61364f06f3b89e3fcb9a46ad,"[""comma""]",0,[0.9883999999761954],63,0,63,0,1
,,,,,,,60128b0e0f9e1d2e9eaa9b53,,,,,,60128b0e0f9e1d2e9eaa9b53,Mężczyzna,20,2021-09-06_19h26.02.833,rantool2,2021.1.4,Win32,74.67702188,6135e006383e6ea6c3d06a28,61364f06f3b89e3fcb9a46ad,"[""period""]",0,[0.9538999999761586],64,0,64,0,1
,,,,,,,60128b0e0f9e1d2e9eaa9b53,,,,,,60128b0e0f9e1d2e9eaa9b53,Mężczyzna,20,2021-09-06_19h26.02.833,rantool2,2021.1.4,Win32,74.67702188,6135e006383e6ea6c3d06a28,61364f06f3b89e3fcb9a46ad,"[""period""]",0,[0.9677999999522626],65,0,65,0,1
,,,,,,,60128b0e0f9e1d2e9eaa9b53,,,,,,60128b0e0f9e1d2e9eaa9b53,Mężczyzna,20,2021-09-06_19h26.02.833,rantool2,2021.1.4,Win32,74.67702188,6135e006383e6ea6c3d06a28,61364f06f3b89e3fcb9a46ad,"[""comma""]",0,[0.9567000000476469],66,0,66,0,1
,,,,,,,60128b0e0f9e1d2e9eaa9b53,,,,,,60128b0e0f9e1d2e9eaa9b53,Mężczyzna,20,2021-09-06_19h26.02.833,rantool2,2021.1.4,Win32,74.67702188,6135e006383e6ea6c3d06a28,61364f06f3b89e3fcb9a46ad,"[""comma""]",0,[0.9194999999999709],67,0,67,0,1
,,,,,,,60128b0e0f9e1d2e9eaa9b53,,,,,,60128b0e0f9e1d2e9eaa9b53,Mężczyzna,20,2021-09-06_19h26.02.833,rantool2,2021.1.4,Win32,74.67702188,6135e006383e6ea6c3d06a28,61364f06f3b89e3fcb9a46ad,"[""comma""]",0,[0.9532000000476728],68,0,68,0,1
,,,,,,,60128b0e0f9e1d2e9eaa9b53,,,,,,60128b0e0f9e1d2e9eaa9b53,Mężczyzna,20,2021-09-06_19h26.02.833,rantool2,2021.1.4,Win32,74.67702188,6135e006383e6ea6c3d06a28,61364f06f3b89e3fcb9a46ad,"[""comma""]",0,[0.9363999999761745],69,0,69,0,1
,,,,,,,60128b0e0f9e1d2e9eaa9b53,,,,,,60128b0e0f9e1d2e9eaa9b53,Mężczyzna,20,2021-09-06_19h26.02.833,rantool2,2021.1.4,Win32,74.67702188,6135e006383e6ea6c3d06a28,61364f06f3b89e3fcb9a46ad,"[""period""]",0,[0.9773999999761713],70,0,70,0,1
,,,,,,,60128b0e0f9e1d2e9eaa9b53,,,,,,60128b0e0f9e1d2e9eaa9b53,Mężczyzna,20,2021-09-06_19h26.02.833,rantool2,2021.1.4,Win32,74.67702188,6135e006383e6ea6c3d06a28,61364f06f3b89e3fcb9a46ad,"[""comma""]",0,[0.9783999999762045],71,0,71,0,1
,,,,,,,60128b0e0f9e1d2e9eaa9b53,,,,,,60128b0e0f9e1d2e9eaa9b53,Mężczyzna,20,2021-09-06_19h26.02.833,rantool2,2021.1.4,Win32,74.67702188,6135e006383e6ea6c3d06a28,61364f06f3b89e3fcb9a46ad,"[""period""]",0,[1.02800000000002],72,0,72,0,1
,,,,,,,60128b0e0f9e1d2e9eaa9b53,,,,,,60128b0e0f9e1d2e9eaa9b53,Mężczyzna,20,2021-09-06_19h26.02.833,rantool2,2021.1.4,Win32,74.67702188,6135e006383e6ea6c3d06a28,61364f06f3b89e3fcb9a46ad,"[""comma""]",0,[1.0647999999522995],73,0,73,0,1
,,,,,,,60128b0e0f9e1d2e9eaa9b53,,,,,,60128b0e0f9e1d2e9eaa9b53,Mężczyzna,20,2021-09-06_19h26.02.833,rantool2,2021.1.4,Win32,74.67702188,6135e006383e6ea6c3d06a28,61364f06f3b89e3fcb9a46ad,"[""period""]",0,[1.0688999999761677],74,0,74,0,1
,,,,,,,60128b0e0f9e1d2e9eaa9b53,,,,,,60128b0e0f9e1d2e9eaa9b53,Mężczyzna,20,2021-09-06_19h26.02.833,rantool2,2021.1.4,Win32,74.67702188,6135e006383e6ea6c3d06a28,61364f06f3b89e3fcb9a46ad,"[""comma""]",0,[1.05210000002387],75,0,75,0,1
,,,,,,,60128b0e0f9e1d2e9eaa9b53,,,,,,60128b0e0f9e1d2e9eaa9b53,Mężczyzna,20,2021-09-06_19h26.02.833,rantool2,2021.1.4,Win32,74.67702188,6135e006383e6ea6c3d06a28,61364f06f3b89e3fcb9a46ad,"[""period""]",0,[1.0816999999284462],76,0,76,0,1
,,,,,,,60128b0e0f9e1d2e9eaa9b53,,,,,,60128b0e0f9e1d2e9eaa9b53,Mężczyzna,20,2021-09-06_19h26.02.833,rantool2,2021.1.4,Win32,74.67702188,6135e006383e6ea6c3d06a28,61364f06f3b89e3fcb9a46ad,"[""comma""]",0,[1.0266000000238478],77,0,77,0,1
,,,,,,,60128b0e0f9e1d2e9eaa9b53,,,,,,60128b0e0f9e1d2e9eaa9b53,Mężczyzna,20,2021-09-06_19h26.02.833,rantool2,2021.1.4,Win32,74.67702188,6135e006383e6ea6c3d06a28,61364f06f3b89e3fcb9a46ad,"[""comma""]",0,[1.001299999952323],78,0,78,0,1
,,,,,,,60128b0e0f9e1d2e9eaa9b53,,,,,,60128b0e0f9e1d2e9eaa9b53,Mężczyzna,20,2021-09-06_19h26.02.833,rantool2,2021.1.4,Win32,74.67702188,6135e006383e6ea6c3d06a28,61364f06f3b89e3fcb9a46ad,"[""comma""]",0,[0.9878000000715019],79,0,79,0,1
,,,,,,,60128b0e0f9e1d2e9eaa9b53,,,,,,60128b0e0f9e1d2e9eaa9b53,Mężczyzna,20,2021-09-06_19h26.02.833,rantool2,2021.1.4,Win32,74.67702188,6135e006383e6ea6c3d06a28,61364f06f3b89e3fcb9a46ad,"[""comma""]",0,[0.9741999999284872],80,0,80,0,1
,,,,,,,60128b0e0f9e1d2e9eaa9b53,,,,,,60128b0e0f9e1d2e9eaa9b53,Mężczyzna,20,2021-09-06_19h26.02.833,rantool2,2021.1.4,Win32,74.67702188,6135e006383e6ea6c3d06a28,61364f06f3b89e3fcb9a46ad,"[""comma""]",0,[0.9875000000000114],81,0,81,0,1
,,,,,,,60128b0e0f9e1d2e9eaa9b53,,,,,,60128b0e0f9e1d2e9eaa9b53,Mężczyzna,20,2021-09-06_19h26.02.833,rantool2,2021.1.4,Win32,74.67702188,6135e006383e6ea6c3d06a28,61364f06f3b89e3fcb9a46ad,"[""comma""]",0,[1.029300000071487],82,0,82,0,1
,,,,,,,60128b0e0f9e1d2e9eaa9b53,,,,,,60128b0e0f9e1d2e9eaa9b53,Mężczyzna,20,2021-09-06_19h26.02.833,rantool2,2021.1.4,Win32,74.67702188,6135e006383e6ea6c3d06a28,61364f06f3b89e3fcb9a46ad,"[""comma""]",0,[1.0682999999522735],83,0,83,0,1
,,,,,,,60128b0e0f9e1d2e9eaa9b53,,,,,,60128b0e0f9e1d2e9eaa9b53,Mężczyzna,20,2021-09-06_19h26.02.833,rantool2,2021.1.4,Win32,74.67702188,6135e006383e6ea6c3d06a28,61364f06f3b89e3fcb9a46ad,"[""comma""]",0,[1.053299999952344],84,0,84,0,1
,,,,,,,60128b0e0f9e1d2e9eaa9b53,,,,,,60128b0e0f9e1d2e9eaa9b53,Mężczyzna,20,2021-09-06_19h26.02.833,rantool2,2021.1.4,Win32,74.67702188,6135e006383e6ea6c3d06a28,61364f06f3b89e3fcb9a46ad,"[""period""]",0,[0.9612999999523026],85,0,85,0,1
,,,,,,,60128b0e0f9e1d2e9eaa9b53,,,,,,60128b0e0f9e1d2e9eaa9b53,Mężczyzna,20,2021-09-06_19h26.02.833,rantool2,2021.1.4,Win32,74.67702188,6135e006383e6ea6c3d06a28,61364f06f3b89e3fcb9a46ad,"[""comma""]",0,[0.9748999999761736],86,0,86,0,1
,,,,,,,60128b0e0f9e1d2e9eaa9b53,,,,,,60128b0e0f9e1d2e9eaa9b53,Mężczyzna,20,2021-09-06_19h26.02.833,rantool2,2021.1.4,Win32,74.67702188,6135e006383e6ea6c3d06a28,61364f06f3b89e3fcb9a46ad,"[""comma""]",0,[1.0932000000476592],87,0,87,0,1
,,,,,,,60128b0e0f9e1d2e9eaa9b53,,,,,,60128b0e0f9e1d2e9eaa9b53,Mężczyzna,20,2021-09-06_19h26.02.833,rantool2,2021.1.4,Win32,74.67702188,6135e006383e6ea6c3d06a28,61364f06f3b89e3fcb9a46ad,"[""period""]",0,[0.9478999999761868],88,0,88,0,1
,,,,,,,60128b0e0f9e1d2e9eaa9b53,,,,,,60128b0e0f9e1d2e9eaa9b53,Mężczyzna,20,2021-09-06_19h26.02.833,rantool2,2021.1.4,Win32,74.67702188,6135e006383e6ea6c3d06a28,61364f06f3b89e3fcb9a46ad,"[""period""]",0,[1.0157999999522644],89,0,89,0,1
,,,,,,,60128b0e0f9e1d2e9eaa9b53,,,,,,60128b0e0f9e1d2e9eaa9b53,Mężczyzna,20,2021-09-06_19h26.02.833,rantool2,2021.1.4,Win32,74.67702188,6135e006383e6ea6c3d06a28,61364f06f3b89e3fcb9a46ad,"[""period""]",0,[1.0407999999522985],90,0,90,0,1
,,,,,,,60128b0e0f9e1d2e9eaa9b53,,,,,,60128b0e0f9e1d2e9eaa9b53,Mężczyzna,20,2021-09-06_19h26.02.833,rantool2,2021.1.4,Win32,74.67702188,6135e006383e6ea6c3d06a28,61364f06f3b89e3fcb9a46ad,"[""period""]",0,[0.8601999999285113],91,0,91,0,1
,,,,,,,60128b0e0f9e1d2e9eaa9b53,,,,,,60128b0e0f9e1d2e9eaa9b53,Mężczyzna,20,2021-09-06_19h26.02.833,rantool2,2021.1.4,Win32,74.67702188,6135e006383e6ea6c3d06a28,61364f06f3b89e3fcb9a46ad,"[""comma""]",0,[0.827699999928484],92,0,92,0,1
,,,,,,,60128b0e0f9e1d2e9eaa9b53,,,,,,60128b0e0f9e1d2e9eaa9b53,Mężczyzna,20,2021-09-06_19h26.02.833,rantool2,2021.1.4,Win32,74.67702188,6135e006383e6ea6c3d06a28,61364f06f3b89e3fcb9a46ad,"[""comma""]",0,[0.8387000000476519],93,0,93,0,1
,,,,,,,60128b0e0f9e1d2e9eaa9b53,,,,,,60128b0e0f9e1d2e9eaa9b53,Mężczyzna,20,2021-09-06_19h26.02.833,rantool2,2021.1.4,Win32,74.67702188,6135e006383e6ea6c3d06a28,61364f06f3b89e3fcb9a46ad,"[""period""]",0,[0.9676000000238218],94,0,94,0,1
,,,,,,,60128b0e0f9e1d2e9eaa9b53,,,,,,60128b0e0f9e1d2e9eaa9b53,Mężczyzna,20,2021-09-06_19h26.02.833,rantool2,2021.1.4,Win32,74.67702188,6135e006383e6ea6c3d06a28,61364f06f3b89e3fcb9a46ad,"[""comma""]",0,[1.0276999999284726],95,0,95,0,1
,,,,,,,60128b0e0f9e1d2e9eaa9b53,,,,,,60128b0e0f9e1d2e9eaa9b53,Mężczyzna,20,2021-09-06_19h26.02.833,rantool2,2021.1.4,Win32,74.67702188,6135e006383e6ea6c3d06a28,61364f06f3b89e3fcb9a46ad,"[""period""]",0,[0.9211000000238414],96,0,96,0,1
,,,,,,,60128b0e0f9e1d2e9eaa9b53,,,,,,60128b0e0f9e1d2e9eaa9b53,Mężczyzna,20,2021-09-06_19h26.02.833,rantool2,2021.1.4,Win32,74.67702188,6135e006383e6ea6c3d06a28,61364f06f3b89e3fcb9a46ad,"[""comma""]",0,[1.7607999999523258],97,0,97,0,1
,,,,,,,60128b0e0f9e1d2e9eaa9b53,,,,,,60128b0e0f9e1d2e9eaa9b53,Mężczyzna,20,2021-09-06_19h26.02.833,rantool2,2021.1.4,Win32,74.67702188,6135e006383e6ea6c3d06a28,61364f06f3b89e3fcb9a46ad,"[""comma""]",0,[1.975500000000011],98,0,98,0,1
,,,,,,,60128b0e0f9e1d2e9eaa9b53,,,,,,60128b0e0f9e1d2e9eaa9b53,Mężczyzna,20,2021-09-06_19h26.02.833,rantool2,2021.1.4,Win32,74.67702188,6135e006383e6ea6c3d06a28,61364f06f3b89e3fcb9a46ad,"[""period""]",0,[1.3463000000714942],99,0,99,0,1
,,,,,,,60128b0e0f9e1d2e9eaa9b53,,,,,,60128b0e0f9e1d2e9eaa9b53,Mężczyzna,20,2021-09-06_19h26.02.833,rantool2,2021.1.4,Win32,74.67702188,6135e006383e6ea6c3d06a28,61364f06f3b89e3fcb9a46ad,"[""comma""]",0,[1.0791000000238569],100,0,100,0,1
,,,,,,,60128b0e0f9e1d2e9eaa9b53,,,,,,60128b0e0f9e1d2e9eaa9b53,Mężczyzna,20,2021-09-06_19h26.02.833,rantool2,2021.1.4,Win32,74.67702188,6135e006383e6ea6c3d06a28,61364f06f3b89e3fcb9a46ad,"[""comma""]",0,[0.9471000000238519],101,0,101,0,1
,,,,,,,60128b0e0f9e1d2e9eaa9b53,,,,,,60128b0e0f9e1d2e9eaa9b53,Mężczyzna,20,2021-09-06_19h26.02.833,rantool2,2021.1.4,Win32,74.67702188,6135e006383e6ea6c3d06a28,61364f06f3b89e3fcb9a46ad,"[""period""]",0,[0.9457000000476796],102,0,102,0,1
,,,,,,,60128b0e0f9e1d2e9eaa9b53,,,,,,60128b0e0f9e1d2e9eaa9b53,Mężczyzna,20,2021-09-06_19h26.02.833,rantool2,2021.1.4,Win32,74.67702188,6135e006383e6ea6c3d06a28,61364f06f3b89e3fcb9a46ad,"[""period""]",0,[0.9761000000238482],103,0,103,0,1
,,,,,,,60128b0e0f9e1d2e9eaa9b53,,,,,,60128b0e0f9e1d2e9eaa9b53,Mężczyzna,20,2021-09-06_19h26.02.833,rantool2,2021.1.4,Win32,74.67702188,6135e006383e6ea6c3d06a28,61364f06f3b89e3fcb9a46ad,"[""comma""]",0,[0.7288000000715442],104,0,104,0,1
,,,,,,,60128b0e0f9e1d2e9eaa9b53,,,,,,60128b0e0f9e1d2e9eaa9b53,Mężczyzna,20,2021-09-06_19h26.02.833,rantool2,2021.1.4,Win32,74.67702188,6135e006383e6ea6c3d06a28,61364f06f3b89e3fcb9a46ad,"[""period""]",0,[0.9732000000477115],105,0,105,0,1
,,,,,,,60128b0e0f9e1d2e9eaa9b53,,,,,,60128b0e0f9e1d2e9eaa9b53,Mężczyzna,20,2021-09-06_19h26.02.833,rantool2,2021.1.4,Win32,74.67702188,6135e006383e6ea6c3d06a28,61364f06f3b89e3fcb9a46ad,"[""comma""]",0,[1.0412000000476382],106,0,106,0,1
,,,,,,,60128b0e0f9e1d2e9eaa9b53,,,,,,60128b0e0f9e1d2e9eaa9b53,Mężczyzna,20,2021-09-06_19h26.02.833,rantool2,2021.1.4,Win32,74.67702188,6135e006383e6ea6c3d06a28,61364f06f3b89e3fcb9a46ad,"[""period""]",0,[1.0061000000238778],107,0,107,0,1
,,,,,,,60128b0e0f9e1d2e9eaa9b53,,,,,,60128b0e0f9e1d2e9eaa9b53,Mężczyzna,20,2021-09-06_19h26.02.833,rantool2,2021.1.4,Win32,74.67702188,6135e006383e6ea6c3d06a28,61364f06f3b89e3fcb9a46ad,"[""period""]",0,[0.8698000000715638],108,0,108,0,1
,,,,,,,60128b0e0f9e1d2e9eaa9b53,,,,,,60128b0e0f9e1d2e9eaa9b53,Mężczyzna,20,2021-09-06_19h26.02.833,rantool2,2021.1.4,Win32,74.67702188,6135e006383e6ea6c3d06a28,61364f06f3b89e3fcb9a46ad,"[""comma""]",0,[0.912600000023815],109,0,109,0,1
,,,,,,,60128b0e0f9e1d2e9eaa9b53,,,,,,60128b0e0f9e1d2e9eaa9b53,Mężczyzna,20,2021-09-06_19h26.02.833,rantool2,2021.1.4,Win32,74.67702188,6135e006383e6ea6c3d06a28,61364f06f3b89e3fcb9a46ad,"[""comma""]",0,[0.8204999999999814],110,0,110,0,1
,,,,,,,60128b0e0f9e1d2e9eaa9b53,,,,,,60128b0e0f9e1d2e9eaa9b53,Mężczyzna,20,2021-09-06_19h26.02.833,rantool2,2021.1.4,Win32,74.67702188,6135e006383e6ea6c3d06a28,61364f06f3b89e3fcb9a46ad,"[""comma""]",0,[0.8003999999761504],111,0,111,0,1
,,,,,,,60128b0e0f9e1d2e9eaa9b53,,,,,,60128b0e0f9e1d2e9eaa9b53,Mężczyzna,20,2021-09-06_19h26.02.833,rantool2,2021.1.4,Win32,74.67702188,6135e006383e6ea6c3d06a28,61364f06f3b89e3fcb9a46ad,"[""period""]",0,[0.9480999999046276],112,0,112,0,1
,,,,,,,60128b0e0f9e1d2e9eaa9b53,,,,,,60128b0e0f9e1d2e9eaa9b53,Mężczyzna,20,2021-09-06_19h26.02.833,rantool2,2021.1.4,Win32,74.67702188,6135e006383e6ea6c3d06a28,61364f06f3b89e3fcb9a46ad,"[""period""]",0,[0.969799999952329],113,0,113,0,1
,,,,,,,60128b0e0f9e1d2e9eaa9b53,,,,,,60128b0e0f9e1d2e9eaa9b53,Mężczyzna,20,2021-09-06_19h26.02.833,rantool2,2021.1.4,Win32,74.67702188,6135e006383e6ea6c3d06a28,61364f06f3b89e3fcb9a46ad,"[""comma""]",0,[0.6743999999761172],114,0,114,0,1
,,,,,,,60128b0e0f9e1d2e9eaa9b53,,,,,,60128b0e0f9e1d2e9eaa9b53,Mężczyzna,20,2021-09-06_19h26.02.833,rantool2,2021.1.4,Win32,74.67702188,6135e006383e6ea6c3d06a28,61364f06f3b89e3fcb9a46ad,"[""period""]",0,[0.9981000000238396],115,0,115,0,1
,,,,,,,60128b0e0f9e1d2e9eaa9b53,,,,,,60128b0e0f9e1d2e9eaa9b53,Mężczyzna,20,2021-09-06_19h26.02.833,rantool2,2021.1.4,Win32,74.67702188,6135e006383e6ea6c3d06a28,61364f06f3b89e3fcb9a46ad,"[""period""]",0,[1.0152000000476846],116,0,116,0,1
,,,,,,,60128b0e0f9e1d2e9eaa9b53,,,,,,60128b0e0f9e1d2e9eaa9b53,Mężczyzna,20,2021-09-06_19h26.02.833,rantool2,2021.1.4,Win32,74.67702188,6135e006383e6ea6c3d06a28,61364f06f3b89e3fcb9a46ad,"[""comma""]",0,[0.9696000000238314],117,0,117,0,1
,,,,,,,60128b0e0f9e1d2e9eaa9b53,,,,,,60128b0e0f9e1d2e9eaa9b53,Mężczyzna,20,2021-09-06_19h26.02.833,rantool2,2021.1.4,Win32,74.67702188,6135e006383e6ea6c3d06a28,61364f06f3b89e3fcb9a46ad,"[""comma""]",0,[0.6743999999761741],118,0,118,0,1
,,,,,,,60128b0e0f9e1d2e9eaa9b53,,,,,,60128b0e0f9e1d2e9eaa9b53,Mężczyzna,20,2021-09-06_19h26.02.833,rantool2,2021.1.4,Win32,74.67702188,6135e006383e6ea6c3d06a28,61364f06f3b89e3fcb9a46ad,"[""comma""]",0,[1.0021000000238587],119,0,119,0,1
