key_resp_7.keys,key_resp_7.rt,trials_2.thisRepN,trials_2.thisTrialN,trials_2.thisN,trials_2.thisIndex,trials_2.ran,id,series_0,series_1,acss_0,acss_1,comparison,id*,Płeć*,Wiek*,date,expName,psychopyVersion,OS,frameRate,STUDY_ID,SESSION_ID,key_resp_5.keys,key_resp_5.corr,key_resp_5.rt,trials.thisRepN,trials.thisTrialN,trials.thisN,trials.thisIndex,trials.ran
f,2.13399,0,0,0,5,1,608bff7969659774244fac32,OOORORO,OOORORR,20.87963819,21.9921709,series_1,608bff7969659774244fac32,Kobieta,20,2021-09-06_19h28.06.315,rantool2,2021.1.4,Linux x86_64,59.21364282,6135e006383e6ea6c3d06a28,61364f1e227dc034fb0415c9,,,,,,,,
j,2.171825,0,1,1,51,1,608bff7969659774244fac32,RROORRO,RROORRR,21.89852628,22.02786418,series_1,608bff7969659774244fac32,Kobieta,20,2021-09-06_19h28.06.315,rantool2,2021.1.4,Linux x86_64,59.21364282,6135e006383e6ea6c3d06a28,61364f1e227dc034fb0415c9,,,,,,,,
f,1.114035,0,2,2,30,1,608bff7969659774244fac32,ORRRROO,ORRRROR,22.46748491,22.03072203,series_0,608bff7969659774244fac32,Kobieta,20,2021-09-06_19h28.06.315,rantool2,2021.1.4,Linux x86_64,59.21364282,6135e006383e6ea6c3d06a28,61364f1e227dc034fb0415c9,,,,,,,,
f,1.618305,0,3,3,48,1,608bff7969659774244fac32,RROOOOO,RROOOOR,20.90986523,22.15934078,series_1,608bff7969659774244fac32,Kobieta,20,2021-09-06_19h28.06.315,rantool2,2021.1.4,Linux x86_64,59.21364282,6135e006383e6ea6c3d06a28,61364f1e227dc034fb0415c9,,,,,,,,
j,1.648945,0,4,4,56,1,608bff7969659774244fac32,RRROOOO,RRROOOR,21.6194508,22.31681875,series_1,608bff7969659774244fac32,Kobieta,20,2021-09-06_19h28.06.315,rantool2,2021.1.4,Linux x86_64,59.21364282,6135e006383e6ea6c3d06a28,61364f1e227dc034fb0415c9,,,,,,,,
j,1.61849,0,5,5,29,1,608bff7969659774244fac32,ORRRORO,ORRRORR,22.00300695,22.12173012,series_1,608bff7969659774244fac32,Kobieta,20,2021-09-06_19h28.06.315,rantool2,2021.1.4,Linux x86_64,59.21364282,6135e006383e6ea6c3d06a28,61364f1e227dc034fb0415c9,,,,,,,,
f,2.38988,0,6,6,32,1,608bff7969659774244fac32,ROOOOOO,ROOOOOR,19.92253567,21.27974287,series_1,608bff7969659774244fac32,Kobieta,20,2021-09-06_19h28.06.315,rantool2,2021.1.4,Linux x86_64,59.21364282,6135e006383e6ea6c3d06a28,61364f1e227dc034fb0415c9,,,,,,,,
j,2.5323,0,7,7,28,1,608bff7969659774244fac32,ORRROOO,ORRROOR,22.24142883,22.53364006,series_1,608bff7969659774244fac32,Kobieta,20,2021-09-06_19h28.06.315,rantool2,2021.1.4,Linux x86_64,59.21364282,6135e006383e6ea6c3d06a28,61364f1e227dc034fb0415c9,,,,,,,,
j,1.215085,0,8,8,61,1,608bff7969659774244fac32,RRRRORO,RRRRORR,21.81333602,21.17347734,series_0,608bff7969659774244fac32,Kobieta,20,2021-09-06_19h28.06.315,rantool2,2021.1.4,Linux x86_64,59.21364282,6135e006383e6ea6c3d06a28,61364f1e227dc034fb0415c9,,,,,,,,
j,1.100575,0,9,9,60,1,608bff7969659774244fac32,RRRROOO,RRRROOR,22.10108823,22.15934078,series_1,608bff7969659774244fac32,Kobieta,20,2021-09-06_19h28.06.315,rantool2,2021.1.4,Linux x86_64,59.21364282,6135e006383e6ea6c3d06a28,61364f1e227dc034fb0415c9,,,,,,,,
f,1.061135,0,10,10,50,1,608bff7969659774244fac32,RROOROO,RROOROR,21.73568164,22.02566557,series_1,608bff7969659774244fac32,Kobieta,20,2021-09-06_19h28.06.315,rantool2,2021.1.4,Linux x86_64,59.21364282,6135e006383e6ea6c3d06a28,61364f1e227dc034fb0415c9,,,,,,,,
j,1.134785,0,11,11,46,1,608bff7969659774244fac32,RORRROO,RORRROR,22.00300695,21.24781509,series_0,608bff7969659774244fac32,Kobieta,20,2021-09-06_19h28.06.315,rantool2,2021.1.4,Linux x86_64,59.21364282,6135e006383e6ea6c3d06a28,61364f1e227dc034fb0415c9,,,,,,,,
j,1.17085,0,12,12,24,1,608bff7969659774244fac32,ORROOOO,ORROOOR,21.12383932,22.07102821,series_1,608bff7969659774244fac32,Kobieta,20,2021-09-06_19h28.06.315,rantool2,2021.1.4,Linux x86_64,59.21364282,6135e006383e6ea6c3d06a28,61364f1e227dc034fb0415c9,,,,,,,,
f,1.423365,0,13,13,27,1,608bff7969659774244fac32,ORRORRO,ORRORRR,21.55250791,22.2428857,series_1,608bff7969659774244fac32,Kobieta,20,2021-09-06_19h28.06.315,rantool2,2021.1.4,Linux x86_64,59.21364282,6135e006383e6ea6c3d06a28,61364f1e227dc034fb0415c9,,,,,,,,
f,1.82392,0,14,14,42,1,608bff7969659774244fac32,ROROROO,ROROROR,20.39515459,19.8361834,series_0,608bff7969659774244fac32,Kobieta,20,2021-09-06_19h28.06.315,rantool2,2021.1.4,Linux x86_64,59.21364282,6135e006383e6ea6c3d06a28,61364f1e227dc034fb0415c9,,,,,,,,
f,0.963745,0,15,15,33,1,608bff7969659774244fac32,ROOOORO,ROOOORR,20.83779602,22.03072203,series_1,608bff7969659774244fac32,Kobieta,20,2021-09-06_19h28.06.315,rantool2,2021.1.4,Linux x86_64,59.21364282,6135e006383e6ea6c3d06a28,61364f1e227dc034fb0415c9,,,,,,,,
j,1.556345,0,16,16,10,1,608bff7969659774244fac32,OOROROO,OOROROR,21.31236711,21.07490964,series_0,608bff7969659774244fac32,Kobieta,20,2021-09-06_19h28.06.315,rantool2,2021.1.4,Linux x86_64,59.21364282,6135e006383e6ea6c3d06a28,61364f1e227dc034fb0415c9,,,,,,,,
j,2.27121,0,17,17,14,1,608bff7969659774244fac32,OORRROO,OORRROR,22.24142883,22.16977179,series_0,608bff7969659774244fac32,Kobieta,20,2021-09-06_19h28.06.315,rantool2,2021.1.4,Linux x86_64,59.21364282,6135e006383e6ea6c3d06a28,61364f1e227dc034fb0415c9,,,,,,,,
j,1.651745,0,18,18,45,1,608bff7969659774244fac32,RORRORO,RORRORR,20.78182524,21.22513037,series_1,608bff7969659774244fac32,Kobieta,20,2021-09-06_19h28.06.315,rantool2,2021.1.4,Linux x86_64,59.21364282,6135e006383e6ea6c3d06a28,61364f1e227dc034fb0415c9,,,,,,,,
f,1.63803,0,19,19,8,1,608bff7969659774244fac32,OOROOOO,OOROOOR,19.91402015,20.89823192,series_1,608bff7969659774244fac32,Kobieta,20,2021-09-06_19h28.06.315,rantool2,2021.1.4,Linux x86_64,59.21364282,6135e006383e6ea6c3d06a28,61364f1e227dc034fb0415c9,,,,,,,,
j,1.391655,0,20,20,20,1,608bff7969659774244fac32,OROROOO,OROROOR,21.31236711,21.90565814,series_1,608bff7969659774244fac32,Kobieta,20,2021-09-06_19h28.06.315,rantool2,2021.1.4,Linux x86_64,59.21364282,6135e006383e6ea6c3d06a28,61364f1e227dc034fb0415c9,,,,,,,,
j,1.05364,0,21,21,13,1,608bff7969659774244fac32,OORRORO,OORRORR,21.66733484,22.11181017,series_1,608bff7969659774244fac32,Kobieta,20,2021-09-06_19h28.06.315,rantool2,2021.1.4,Linux x86_64,59.21364282,6135e006383e6ea6c3d06a28,61364f1e227dc034fb0415c9,,,,,,,,
f,1.5213,0,22,22,35,1,608bff7969659774244fac32,ROOORRO,ROOORRR,21.76276513,22.16977179,series_1,608bff7969659774244fac32,Kobieta,20,2021-09-06_19h28.06.315,rantool2,2021.1.4,Linux x86_64,59.21364282,6135e006383e6ea6c3d06a28,61364f1e227dc034fb0415c9,,,,,,,,
j,1.928015,0,23,23,17,1,608bff7969659774244fac32,OROOORO,OROOORR,21.03750787,22.12173012,series_1,608bff7969659774244fac32,Kobieta,20,2021-09-06_19h28.06.315,rantool2,2021.1.4,Linux x86_64,59.21364282,6135e006383e6ea6c3d06a28,61364f1e227dc034fb0415c9,,,,,,,,
j,1.96519,0,24,24,23,1,608bff7969659774244fac32,ORORRRO,ORORRRR,22.1285618,21.9921709,series_0,608bff7969659774244fac32,Kobieta,20,2021-09-06_19h28.06.315,rantool2,2021.1.4,Linux x86_64,59.21364282,6135e006383e6ea6c3d06a28,61364f1e227dc034fb0415c9,,,,,,,,
f,2.420125,0,25,25,16,1,608bff7969659774244fac32,OROOOOO,OROOOOR,20.43051175,21.17347734,series_1,608bff7969659774244fac32,Kobieta,20,2021-09-06_19h28.06.315,rantool2,2021.1.4,Linux x86_64,59.21364282,6135e006383e6ea6c3d06a28,61364f1e227dc034fb0415c9,,,,,,,,
j,2.13103,0,26,26,2,1,608bff7969659774244fac32,OOOOROO,OOOOROR,20.43051175,21.02936224,series_1,608bff7969659774244fac32,Kobieta,20,2021-09-06_19h28.06.315,rantool2,2021.1.4,Linux x86_64,59.21364282,6135e006383e6ea6c3d06a28,61364f1e227dc034fb0415c9,,,,,,,,
j,1.88482,0,27,27,38,1,608bff7969659774244fac32,ROORROO,ROORROR,21.79500819,21.36812781,series_0,608bff7969659774244fac32,Kobieta,20,2021-09-06_19h28.06.315,rantool2,2021.1.4,Linux x86_64,59.21364282,6135e006383e6ea6c3d06a28,61364f1e227dc034fb0415c9,,,,,,,,
f,1.45382,0,28,28,49,1,608bff7969659774244fac32,RROOORO,RROOORR,21.76276513,22.53364006,series_1,608bff7969659774244fac32,Kobieta,20,2021-09-06_19h28.06.315,rantool2,2021.1.4,Linux x86_64,59.21364282,6135e006383e6ea6c3d06a28,61364f1e227dc034fb0415c9,,,,,,,,
j,1.816155,0,29,29,26,1,608bff7969659774244fac32,ORROROO,ORROROR,22.02732763,21.71443381,series_0,608bff7969659774244fac32,Kobieta,20,2021-09-06_19h28.06.315,rantool2,2021.1.4,Linux x86_64,59.21364282,6135e006383e6ea6c3d06a28,61364f1e227dc034fb0415c9,,,,,,,,
j,2.484315,0,30,30,6,1,608bff7969659774244fac32,OOORROO,OOORROR,21.12383932,21.38562617,series_1,608bff7969659774244fac32,Kobieta,20,2021-09-06_19h28.06.315,rantool2,2021.1.4,Linux x86_64,59.21364282,6135e006383e6ea6c3d06a28,61364f1e227dc034fb0415c9,,,,,,,,
j,2.618035,0,31,31,11,1,608bff7969659774244fac32,OORORRO,OORORRR,22.18365867,22.6797523,series_1,608bff7969659774244fac32,Kobieta,20,2021-09-06_19h28.06.315,rantool2,2021.1.4,Linux x86_64,59.21364282,6135e006383e6ea6c3d06a28,61364f1e227dc034fb0415c9,,,,,,,,
f,0.820115,0,32,32,40,1,608bff7969659774244fac32,ROROOOO,ROROOOR,20.87963819,21.37121559,series_1,608bff7969659774244fac32,Kobieta,20,2021-09-06_19h28.06.315,rantool2,2021.1.4,Linux x86_64,59.21364282,6135e006383e6ea6c3d06a28,61364f1e227dc034fb0415c9,,,,,,,,
f,1.102155,0,33,33,4,1,608bff7969659774244fac32,OOOROOO,OOOROOR,19.91402015,21.21223021,series_1,608bff7969659774244fac32,Kobieta,20,2021-09-06_19h28.06.315,rantool2,2021.1.4,Linux x86_64,59.21364282,6135e006383e6ea6c3d06a28,61364f1e227dc034fb0415c9,,,,,,,,
j,0.982365,0,34,34,31,1,608bff7969659774244fac32,ORRRRRO,ORRRRRR,22.16413392,20.74050628,series_0,608bff7969659774244fac32,Kobieta,20,2021-09-06_19h28.06.315,rantool2,2021.1.4,Linux x86_64,59.21364282,6135e006383e6ea6c3d06a28,61364f1e227dc034fb0415c9,,,,,,,,
j,1.53565,0,35,35,19,1,608bff7969659774244fac32,OROORRO,OROORRR,21.73568164,22.11181017,series_1,608bff7969659774244fac32,Kobieta,20,2021-09-06_19h28.06.315,rantool2,2021.1.4,Linux x86_64,59.21364282,6135e006383e6ea6c3d06a28,61364f1e227dc034fb0415c9,,,,,,,,
f,1.08239,0,36,36,43,1,608bff7969659774244fac32,RORORRO,RORORRR,20.71309134,21.07490964,series_1,608bff7969659774244fac32,Kobieta,20,2021-09-06_19h28.06.315,rantool2,2021.1.4,Linux x86_64,59.21364282,6135e006383e6ea6c3d06a28,61364f1e227dc034fb0415c9,,,,,,,,
j,1.65489,0,37,37,59,1,608bff7969659774244fac32,RRRORRO,RRRORRR,21.56657303,20.89823192,series_0,608bff7969659774244fac32,Kobieta,20,2021-09-06_19h28.06.315,rantool2,2021.1.4,Linux x86_64,59.21364282,6135e006383e6ea6c3d06a28,61364f1e227dc034fb0415c9,,,,,,,,
f,1.721075,0,38,38,44,1,608bff7969659774244fac32,RORROOO,RORROOR,21.66733484,22.02566557,series_1,608bff7969659774244fac32,Kobieta,20,2021-09-06_19h28.06.315,rantool2,2021.1.4,Linux x86_64,59.21364282,6135e006383e6ea6c3d06a28,61364f1e227dc034fb0415c9,,,,,,,,
f,1.48896,0,39,39,52,1,608bff7969659774244fac32,RROROOO,RROROOR,22.18365867,22.11097995,series_0,608bff7969659774244fac32,Kobieta,20,2021-09-06_19h28.06.315,rantool2,2021.1.4,Linux x86_64,59.21364282,6135e006383e6ea6c3d06a28,61364f1e227dc034fb0415c9,,,,,,,,
f,2.28398,0,40,40,21,1,608bff7969659774244fac32,ORORORO,ORORORR,20.39515459,22.06781359,series_1,608bff7969659774244fac32,Kobieta,20,2021-09-06_19h28.06.315,rantool2,2021.1.4,Linux x86_64,59.21364282,6135e006383e6ea6c3d06a28,61364f1e227dc034fb0415c9,,,,,,,,
f,1.7646,0,41,41,36,1,608bff7969659774244fac32,ROOROOO,ROOROOR,21.07991943,20.9984461,series_0,608bff7969659774244fac32,Kobieta,20,2021-09-06_19h28.06.315,rantool2,2021.1.4,Linux x86_64,59.21364282,6135e006383e6ea6c3d06a28,61364f1e227dc034fb0415c9,,,,,,,,
f,0.98609,0,42,42,1,1,608bff7969659774244fac32,OOOOORO,OOOOORR,19.92253567,20.74050628,series_1,608bff7969659774244fac32,Kobieta,20,2021-09-06_19h28.06.315,rantool2,2021.1.4,Linux x86_64,59.21364282,6135e006383e6ea6c3d06a28,61364f1e227dc034fb0415c9,,,,,,,,
j,0.72037,0,43,43,47,1,608bff7969659774244fac32,RORRRRO,RORRRRR,21.81333602,21.02936224,series_0,608bff7969659774244fac32,Kobieta,20,2021-09-06_19h28.06.315,rantool2,2021.1.4,Linux x86_64,59.21364282,6135e006383e6ea6c3d06a28,61364f1e227dc034fb0415c9,,,,,,,,
j,0.69203,0,44,44,62,1,608bff7969659774244fac32,RRRRROO,RRRRROR,22.16413392,21.27974287,series_0,608bff7969659774244fac32,Kobieta,20,2021-09-06_19h28.06.315,rantool2,2021.1.4,Linux x86_64,59.21364282,6135e006383e6ea6c3d06a28,61364f1e227dc034fb0415c9,,,,,,,,
j,1.037695,0,45,45,53,1,608bff7969659774244fac32,RRORORO,RRORORR,20.71309134,21.90565814,series_1,608bff7969659774244fac32,Kobieta,20,2021-09-06_19h28.06.315,rantool2,2021.1.4,Linux x86_64,59.21364282,6135e006383e6ea6c3d06a28,61364f1e227dc034fb0415c9,,,,,,,,
f,0.768125,0,46,46,3,1,608bff7969659774244fac32,OOOORRO,OOOORRR,20.90986523,21.74922619,series_1,608bff7969659774244fac32,Kobieta,20,2021-09-06_19h28.06.315,rantool2,2021.1.4,Linux x86_64,59.21364282,6135e006383e6ea6c3d06a28,61364f1e227dc034fb0415c9,,,,,,,,
j,0.90272,0,47,47,39,1,608bff7969659774244fac32,ROORRRO,ROORRRR,21.82425538,21.38562617,series_0,608bff7969659774244fac32,Kobieta,20,2021-09-06_19h28.06.315,rantool2,2021.1.4,Linux x86_64,59.21364282,6135e006383e6ea6c3d06a28,61364f1e227dc034fb0415c9,,,,,,,,
j,0.565545,0,48,48,63,1,608bff7969659774244fac32,RRRRRRO,RRRRRRR,21.35278725,19.62521613,series_0,608bff7969659774244fac32,Kobieta,20,2021-09-06_19h28.06.315,rantool2,2021.1.4,Linux x86_64,59.21364282,6135e006383e6ea6c3d06a28,61364f1e227dc034fb0415c9,,,,,,,,
j,1.029825,0,49,49,25,1,608bff7969659774244fac32,ORROORO,ORROORR,21.79500819,22.61624387,series_1,608bff7969659774244fac32,Kobieta,20,2021-09-06_19h28.06.315,rantool2,2021.1.4,Linux x86_64,59.21364282,6135e006383e6ea6c3d06a28,61364f1e227dc034fb0415c9,,,,,,,,
j,0.86567,0,50,50,22,1,608bff7969659774244fac32,ORORROO,ORORROR,22.02732763,21.57657071,series_0,608bff7969659774244fac32,Kobieta,20,2021-09-06_19h28.06.315,rantool2,2021.1.4,Linux x86_64,59.21364282,6135e006383e6ea6c3d06a28,61364f1e227dc034fb0415c9,,,,,,,,
f,0.721865,0,51,51,0,1,608bff7969659774244fac32,OOOOOOO,OOOOOOR,18.52739004,19.62521613,series_1,608bff7969659774244fac32,Kobieta,20,2021-09-06_19h28.06.315,rantool2,2021.1.4,Linux x86_64,59.21364282,6135e006383e6ea6c3d06a28,61364f1e227dc034fb0415c9,,,,,,,,
j,0.96268,0,52,52,58,1,608bff7969659774244fac32,RRROROO,RRROROR,22.1285618,21.37121559,series_0,608bff7969659774244fac32,Kobieta,20,2021-09-06_19h28.06.315,rantool2,2021.1.4,Linux x86_64,59.21364282,6135e006383e6ea6c3d06a28,61364f1e227dc034fb0415c9,,,,,,,,
f,1.040705,0,53,53,41,1,608bff7969659774244fac32,ROROORO,ROROORR,20.42602454,21.71443381,series_1,608bff7969659774244fac32,Kobieta,20,2021-09-06_19h28.06.315,rantool2,2021.1.4,Linux x86_64,59.21364282,6135e006383e6ea6c3d06a28,61364f1e227dc034fb0415c9,,,,,,,,
f,1.17773,0,54,54,7,1,608bff7969659774244fac32,OOORRRO,OOORRRR,21.6194508,21.899017,series_1,608bff7969659774244fac32,Kobieta,20,2021-09-06_19h28.06.315,rantool2,2021.1.4,Linux x86_64,59.21364282,6135e006383e6ea6c3d06a28,61364f1e227dc034fb0415c9,,,,,,,,
j,1.34974,0,55,55,37,1,608bff7969659774244fac32,ROORORO,ROORORR,20.42602454,21.57657071,series_1,608bff7969659774244fac32,Kobieta,20,2021-09-06_19h28.06.315,rantool2,2021.1.4,Linux x86_64,59.21364282,6135e006383e6ea6c3d06a28,61364f1e227dc034fb0415c9,,,,,,,,
f,1.66643,0,56,56,18,1,608bff7969659774244fac32,OROOROO,OROOROR,20.84860893,21.22513037,series_1,608bff7969659774244fac32,Kobieta,20,2021-09-06_19h28.06.315,rantool2,2021.1.4,Linux x86_64,59.21364282,6135e006383e6ea6c3d06a28,61364f1e227dc034fb0415c9,,,,,,,,
j,1.267925,0,57,57,54,1,608bff7969659774244fac32,RRORROO,RRORROR,21.55250791,20.9984461,series_0,608bff7969659774244fac32,Kobieta,20,2021-09-06_19h28.06.315,rantool2,2021.1.4,Linux x86_64,59.21364282,6135e006383e6ea6c3d06a28,61364f1e227dc034fb0415c9,,,,,,,,
f,1.1538,0,58,58,34,1,608bff7969659774244fac32,ROOOROO,ROOOROR,21.03750787,21.24781509,series_1,608bff7969659774244fac32,Kobieta,20,2021-09-06_19h28.06.315,rantool2,2021.1.4,Linux x86_64,59.21364282,6135e006383e6ea6c3d06a28,61364f1e227dc034fb0415c9,,,,,,,,
j,1.354075,0,59,59,55,1,608bff7969659774244fac32,RRORRRO,RRORRRR,21.56657303,21.21223021,series_0,608bff7969659774244fac32,Kobieta,20,2021-09-06_19h28.06.315,rantool2,2021.1.4,Linux x86_64,59.21364282,6135e006383e6ea6c3d06a28,61364f1e227dc034fb0415c9,,,,,,,,
j,1.0653,0,60,60,12,1,608bff7969659774244fac32,OORROOO,OORROOR,21.30250474,22.02786418,series_1,608bff7969659774244fac32,Kobieta,20,2021-09-06_19h28.06.315,rantool2,2021.1.4,Linux x86_64,59.21364282,6135e006383e6ea6c3d06a28,61364f1e227dc034fb0415c9,,,,,,,,
f,0.96688,0,61,61,9,1,608bff7969659774244fac32,OOROORO,OOROORR,21.07991943,22.2428857,series_1,608bff7969659774244fac32,Kobieta,20,2021-09-06_19h28.06.315,rantool2,2021.1.4,Linux x86_64,59.21364282,6135e006383e6ea6c3d06a28,61364f1e227dc034fb0415c9,,,,,,,,
f,1.43449,0,62,62,57,1,608bff7969659774244fac32,RRROORO,RRROORR,21.82425538,22.07102821,series_1,608bff7969659774244fac32,Kobieta,20,2021-09-06_19h28.06.315,rantool2,2021.1.4,Linux x86_64,59.21364282,6135e006383e6ea6c3d06a28,61364f1e227dc034fb0415c9,,,,,,,,
j,2.092215,0,63,63,15,1,608bff7969659774244fac32,OORRRRO,OORRRRR,22.10108823,21.74922619,series_0,608bff7969659774244fac32,Kobieta,20,2021-09-06_19h28.06.315,rantool2,2021.1.4,Linux x86_64,59.21364282,6135e006383e6ea6c3d06a28,61364f1e227dc034fb0415c9,,,,,,,,
,,,,,,,608bff7969659774244fac32,,,,,,608bff7969659774244fac32,Kobieta,20,2021-09-06_19h28.06.315,rantool2,2021.1.4,Linux x86_64,59.21364282,6135e006383e6ea6c3d06a28,61364f1e227dc034fb0415c9,"[""comma""]",0,[1.8634950000000003],0,0,0,0,1
,,,,,,,608bff7969659774244fac32,,,,,,608bff7969659774244fac32,Kobieta,20,2021-09-06_19h28.06.315,rantool2,2021.1.4,Linux x86_64,59.21364282,6135e006383e6ea6c3d06a28,61364f1e227dc034fb0415c9,"[""period""]",0,[1.195069999999987],1,0,1,0,1
,,,,,,,608bff7969659774244fac32,,,,,,608bff7969659774244fac32,Kobieta,20,2021-09-06_19h28.06.315,rantool2,2021.1.4,Linux x86_64,59.21364282,6135e006383e6ea6c3d06a28,61364f1e227dc034fb0415c9,"[""comma""]",0,[0.35246000000000777],2,0,2,0,1
,,,,,,,608bff7969659774244fac32,,,,,,608bff7969659774244fac32,Kobieta,20,2021-09-06_19h28.06.315,rantool2,2021.1.4,Linux x86_64,59.21364282,6135e006383e6ea6c3d06a28,61364f1e227dc034fb0415c9,"[""period""]",0,[0.3776699999999664],3,0,3,0,1
,,,,,,,608bff7969659774244fac32,,,,,,608bff7969659774244fac32,Kobieta,20,2021-09-06_19h28.06.315,rantool2,2021.1.4,Linux x86_64,59.21364282,6135e006383e6ea6c3d06a28,61364f1e227dc034fb0415c9,"[""period""]",0,[0.4372549999999933],4,0,4,0,1
,,,,,,,608bff7969659774244fac32,,,,,,608bff7969659774244fac32,Kobieta,20,2021-09-06_19h28.06.315,rantool2,2021.1.4,Linux x86_64,59.21364282,6135e006383e6ea6c3d06a28,61364f1e227dc034fb0415c9,"[""comma""]",0,[0.36566500000003543],5,0,5,0,1
,,,,,,,608bff7969659774244fac32,,,,,,608bff7969659774244fac32,Kobieta,20,2021-09-06_19h28.06.315,rantool2,2021.1.4,Linux x86_64,59.21364282,6135e006383e6ea6c3d06a28,61364f1e227dc034fb0415c9,"[""period""]",0,[0.36803999999995085],6,0,6,0,1
,,,,,,,608bff7969659774244fac32,,,,,,608bff7969659774244fac32,Kobieta,20,2021-09-06_19h28.06.315,rantool2,2021.1.4,Linux x86_64,59.21364282,6135e006383e6ea6c3d06a28,61364f1e227dc034fb0415c9,"[""comma""]",0,[0.3256549999999834],7,0,7,0,1
,,,,,,,608bff7969659774244fac32,,,,,,608bff7969659774244fac32,Kobieta,20,2021-09-06_19h28.06.315,rantool2,2021.1.4,Linux x86_64,59.21364282,6135e006383e6ea6c3d06a28,61364f1e227dc034fb0415c9,"[""comma""]",0,[0.45430499999997664],8,0,8,0,1
,,,,,,,608bff7969659774244fac32,,,,,,608bff7969659774244fac32,Kobieta,20,2021-09-06_19h28.06.315,rantool2,2021.1.4,Linux x86_64,59.21364282,6135e006383e6ea6c3d06a28,61364f1e227dc034fb0415c9,"[""period""]",0,[0.3281949999999938],9,0,9,0,1
,,,,,,,608bff7969659774244fac32,,,,,,608bff7969659774244fac32,Kobieta,20,2021-09-06_19h28.06.315,rantool2,2021.1.4,Linux x86_64,59.21364282,6135e006383e6ea6c3d06a28,61364f1e227dc034fb0415c9,"[""comma""]",0,[0.3507549999999924],10,0,10,0,1
,,,,,,,608bff7969659774244fac32,,,,,,608bff7969659774244fac32,Kobieta,20,2021-09-06_19h28.06.315,rantool2,2021.1.4,Linux x86_64,59.21364282,6135e006383e6ea6c3d06a28,61364f1e227dc034fb0415c9,"[""comma""]",0,[0.36813000000000784],11,0,11,0,1
,,,,,,,608bff7969659774244fac32,,,,,,608bff7969659774244fac32,Kobieta,20,2021-09-06_19h28.06.315,rantool2,2021.1.4,Linux x86_64,59.21364282,6135e006383e6ea6c3d06a28,61364f1e227dc034fb0415c9,"[""period""]",0,[0.26600500000000693],12,0,12,0,1
,,,,,,,608bff7969659774244fac32,,,,,,608bff7969659774244fac32,Kobieta,20,2021-09-06_19h28.06.315,rantool2,2021.1.4,Linux x86_64,59.21364282,6135e006383e6ea6c3d06a28,61364f1e227dc034fb0415c9,"[""period""]",0,[0.28950500000001966],13,0,13,0,1
,,,,,,,608bff7969659774244fac32,,,,,,608bff7969659774244fac32,Kobieta,20,2021-09-06_19h28.06.315,rantool2,2021.1.4,Linux x86_64,59.21364282,6135e006383e6ea6c3d06a28,61364f1e227dc034fb0415c9,"[""period""]",0,[0.2973299999999881],14,0,14,0,1
,,,,,,,608bff7969659774244fac32,,,,,,608bff7969659774244fac32,Kobieta,20,2021-09-06_19h28.06.315,rantool2,2021.1.4,Linux x86_64,59.21364282,6135e006383e6ea6c3d06a28,61364f1e227dc034fb0415c9,"[""comma""]",0,[0.35199999999997544],15,0,15,0,1
,,,,,,,608bff7969659774244fac32,,,,,,608bff7969659774244fac32,Kobieta,20,2021-09-06_19h28.06.315,rantool2,2021.1.4,Linux x86_64,59.21364282,6135e006383e6ea6c3d06a28,61364f1e227dc034fb0415c9,"[""period""]",0,[0.3024849999999901],16,0,16,0,1
,,,,,,,608bff7969659774244fac32,,,,,,608bff7969659774244fac32,Kobieta,20,2021-09-06_19h28.06.315,rantool2,2021.1.4,Linux x86_64,59.21364282,6135e006383e6ea6c3d06a28,61364f1e227dc034fb0415c9,"[""comma""]",0,[0.2660600000000386],17,0,17,0,1
,,,,,,,608bff7969659774244fac32,,,,,,608bff7969659774244fac32,Kobieta,20,2021-09-06_19h28.06.315,rantool2,2021.1.4,Linux x86_64,59.21364282,6135e006383e6ea6c3d06a28,61364f1e227dc034fb0415c9,"[""comma""]",0,[0.45327499999996235],18,0,18,0,1
,,,,,,,608bff7969659774244fac32,,,,,,608bff7969659774244fac32,Kobieta,20,2021-09-06_19h28.06.315,rantool2,2021.1.4,Linux x86_64,59.21364282,6135e006383e6ea6c3d06a28,61364f1e227dc034fb0415c9,"[""comma""]",0,[0.38482999999996537],19,0,19,0,1
,,,,,,,608bff7969659774244fac32,,,,,,608bff7969659774244fac32,Kobieta,20,2021-09-06_19h28.06.315,rantool2,2021.1.4,Linux x86_64,59.21364282,6135e006383e6ea6c3d06a28,61364f1e227dc034fb0415c9,"[""period""]",0,[0.28007500000001073],20,0,20,0,1
,,,,,,,608bff7969659774244fac32,,,,,,608bff7969659774244fac32,Kobieta,20,2021-09-06_19h28.06.315,rantool2,2021.1.4,Linux x86_64,59.21364282,6135e006383e6ea6c3d06a28,61364f1e227dc034fb0415c9,"[""period""]",0,[0.33202999999997473],21,0,21,0,1
,,,,,,,608bff7969659774244fac32,,,,,,608bff7969659774244fac32,Kobieta,20,2021-09-06_19h28.06.315,rantool2,2021.1.4,Linux x86_64,59.21364282,6135e006383e6ea6c3d06a28,61364f1e227dc034fb0415c9,"[""comma""]",0,[0.39926500000001397],22,0,22,0,1
,,,,,,,608bff7969659774244fac32,,,,,,608bff7969659774244fac32,Kobieta,20,2021-09-06_19h28.06.315,rantool2,2021.1.4,Linux x86_64,59.21364282,6135e006383e6ea6c3d06a28,61364f1e227dc034fb0415c9,"[""comma""]",0,[0.3332099999999514],23,0,23,0,1
,,,,,,,608bff7969659774244fac32,,,,,,608bff7969659774244fac32,Kobieta,20,2021-09-06_19h28.06.315,rantool2,2021.1.4,Linux x86_64,59.21364282,6135e006383e6ea6c3d06a28,61364f1e227dc034fb0415c9,"[""comma""]",0,[0.35253000000000156],24,0,24,0,1
,,,,,,,608bff7969659774244fac32,,,,,,608bff7969659774244fac32,Kobieta,20,2021-09-06_19h28.06.315,rantool2,2021.1.4,Linux x86_64,59.21364282,6135e006383e6ea6c3d06a28,61364f1e227dc034fb0415c9,"[""comma""]",0,[0.33478999999999814],25,0,25,0,1
,,,,,,,608bff7969659774244fac32,,,,,,608bff7969659774244fac32,Kobieta,20,2021-09-06_19h28.06.315,rantool2,2021.1.4,Linux x86_64,59.21364282,6135e006383e6ea6c3d06a28,61364f1e227dc034fb0415c9,"[""comma"",""period""]",0,"[0.3512099999999805,1.899675000000002]",26,0,26,0,1
,,,,,,,608bff7969659774244fac32,,,,,,608bff7969659774244fac32,Kobieta,20,2021-09-06_19h28.06.315,rantool2,2021.1.4,Linux x86_64,59.21364282,6135e006383e6ea6c3d06a28,61364f1e227dc034fb0415c9,"[""period""]",0,[0.619070000000022],27,0,27,0,1
,,,,,,,608bff7969659774244fac32,,,,,,608bff7969659774244fac32,Kobieta,20,2021-09-06_19h28.06.315,rantool2,2021.1.4,Linux x86_64,59.21364282,6135e006383e6ea6c3d06a28,61364f1e227dc034fb0415c9,"[""period""]",0,[0.3199900000000184],28,0,28,0,1
,,,,,,,608bff7969659774244fac32,,,,,,608bff7969659774244fac32,Kobieta,20,2021-09-06_19h28.06.315,rantool2,2021.1.4,Linux x86_64,59.21364282,6135e006383e6ea6c3d06a28,61364f1e227dc034fb0415c9,"[""comma""]",0,[0.4851550000000202],29,0,29,0,1
,,,,,,,608bff7969659774244fac32,,,,,,608bff7969659774244fac32,Kobieta,20,2021-09-06_19h28.06.315,rantool2,2021.1.4,Linux x86_64,59.21364282,6135e006383e6ea6c3d06a28,61364f1e227dc034fb0415c9,"[""comma""]",0,[0.3963600000000156],30,0,30,0,1
,,,,,,,608bff7969659774244fac32,,,,,,608bff7969659774244fac32,Kobieta,20,2021-09-06_19h28.06.315,rantool2,2021.1.4,Linux x86_64,59.21364282,6135e006383e6ea6c3d06a28,61364f1e227dc034fb0415c9,"[""period""]",0,[0.3504599999999982],31,0,31,0,1
,,,,,,,608bff7969659774244fac32,,,,,,608bff7969659774244fac32,Kobieta,20,2021-09-06_19h28.06.315,rantool2,2021.1.4,Linux x86_64,59.21364282,6135e006383e6ea6c3d06a28,61364f1e227dc034fb0415c9,"[""period""]",0,[0.2683249999999475],32,0,32,0,1
,,,,,,,608bff7969659774244fac32,,,,,,608bff7969659774244fac32,Kobieta,20,2021-09-06_19h28.06.315,rantool2,2021.1.4,Linux x86_64,59.21364282,6135e006383e6ea6c3d06a28,61364f1e227dc034fb0415c9,"[""period""]",0,[0.3213999999999828],33,0,33,0,1
,,,,,,,608bff7969659774244fac32,,,,,,608bff7969659774244fac32,Kobieta,20,2021-09-06_19h28.06.315,rantool2,2021.1.4,Linux x86_64,59.21364282,6135e006383e6ea6c3d06a28,61364f1e227dc034fb0415c9,"[""period""]",0,[0.31572499999998627],34,0,34,0,1
,,,,,,,608bff7969659774244fac32,,,,,,608bff7969659774244fac32,Kobieta,20,2021-09-06_19h28.06.315,rantool2,2021.1.4,Linux x86_64,59.21364282,6135e006383e6ea6c3d06a28,61364f1e227dc034fb0415c9,"[""comma""]",0,[0.3712150000000065],35,0,35,0,1
,,,,,,,608bff7969659774244fac32,,,,,,608bff7969659774244fac32,Kobieta,20,2021-09-06_19h28.06.315,rantool2,2021.1.4,Linux x86_64,59.21364282,6135e006383e6ea6c3d06a28,61364f1e227dc034fb0415c9,"[""comma""]",0,[0.4510450000000219],36,0,36,0,1
,,,,,,,608bff7969659774244fac32,,,,,,608bff7969659774244fac32,Kobieta,20,2021-09-06_19h28.06.315,rantool2,2021.1.4,Linux x86_64,59.21364282,6135e006383e6ea6c3d06a28,61364f1e227dc034fb0415c9,"[""period""]",0,[0.3680050000000392],37,0,37,0,1
,,,,,,,608bff7969659774244fac32,,,,,,608bff7969659774244fac32,Kobieta,20,2021-09-06_19h28.06.315,rantool2,2021.1.4,Linux x86_64,59.21364282,6135e006383e6ea6c3d06a28,61364f1e227dc034fb0415c9,"[""period""]",0,[0.5307000000000244],38,0,38,0,1
,,,,,,,608bff7969659774244fac32,,,,,,608bff7969659774244fac32,Kobieta,20,2021-09-06_19h28.06.315,rantool2,2021.1.4,Linux x86_64,59.21364282,6135e006383e6ea6c3d06a28,61364f1e227dc034fb0415c9,"[""comma""]",0,[0.4842949999999746],39,0,39,0,1
,,,,,,,608bff7969659774244fac32,,,,,,608bff7969659774244fac32,Kobieta,20,2021-09-06_19h28.06.315,rantool2,2021.1.4,Linux x86_64,59.21364282,6135e006383e6ea6c3d06a28,61364f1e227dc034fb0415c9,"[""comma""]",0,[0.4542149999999765],40,0,40,0,1
,,,,,,,608bff7969659774244fac32,,,,,,608bff7969659774244fac32,Kobieta,20,2021-09-06_19h28.06.315,rantool2,2021.1.4,Linux x86_64,59.21364282,6135e006383e6ea6c3d06a28,61364f1e227dc034fb0415c9,"[""comma""]",0,[0.297869999999989],41,0,41,0,1
,,,,,,,608bff7969659774244fac32,,,,,,608bff7969659774244fac32,Kobieta,20,2021-09-06_19h28.06.315,rantool2,2021.1.4,Linux x86_64,59.21364282,6135e006383e6ea6c3d06a28,61364f1e227dc034fb0415c9,"[""comma""]",0,[0.3020349999999894],42,0,42,0,1
,,,,,,,608bff7969659774244fac32,,,,,,608bff7969659774244fac32,Kobieta,20,2021-09-06_19h28.06.315,rantool2,2021.1.4,Linux x86_64,59.21364282,6135e006383e6ea6c3d06a28,61364f1e227dc034fb0415c9,"[""comma""]",0,[0.3662400000000048],43,0,43,0,1
,,,,,,,608bff7969659774244fac32,,,,,,608bff7969659774244fac32,Kobieta,20,2021-09-06_19h28.06.315,rantool2,2021.1.4,Linux x86_64,59.21364282,6135e006383e6ea6c3d06a28,61364f1e227dc034fb0415c9,"[""period""]",0,[0.31928999999996677],44,0,44,0,1
,,,,,,,608bff7969659774244fac32,,,,,,608bff7969659774244fac32,Kobieta,20,2021-09-06_19h28.06.315,rantool2,2021.1.4,Linux x86_64,59.21364282,6135e006383e6ea6c3d06a28,61364f1e227dc034fb0415c9,"[""period""]",0,[0.3986250000000382],45,0,45,0,1
,,,,,,,608bff7969659774244fac32,,,,,,608bff7969659774244fac32,Kobieta,20,2021-09-06_19h28.06.315,rantool2,2021.1.4,Linux x86_64,59.21364282,6135e006383e6ea6c3d06a28,61364f1e227dc034fb0415c9,"[""comma""]",0,[0.4158949999999777],46,0,46,0,1
,,,,,,,608bff7969659774244fac32,,,,,,608bff7969659774244fac32,Kobieta,20,2021-09-06_19h28.06.315,rantool2,2021.1.4,Linux x86_64,59.21364282,6135e006383e6ea6c3d06a28,61364f1e227dc034fb0415c9,"[""period""]",0,[0.3025149999999712],47,0,47,0,1
,,,,,,,608bff7969659774244fac32,,,,,,608bff7969659774244fac32,Kobieta,20,2021-09-06_19h28.06.315,rantool2,2021.1.4,Linux x86_64,59.21364282,6135e006383e6ea6c3d06a28,61364f1e227dc034fb0415c9,"[""comma""]",0,[0.35531999999994923],48,0,48,0,1
,,,,,,,608bff7969659774244fac32,,,,,,608bff7969659774244fac32,Kobieta,20,2021-09-06_19h28.06.315,rantool2,2021.1.4,Linux x86_64,59.21364282,6135e006383e6ea6c3d06a28,61364f1e227dc034fb0415c9,"[""period""]",0,[0.3187849999999912],49,0,49,0,1
,,,,,,,608bff7969659774244fac32,,,,,,608bff7969659774244fac32,Kobieta,20,2021-09-06_19h28.06.315,rantool2,2021.1.4,Linux x86_64,59.21364282,6135e006383e6ea6c3d06a28,61364f1e227dc034fb0415c9,"[""period""]",0,[0.2557450000000472],50,0,50,0,1
,,,,,,,608bff7969659774244fac32,,,,,,608bff7969659774244fac32,Kobieta,20,2021-09-06_19h28.06.315,rantool2,2021.1.4,Linux x86_64,59.21364282,6135e006383e6ea6c3d06a28,61364f1e227dc034fb0415c9,"[""period""]",0,[0.28537000000000035],51,0,51,0,1
,,,,,,,608bff7969659774244fac32,,,,,,608bff7969659774244fac32,Kobieta,20,2021-09-06_19h28.06.315,rantool2,2021.1.4,Linux x86_64,59.21364282,6135e006383e6ea6c3d06a28,61364f1e227dc034fb0415c9,"[""period""]",0,[0.3176250000000209],52,0,52,0,1
,,,,,,,608bff7969659774244fac32,,,,,,608bff7969659774244fac32,Kobieta,20,2021-09-06_19h28.06.315,rantool2,2021.1.4,Linux x86_64,59.21364282,6135e006383e6ea6c3d06a28,61364f1e227dc034fb0415c9,"[""period""]",0,[0.36727999999999383],53,0,53,0,1
,,,,,,,608bff7969659774244fac32,,,,,,608bff7969659774244fac32,Kobieta,20,2021-09-06_19h28.06.315,rantool2,2021.1.4,Linux x86_64,59.21364282,6135e006383e6ea6c3d06a28,61364f1e227dc034fb0415c9,"[""period""]",0,[0.2990199999999845],54,0,54,0,1
,,,,,,,608bff7969659774244fac32,,,,,,608bff7969659774244fac32,Kobieta,20,2021-09-06_19h28.06.315,rantool2,2021.1.4,Linux x86_64,59.21364282,6135e006383e6ea6c3d06a28,61364f1e227dc034fb0415c9,"[""comma""]",0,[0.31675999999998794],55,0,55,0,1
,,,,,,,608bff7969659774244fac32,,,,,,608bff7969659774244fac32,Kobieta,20,2021-09-06_19h28.06.315,rantool2,2021.1.4,Linux x86_64,59.21364282,6135e006383e6ea6c3d06a28,61364f1e227dc034fb0415c9,"[""comma""]",0,[0.28493499999996175],56,0,56,0,1
,,,,,,,608bff7969659774244fac32,,,,,,608bff7969659774244fac32,Kobieta,20,2021-09-06_19h28.06.315,rantool2,2021.1.4,Linux x86_64,59.21364282,6135e006383e6ea6c3d06a28,61364f1e227dc034fb0415c9,"[""comma""]",0,[0.26648499999998876],57,0,57,0,1
,,,,,,,608bff7969659774244fac32,,,,,,608bff7969659774244fac32,Kobieta,20,2021-09-06_19h28.06.315,rantool2,2021.1.4,Linux x86_64,59.21364282,6135e006383e6ea6c3d06a28,61364f1e227dc034fb0415c9,"[""period""]",0,[0.26797499999997854],58,0,58,0,1
,,,,,,,608bff7969659774244fac32,,,,,,608bff7969659774244fac32,Kobieta,20,2021-09-06_19h28.06.315,rantool2,2021.1.4,Linux x86_64,59.21364282,6135e006383e6ea6c3d06a28,61364f1e227dc034fb0415c9,"[""comma""]",0,[0.26436000000006743],59,0,59,0,1
,,,,,,,608bff7969659774244fac32,,,,,,608bff7969659774244fac32,Kobieta,20,2021-09-06_19h28.06.315,rantool2,2021.1.4,Linux x86_64,59.21364282,6135e006383e6ea6c3d06a28,61364f1e227dc034fb0415c9,"[""period""]",0,[0.23358999999999241],60,0,60,0,1
,,,,,,,608bff7969659774244fac32,,,,,,608bff7969659774244fac32,Kobieta,20,2021-09-06_19h28.06.315,rantool2,2021.1.4,Linux x86_64,59.21364282,6135e006383e6ea6c3d06a28,61364f1e227dc034fb0415c9,"[""comma""]",0,[0.27846499999998287],61,0,61,0,1
,,,,,,,608bff7969659774244fac32,,,,,,608bff7969659774244fac32,Kobieta,20,2021-09-06_19h28.06.315,rantool2,2021.1.4,Linux x86_64,59.21364282,6135e006383e6ea6c3d06a28,61364f1e227dc034fb0415c9,"[""period""]",0,[0.2702749999999696],62,0,62,0,1
,,,,,,,608bff7969659774244fac32,,,,,,608bff7969659774244fac32,Kobieta,20,2021-09-06_19h28.06.315,rantool2,2021.1.4,Linux x86_64,59.21364282,6135e006383e6ea6c3d06a28,61364f1e227dc034fb0415c9,"[""comma""]",0,[0.2704949999999826],63,0,63,0,1
,,,,,,,608bff7969659774244fac32,,,,,,608bff7969659774244fac32,Kobieta,20,2021-09-06_19h28.06.315,rantool2,2021.1.4,Linux x86_64,59.21364282,6135e006383e6ea6c3d06a28,61364f1e227dc034fb0415c9,"[""period""]",0,[0.24806999999998425],64,0,64,0,1
,,,,,,,608bff7969659774244fac32,,,,,,608bff7969659774244fac32,Kobieta,20,2021-09-06_19h28.06.315,rantool2,2021.1.4,Linux x86_64,59.21364282,6135e006383e6ea6c3d06a28,61364f1e227dc034fb0415c9,"[""comma""]",0,[0.3516199999999685],65,0,65,0,1
,,,,,,,608bff7969659774244fac32,,,,,,608bff7969659774244fac32,Kobieta,20,2021-09-06_19h28.06.315,rantool2,2021.1.4,Linux x86_64,59.21364282,6135e006383e6ea6c3d06a28,61364f1e227dc034fb0415c9,"[""period""]",0,[0.2964749999999867],66,0,66,0,1
,,,,,,,608bff7969659774244fac32,,,,,,608bff7969659774244fac32,Kobieta,20,2021-09-06_19h28.06.315,rantool2,2021.1.4,Linux x86_64,59.21364282,6135e006383e6ea6c3d06a28,61364f1e227dc034fb0415c9,"[""comma""]",0,[0.30320500000004813],67,0,67,0,1
,,,,,,,608bff7969659774244fac32,,,,,,608bff7969659774244fac32,Kobieta,20,2021-09-06_19h28.06.315,rantool2,2021.1.4,Linux x86_64,59.21364282,6135e006383e6ea6c3d06a28,61364f1e227dc034fb0415c9,"[""comma""]",0,[0.31541500000003],68,0,68,0,1
,,,,,,,608bff7969659774244fac32,,,,,,608bff7969659774244fac32,Kobieta,20,2021-09-06_19h28.06.315,rantool2,2021.1.4,Linux x86_64,59.21364282,6135e006383e6ea6c3d06a28,61364f1e227dc034fb0415c9,"[""comma""]",0,[0.31432499999999663],69,0,69,0,1
,,,,,,,608bff7969659774244fac32,,,,,,608bff7969659774244fac32,Kobieta,20,2021-09-06_19h28.06.315,rantool2,2021.1.4,Linux x86_64,59.21364282,6135e006383e6ea6c3d06a28,61364f1e227dc034fb0415c9,"[""period""]",0,[0.2857700000000136],70,0,70,0,1
,,,,,,,608bff7969659774244fac32,,,,,,608bff7969659774244fac32,Kobieta,20,2021-09-06_19h28.06.315,rantool2,2021.1.4,Linux x86_64,59.21364282,6135e006383e6ea6c3d06a28,61364f1e227dc034fb0415c9,"[""period""]",0,[0.2636150000000157],71,0,71,0,1
,,,,,,,608bff7969659774244fac32,,,,,,608bff7969659774244fac32,Kobieta,20,2021-09-06_19h28.06.315,rantool2,2021.1.4,Linux x86_64,59.21364282,6135e006383e6ea6c3d06a28,61364f1e227dc034fb0415c9,"[""period""]",0,[0.2970149999999876],72,0,72,0,1
,,,,,,,608bff7969659774244fac32,,,,,,608bff7969659774244fac32,Kobieta,20,2021-09-06_19h28.06.315,rantool2,2021.1.4,Linux x86_64,59.21364282,6135e006383e6ea6c3d06a28,61364f1e227dc034fb0415c9,"[""comma""]",0,[0.30379500000003645],73,0,73,0,1
,,,,,,,608bff7969659774244fac32,,,,,,608bff7969659774244fac32,Kobieta,20,2021-09-06_19h28.06.315,rantool2,2021.1.4,Linux x86_64,59.21364282,6135e006383e6ea6c3d06a28,61364f1e227dc034fb0415c9,"[""period""]",0,[0.3017449999999826],74,0,74,0,1
,,,,,,,608bff7969659774244fac32,,,,,,608bff7969659774244fac32,Kobieta,20,2021-09-06_19h28.06.315,rantool2,2021.1.4,Linux x86_64,59.21364282,6135e006383e6ea6c3d06a28,61364f1e227dc034fb0415c9,"[""comma""]",0,[0.3321950000000129],75,0,75,0,1
,,,,,,,608bff7969659774244fac32,,,,,,608bff7969659774244fac32,Kobieta,20,2021-09-06_19h28.06.315,rantool2,2021.1.4,Linux x86_64,59.21364282,6135e006383e6ea6c3d06a28,61364f1e227dc034fb0415c9,"[""period""]",0,[0.3818650000000048],76,0,76,0,1
,,,,,,,608bff7969659774244fac32,,,,,,608bff7969659774244fac32,Kobieta,20,2021-09-06_19h28.06.315,rantool2,2021.1.4,Linux x86_64,59.21364282,6135e006383e6ea6c3d06a28,61364f1e227dc034fb0415c9,"[""comma""]",0,[0.3522100000000137],77,0,77,0,1
,,,,,,,608bff7969659774244fac32,,,,,,608bff7969659774244fac32,Kobieta,20,2021-09-06_19h28.06.315,rantool2,2021.1.4,Linux x86_64,59.21364282,6135e006383e6ea6c3d06a28,61364f1e227dc034fb0415c9,"[""period""]",0,[0.27187000000003536],78,0,78,0,1
,,,,,,,608bff7969659774244fac32,,,,,,608bff7969659774244fac32,Kobieta,20,2021-09-06_19h28.06.315,rantool2,2021.1.4,Linux x86_64,59.21364282,6135e006383e6ea6c3d06a28,61364f1e227dc034fb0415c9,"[""comma""]",0,[0.2990649999999846],79,0,79,0,1
,,,,,,,608bff7969659774244fac32,,,,,,608bff7969659774244fac32,Kobieta,20,2021-09-06_19h28.06.315,rantool2,2021.1.4,Linux x86_64,59.21364282,6135e006383e6ea6c3d06a28,61364f1e227dc034fb0415c9,"[""period""]",0,[0.38867000000004737],80,0,80,0,1
,,,,,,,608bff7969659774244fac32,,,,,,608bff7969659774244fac32,Kobieta,20,2021-09-06_19h28.06.315,rantool2,2021.1.4,Linux x86_64,59.21364282,6135e006383e6ea6c3d06a28,61364f1e227dc034fb0415c9,"[""period""]",0,[0.27982000000002927],81,0,81,0,1
,,,,,,,608bff7969659774244fac32,,,,,,608bff7969659774244fac32,Kobieta,20,2021-09-06_19h28.06.315,rantool2,2021.1.4,Linux x86_64,59.21364282,6135e006383e6ea6c3d06a28,61364f1e227dc034fb0415c9,"[""period""]",0,[0.3680800000000204],82,0,82,0,1
,,,,,,,608bff7969659774244fac32,,,,,,608bff7969659774244fac32,Kobieta,20,2021-09-06_19h28.06.315,rantool2,2021.1.4,Linux x86_64,59.21364282,6135e006383e6ea6c3d06a28,61364f1e227dc034fb0415c9,"[""comma""]",0,[0.28280500000005304],83,0,83,0,1
,,,,,,,608bff7969659774244fac32,,,,,,608bff7969659774244fac32,Kobieta,20,2021-09-06_19h28.06.315,rantool2,2021.1.4,Linux x86_64,59.21364282,6135e006383e6ea6c3d06a28,61364f1e227dc034fb0415c9,"[""comma""]",0,[0.2510050000000206],84,0,84,0,1
,,,,,,,608bff7969659774244fac32,,,,,,608bff7969659774244fac32,Kobieta,20,2021-09-06_19h28.06.315,rantool2,2021.1.4,Linux x86_64,59.21364282,6135e006383e6ea6c3d06a28,61364f1e227dc034fb0415c9,"[""comma""]",0,[0.33469500000006747],85,0,85,0,1
,,,,,,,608bff7969659774244fac32,,,,,,608bff7969659774244fac32,Kobieta,20,2021-09-06_19h28.06.315,rantool2,2021.1.4,Linux x86_64,59.21364282,6135e006383e6ea6c3d06a28,61364f1e227dc034fb0415c9,"[""period""]",0,[0.3297950000000469],86,0,86,0,1
,,,,,,,608bff7969659774244fac32,,,,,,608bff7969659774244fac32,Kobieta,20,2021-09-06_19h28.06.315,rantool2,2021.1.4,Linux x86_64,59.21364282,6135e006383e6ea6c3d06a28,61364f1e227dc034fb0415c9,"[""comma""]",0,[0.3163750000000505],87,0,87,0,1
,,,,,,,608bff7969659774244fac32,,,,,,608bff7969659774244fac32,Kobieta,20,2021-09-06_19h28.06.315,rantool2,2021.1.4,Linux x86_64,59.21364282,6135e006383e6ea6c3d06a28,61364f1e227dc034fb0415c9,"[""period""]",0,[0.23385999999999285],88,0,88,0,1
,,,,,,,608bff7969659774244fac32,,,,,,608bff7969659774244fac32,Kobieta,20,2021-09-06_19h28.06.315,rantool2,2021.1.4,Linux x86_64,59.21364282,6135e006383e6ea6c3d06a28,61364f1e227dc034fb0415c9,"[""period""]",0,[0.2537900000000377],89,0,89,0,1
,,,,,,,608bff7969659774244fac32,,,,,,608bff7969659774244fac32,Kobieta,20,2021-09-06_19h28.06.315,rantool2,2021.1.4,Linux x86_64,59.21364282,6135e006383e6ea6c3d06a28,61364f1e227dc034fb0415c9,"[""period""]",0,[0.7202900000000341],90,0,90,0,1
,,,,,,,608bff7969659774244fac32,,,,,,608bff7969659774244fac32,Kobieta,20,2021-09-06_19h28.06.315,rantool2,2021.1.4,Linux x86_64,59.21364282,6135e006383e6ea6c3d06a28,61364f1e227dc034fb0415c9,"[""period""]",0,[0.4163899999999785],91,0,91,0,1
,,,,,,,608bff7969659774244fac32,,,,,,608bff7969659774244fac32,Kobieta,20,2021-09-06_19h28.06.315,rantool2,2021.1.4,Linux x86_64,59.21364282,6135e006383e6ea6c3d06a28,61364f1e227dc034fb0415c9,"[""comma""]",0,[0.3344200000000228],92,0,92,0,1
,,,,,,,608bff7969659774244fac32,,,,,,608bff7969659774244fac32,Kobieta,20,2021-09-06_19h28.06.315,rantool2,2021.1.4,Linux x86_64,59.21364282,6135e006383e6ea6c3d06a28,61364f1e227dc034fb0415c9,"[""comma""]",0,[0.24786000000000286],93,0,93,0,1
,,,,,,,608bff7969659774244fac32,,,,,,608bff7969659774244fac32,Kobieta,20,2021-09-06_19h28.06.315,rantool2,2021.1.4,Linux x86_64,59.21364282,6135e006383e6ea6c3d06a28,61364f1e227dc034fb0415c9,"[""period""]",0,[0.3372699999999895],94,0,94,0,1
,,,,,,,608bff7969659774244fac32,,,,,,608bff7969659774244fac32,Kobieta,20,2021-09-06_19h28.06.315,rantool2,2021.1.4,Linux x86_64,59.21364282,6135e006383e6ea6c3d06a28,61364f1e227dc034fb0415c9,"[""comma""]",0,[0.3198899999999867],95,0,95,0,1
,,,,,,,608bff7969659774244fac32,,,,,,608bff7969659774244fac32,Kobieta,20,2021-09-06_19h28.06.315,rantool2,2021.1.4,Linux x86_64,59.21364282,6135e006383e6ea6c3d06a28,61364f1e227dc034fb0415c9,"[""comma""]",0,[0.27480500000001484],96,0,96,0,1
,,,,,,,608bff7969659774244fac32,,,,,,608bff7969659774244fac32,Kobieta,20,2021-09-06_19h28.06.315,rantool2,2021.1.4,Linux x86_64,59.21364282,6135e006383e6ea6c3d06a28,61364f1e227dc034fb0415c9,"[""period""]",0,[0.2506499999999505],97,0,97,0,1
,,,,,,,608bff7969659774244fac32,,,,,,608bff7969659774244fac32,Kobieta,20,2021-09-06_19h28.06.315,rantool2,2021.1.4,Linux x86_64,59.21364282,6135e006383e6ea6c3d06a28,61364f1e227dc034fb0415c9,"[""period""]",0,[0.23554499999994505],98,0,98,0,1
,,,,,,,608bff7969659774244fac32,,,,,,608bff7969659774244fac32,Kobieta,20,2021-09-06_19h28.06.315,rantool2,2021.1.4,Linux x86_64,59.21364282,6135e006383e6ea6c3d06a28,61364f1e227dc034fb0415c9,"[""period""]",0,[0.24805499999996528],99,0,99,0,1
,,,,,,,608bff7969659774244fac32,,,,,,608bff7969659774244fac32,Kobieta,20,2021-09-06_19h28.06.315,rantool2,2021.1.4,Linux x86_64,59.21364282,6135e006383e6ea6c3d06a28,61364f1e227dc034fb0415c9,"[""period""]",0,[0.24978000000004386],100,0,100,0,1
,,,,,,,608bff7969659774244fac32,,,,,,608bff7969659774244fac32,Kobieta,20,2021-09-06_19h28.06.315,rantool2,2021.1.4,Linux x86_64,59.21364282,6135e006383e6ea6c3d06a28,61364f1e227dc034fb0415c9,"[""period""]",0,[0.23130000000003292],101,0,101,0,1
,,,,,,,608bff7969659774244fac32,,,,,,608bff7969659774244fac32,Kobieta,20,2021-09-06_19h28.06.315,rantool2,2021.1.4,Linux x86_64,59.21364282,6135e006383e6ea6c3d06a28,61364f1e227dc034fb0415c9,"[""period""]",0,[0.25300999999996066],102,0,102,0,1
,,,,,,,608bff7969659774244fac32,,,,,,608bff7969659774244fac32,Kobieta,20,2021-09-06_19h28.06.315,rantool2,2021.1.4,Linux x86_64,59.21364282,6135e006383e6ea6c3d06a28,61364f1e227dc034fb0415c9,"[""comma""]",0,[0.2559400000000096],103,0,103,0,1
,,,,,,,608bff7969659774244fac32,,,,,,608bff7969659774244fac32,Kobieta,20,2021-09-06_19h28.06.315,rantool2,2021.1.4,Linux x86_64,59.21364282,6135e006383e6ea6c3d06a28,61364f1e227dc034fb0415c9,"[""comma""]",0,[0.23876999999998816],104,0,104,0,1
,,,,,,,608bff7969659774244fac32,,,,,,608bff7969659774244fac32,Kobieta,20,2021-09-06_19h28.06.315,rantool2,2021.1.4,Linux x86_64,59.21364282,6135e006383e6ea6c3d06a28,61364f1e227dc034fb0415c9,"[""comma""]",0,[0.2675399999999968],105,0,105,0,1
,,,,,,,608bff7969659774244fac32,,,,,,608bff7969659774244fac32,Kobieta,20,2021-09-06_19h28.06.315,rantool2,2021.1.4,Linux x86_64,59.21364282,6135e006383e6ea6c3d06a28,61364f1e227dc034fb0415c9,"[""period""]",0,[0.23448999999999387],106,0,106,0,1
,,,,,,,608bff7969659774244fac32,,,,,,608bff7969659774244fac32,Kobieta,20,2021-09-06_19h28.06.315,rantool2,2021.1.4,Linux x86_64,59.21364282,6135e006383e6ea6c3d06a28,61364f1e227dc034fb0415c9,"[""comma""]",0,[0.252254999999991],107,0,107,0,1
,,,,,,,608bff7969659774244fac32,,,,,,608bff7969659774244fac32,Kobieta,20,2021-09-06_19h28.06.315,rantool2,2021.1.4,Linux x86_64,59.21364282,6135e006383e6ea6c3d06a28,61364f1e227dc034fb0415c9,"[""period""]",0,[0.25258499999995365],108,0,108,0,1
,,,,,,,608bff7969659774244fac32,,,,,,608bff7969659774244fac32,Kobieta,20,2021-09-06_19h28.06.315,rantool2,2021.1.4,Linux x86_64,59.21364282,6135e006383e6ea6c3d06a28,61364f1e227dc034fb0415c9,"[""period""]",0,[0.2858449999999948],109,0,109,0,1
,,,,,,,608bff7969659774244fac32,,,,,,608bff7969659774244fac32,Kobieta,20,2021-09-06_19h28.06.315,rantool2,2021.1.4,Linux x86_64,59.21364282,6135e006383e6ea6c3d06a28,61364f1e227dc034fb0415c9,"[""period""]",0,[0.24503499999991618],110,0,110,0,1
,,,,,,,608bff7969659774244fac32,,,,,,608bff7969659774244fac32,Kobieta,20,2021-09-06_19h28.06.315,rantool2,2021.1.4,Linux x86_64,59.21364282,6135e006383e6ea6c3d06a28,61364f1e227dc034fb0415c9,"[""period""]",0,[0.34853499999996984],111,0,111,0,1
,,,,,,,608bff7969659774244fac32,,,,,,608bff7969659774244fac32,Kobieta,20,2021-09-06_19h28.06.315,rantool2,2021.1.4,Linux x86_64,59.21364282,6135e006383e6ea6c3d06a28,61364f1e227dc034fb0415c9,"[""period""]",0,[0.3352050000000304],112,0,112,0,1
,,,,,,,608bff7969659774244fac32,,,,,,608bff7969659774244fac32,Kobieta,20,2021-09-06_19h28.06.315,rantool2,2021.1.4,Linux x86_64,59.21364282,6135e006383e6ea6c3d06a28,61364f1e227dc034fb0415c9,"[""comma""]",0,[0.2815100000000257],113,0,113,0,1
,,,,,,,608bff7969659774244fac32,,,,,,608bff7969659774244fac32,Kobieta,20,2021-09-06_19h28.06.315,rantool2,2021.1.4,Linux x86_64,59.21364282,6135e006383e6ea6c3d06a28,61364f1e227dc034fb0415c9,"[""period"",""comma""]",0,"[0.2834649999999783,0.36669499999993604]",114,0,114,0,1
,,,,,,,608bff7969659774244fac32,,,,,,608bff7969659774244fac32,Kobieta,20,2021-09-06_19h28.06.315,rantool2,2021.1.4,Linux x86_64,59.21364282,6135e006383e6ea6c3d06a28,61364f1e227dc034fb0415c9,"[""period""]",0,[0.31837500000006],115,0,115,0,1
,,,,,,,608bff7969659774244fac32,,,,,,608bff7969659774244fac32,Kobieta,20,2021-09-06_19h28.06.315,rantool2,2021.1.4,Linux x86_64,59.21364282,6135e006383e6ea6c3d06a28,61364f1e227dc034fb0415c9,"[""comma""]",0,[0.25175000000001546],116,0,116,0,1
,,,,,,,608bff7969659774244fac32,,,,,,608bff7969659774244fac32,Kobieta,20,2021-09-06_19h28.06.315,rantool2,2021.1.4,Linux x86_64,59.21364282,6135e006383e6ea6c3d06a28,61364f1e227dc034fb0415c9,"[""comma""]",0,[0.253545000000031],117,0,117,0,1
,,,,,,,608bff7969659774244fac32,,,,,,608bff7969659774244fac32,Kobieta,20,2021-09-06_19h28.06.315,rantool2,2021.1.4,Linux x86_64,59.21364282,6135e006383e6ea6c3d06a28,61364f1e227dc034fb0415c9,"[""comma""]",0,[0.23466999999993732],118,0,118,0,1
,,,,,,,608bff7969659774244fac32,,,,,,608bff7969659774244fac32,Kobieta,20,2021-09-06_19h28.06.315,rantool2,2021.1.4,Linux x86_64,59.21364282,6135e006383e6ea6c3d06a28,61364f1e227dc034fb0415c9,"[""period""]",0,[0.28809499999999844],119,0,119,0,1
