key_resp_5.keys,key_resp_5.corr,key_resp_5.rt,trials.thisRepN,trials.thisTrialN,trials.thisN,trials.thisIndex,trials.ran,id*,Płeć*,Wiek*,date,expName,psychopyVersion,OS,frameRate,id,STUDY_ID,SESSION_ID,key_resp_7.keys,key_resp_7.rt,trials_2.thisRepN,trials_2.thisTrialN,trials_2.thisN,trials_2.thisIndex,trials_2.ran,series_0,series_1,acss_0,acss_1,comparison
0,,,0,0,0,0,1,5d0d3c6c9193b80019e7f639,Kobieta,32,2021-07-13_21h49.24.086,rantool2,2021.1.4,MacIntel,60.0024001,5d0d3c6c9193b80019e7f639,60d9d14f4a8a35a482e0d9bf,60ededcdd8cca53c4761fb31,,,,,,,,,,,,
"[""comma"",""period""]",0,"[0.5332999999821197,0.9825999999940507]",1,0,1,0,1,5d0d3c6c9193b80019e7f639,Kobieta,32,2021-07-13_21h49.24.086,rantool2,2021.1.4,MacIntel,60.0024001,5d0d3c6c9193b80019e7f639,60d9d14f4a8a35a482e0d9bf,60ededcdd8cca53c4761fb31,,,,,,,,,,,,
"[""comma""]",0,[0.4849000000059789],2,0,2,0,1,5d0d3c6c9193b80019e7f639,Kobieta,32,2021-07-13_21h49.24.086,rantool2,2021.1.4,MacIntel,60.0024001,5d0d3c6c9193b80019e7f639,60d9d14f4a8a35a482e0d9bf,60ededcdd8cca53c4761fb31,,,,,,,,,,,,
"[""period""]",0,[0.35019999998809226],3,0,3,0,1,5d0d3c6c9193b80019e7f639,Kobieta,32,2021-07-13_21h49.24.086,rantool2,2021.1.4,MacIntel,60.0024001,5d0d3c6c9193b80019e7f639,60d9d14f4a8a35a482e0d9bf,60ededcdd8cca53c4761fb31,,,,,,,,,,,,
"[""comma""]",0,[0.23299999999997567],4,0,4,0,1,5d0d3c6c9193b80019e7f639,Kobieta,32,2021-07-13_21h49.24.086,rantool2,2021.1.4,MacIntel,60.0024001,5d0d3c6c9193b80019e7f639,60d9d14f4a8a35a482e0d9bf,60ededcdd8cca53c4761fb31,,,,,,,,,,,,
"[""comma""]",0,[0.11660000002382276],5,0,5,0,1,5d0d3c6c9193b80019e7f639,Kobieta,32,2021-07-13_21h49.24.086,rantool2,2021.1.4,MacIntel,60.0024001,5d0d3c6c9193b80019e7f639,60d9d14f4a8a35a482e0d9bf,60ededcdd8cca53c4761fb31,,,,,,,,,,,,
"[""period""]",0,[0.20000000000001705],6,0,6,0,1,5d0d3c6c9193b80019e7f639,Kobieta,32,2021-07-13_21h49.24.086,rantool2,2021.1.4,MacIntel,60.0024001,5d0d3c6c9193b80019e7f639,60d9d14f4a8a35a482e0d9bf,60ededcdd8cca53c4761fb31,,,,,,,,,,,,
"[""comma""]",0,[0.2000999999940234],7,0,7,0,1,5d0d3c6c9193b80019e7f639,Kobieta,32,2021-07-13_21h49.24.086,rantool2,2021.1.4,MacIntel,60.0024001,5d0d3c6c9193b80019e7f639,60d9d14f4a8a35a482e0d9bf,60ededcdd8cca53c4761fb31,,,,,,,,,,,,
"[""period"",""comma""]",0,"[0.051900000005957736,1.7353000000119323]",8,0,8,0,1,5d0d3c6c9193b80019e7f639,Kobieta,32,2021-07-13_21h49.24.086,rantool2,2021.1.4,MacIntel,60.0024001,5d0d3c6c9193b80019e7f639,60d9d14f4a8a35a482e0d9bf,60ededcdd8cca53c4761fb31,,,,,,,,,,,,
"[""comma""]",0,[0.482300000011918],9,0,9,0,1,5d0d3c6c9193b80019e7f639,Kobieta,32,2021-07-13_21h49.24.086,rantool2,2021.1.4,MacIntel,60.0024001,5d0d3c6c9193b80019e7f639,60d9d14f4a8a35a482e0d9bf,60ededcdd8cca53c4761fb31,,,,,,,,,,,,
"[""period""]",0,[0.23440000000596228],10,0,10,0,1,5d0d3c6c9193b80019e7f639,Kobieta,32,2021-07-13_21h49.24.086,rantool2,2021.1.4,MacIntel,60.0024001,5d0d3c6c9193b80019e7f639,60d9d14f4a8a35a482e0d9bf,60ededcdd8cca53c4761fb31,,,,,,,,,,,,
"[""period""]",0,[0.38309999999404454],11,0,11,0,1,5d0d3c6c9193b80019e7f639,Kobieta,32,2021-07-13_21h49.24.086,rantool2,2021.1.4,MacIntel,60.0024001,5d0d3c6c9193b80019e7f639,60d9d14f4a8a35a482e0d9bf,60ededcdd8cca53c4761fb31,,,,,,,,,,,,
"[""period""]",0,[0.29840000000595523],12,0,12,0,1,5d0d3c6c9193b80019e7f639,Kobieta,32,2021-07-13_21h49.24.086,rantool2,2021.1.4,MacIntel,60.0024001,5d0d3c6c9193b80019e7f639,60d9d14f4a8a35a482e0d9bf,60ededcdd8cca53c4761fb31,,,,,,,,,,,,
"[""comma""]",0,[0.2831000000238646],13,0,13,0,1,5d0d3c6c9193b80019e7f639,Kobieta,32,2021-07-13_21h49.24.086,rantool2,2021.1.4,MacIntel,60.0024001,5d0d3c6c9193b80019e7f639,60d9d14f4a8a35a482e0d9bf,60ededcdd8cca53c4761fb31,,,,,,,,,,,,
"[""comma""]",0,[0.08229999998212634],14,0,14,0,1,5d0d3c6c9193b80019e7f639,Kobieta,32,2021-07-13_21h49.24.086,rantool2,2021.1.4,MacIntel,60.0024001,5d0d3c6c9193b80019e7f639,60d9d14f4a8a35a482e0d9bf,60ededcdd8cca53c4761fb31,,,,,,,,,,,,
"[""comma"",""comma""]",0,"[0.19830000001192616,1.933599999994044]",15,0,15,0,1,5d0d3c6c9193b80019e7f639,Kobieta,32,2021-07-13_21h49.24.086,rantool2,2021.1.4,MacIntel,60.0024001,5d0d3c6c9193b80019e7f639,60d9d14f4a8a35a482e0d9bf,60ededcdd8cca53c4761fb31,,,,,,,,,,,,
"[""comma""]",0,[0.5524999999999807],16,0,16,0,1,5d0d3c6c9193b80019e7f639,Kobieta,32,2021-07-13_21h49.24.086,rantool2,2021.1.4,MacIntel,60.0024001,5d0d3c6c9193b80019e7f639,60d9d14f4a8a35a482e0d9bf,60ededcdd8cca53c4761fb31,,,,,,,,,,,,
0,0,,17,0,17,0,1,5d0d3c6c9193b80019e7f639,Kobieta,32,2021-07-13_21h49.24.086,rantool2,2021.1.4,MacIntel,60.0024001,5d0d3c6c9193b80019e7f639,60d9d14f4a8a35a482e0d9bf,60ededcdd8cca53c4761fb31,,,,,,,,,,,,
"[""comma""]",0,[0.8485000000000014],18,0,18,0,1,5d0d3c6c9193b80019e7f639,Kobieta,32,2021-07-13_21h49.24.086,rantool2,2021.1.4,MacIntel,60.0024001,5d0d3c6c9193b80019e7f639,60d9d14f4a8a35a482e0d9bf,60ededcdd8cca53c4761fb31,,,,,,,,,,,,
"[""comma""]",0,[1.599599999994041],19,0,19,0,1,5d0d3c6c9193b80019e7f639,Kobieta,32,2021-07-13_21h49.24.086,rantool2,2021.1.4,MacIntel,60.0024001,5d0d3c6c9193b80019e7f639,60d9d14f4a8a35a482e0d9bf,60ededcdd8cca53c4761fb31,,,,,,,,,,,,
"[""comma""]",0,[1.2810999999940407],20,0,20,0,1,5d0d3c6c9193b80019e7f639,Kobieta,32,2021-07-13_21h49.24.086,rantool2,2021.1.4,MacIntel,60.0024001,5d0d3c6c9193b80019e7f639,60d9d14f4a8a35a482e0d9bf,60ededcdd8cca53c4761fb31,,,,,,,,,,,,
"[""comma""]",0,[0.8038000000119325],21,0,21,0,1,5d0d3c6c9193b80019e7f639,Kobieta,32,2021-07-13_21h49.24.086,rantool2,2021.1.4,MacIntel,60.0024001,5d0d3c6c9193b80019e7f639,60d9d14f4a8a35a482e0d9bf,60ededcdd8cca53c4761fb31,,,,,,,,,,,,
"[""comma"",""comma""]",0,"[0.3015000000000043,1.5326999999880968]",22,0,22,0,1,5d0d3c6c9193b80019e7f639,Kobieta,32,2021-07-13_21h49.24.086,rantool2,2021.1.4,MacIntel,60.0024001,5d0d3c6c9193b80019e7f639,60d9d14f4a8a35a482e0d9bf,60ededcdd8cca53c4761fb31,,,,,,,,,,,,
"[""comma"",""comma""]",0,"[0.5164000000059445,1.6336999999880675]",23,0,23,0,1,5d0d3c6c9193b80019e7f639,Kobieta,32,2021-07-13_21h49.24.086,rantool2,2021.1.4,MacIntel,60.0024001,5d0d3c6c9193b80019e7f639,60d9d14f4a8a35a482e0d9bf,60ededcdd8cca53c4761fb31,,,,,,,,,,,,
"[""comma""]",0,[0.4335999999940441],24,0,24,0,1,5d0d3c6c9193b80019e7f639,Kobieta,32,2021-07-13_21h49.24.086,rantool2,2021.1.4,MacIntel,60.0024001,5d0d3c6c9193b80019e7f639,60d9d14f4a8a35a482e0d9bf,60ededcdd8cca53c4761fb31,,,,,,,,,,,,
"[""comma""]",0,[0.33480000001191],25,0,25,0,1,5d0d3c6c9193b80019e7f639,Kobieta,32,2021-07-13_21h49.24.086,rantool2,2021.1.4,MacIntel,60.0024001,5d0d3c6c9193b80019e7f639,60d9d14f4a8a35a482e0d9bf,60ededcdd8cca53c4761fb31,,,,,,,,,,,,
"[""comma""]",0,[0.4165999999940482],26,0,26,0,1,5d0d3c6c9193b80019e7f639,Kobieta,32,2021-07-13_21h49.24.086,rantool2,2021.1.4,MacIntel,60.0024001,5d0d3c6c9193b80019e7f639,60d9d14f4a8a35a482e0d9bf,60ededcdd8cca53c4761fb31,,,,,,,,,,,,
"[""comma"",""comma""]",0,"[0.28119999998807543,1.9354000000059557]",27,0,27,0,1,5d0d3c6c9193b80019e7f639,Kobieta,32,2021-07-13_21h49.24.086,rantool2,2021.1.4,MacIntel,60.0024001,5d0d3c6c9193b80019e7f639,60d9d14f4a8a35a482e0d9bf,60ededcdd8cca53c4761fb31,,,,,,,,,,,,
0,0,,28,0,28,0,1,5d0d3c6c9193b80019e7f639,Kobieta,32,2021-07-13_21h49.24.086,rantool2,2021.1.4,MacIntel,60.0024001,5d0d3c6c9193b80019e7f639,60d9d14f4a8a35a482e0d9bf,60ededcdd8cca53c4761fb31,,,,,,,,,,,,
"[""comma""]",0,[0.28469999998807793],29,0,29,0,1,5d0d3c6c9193b80019e7f639,Kobieta,32,2021-07-13_21h49.24.086,rantool2,2021.1.4,MacIntel,60.0024001,5d0d3c6c9193b80019e7f639,60d9d14f4a8a35a482e0d9bf,60ededcdd8cca53c4761fb31,,,,,,,,,,,,
"[""period""]",0,[0.2840999999940266],30,0,30,0,1,5d0d3c6c9193b80019e7f639,Kobieta,32,2021-07-13_21h49.24.086,rantool2,2021.1.4,MacIntel,60.0024001,5d0d3c6c9193b80019e7f639,60d9d14f4a8a35a482e0d9bf,60ededcdd8cca53c4761fb31,,,,,,,,,,,,
"[""comma""]",0,[-0.01500000000001478],31,0,31,0,1,5d0d3c6c9193b80019e7f639,Kobieta,32,2021-07-13_21h49.24.086,rantool2,2021.1.4,MacIntel,60.0024001,5d0d3c6c9193b80019e7f639,60d9d14f4a8a35a482e0d9bf,60ededcdd8cca53c4761fb31,,,,,,,,,,,,
"[""comma"",""comma""]",0,"[0.28440000000597365,1.5835999999940498]",32,0,32,0,1,5d0d3c6c9193b80019e7f639,Kobieta,32,2021-07-13_21h49.24.086,rantool2,2021.1.4,MacIntel,60.0024001,5d0d3c6c9193b80019e7f639,60d9d14f4a8a35a482e0d9bf,60ededcdd8cca53c4761fb31,,,,,,,,,,,,
"[""comma""]",0,[0.8999000000059709],33,0,33,0,1,5d0d3c6c9193b80019e7f639,Kobieta,32,2021-07-13_21h49.24.086,rantool2,2021.1.4,MacIntel,60.0024001,5d0d3c6c9193b80019e7f639,60d9d14f4a8a35a482e0d9bf,60ededcdd8cca53c4761fb31,,,,,,,,,,,,
"[""period""]",0,[0.23190000000596456],34,0,34,0,1,5d0d3c6c9193b80019e7f639,Kobieta,32,2021-07-13_21h49.24.086,rantool2,2021.1.4,MacIntel,60.0024001,5d0d3c6c9193b80019e7f639,60d9d14f4a8a35a482e0d9bf,60ededcdd8cca53c4761fb31,,,,,,,,,,,,
"[""period"",""comma""]",0,"[0.2481999999880884,1.8839000000059514]",35,0,35,0,1,5d0d3c6c9193b80019e7f639,Kobieta,32,2021-07-13_21h49.24.086,rantool2,2021.1.4,MacIntel,60.0024001,5d0d3c6c9193b80019e7f639,60d9d14f4a8a35a482e0d9bf,60ededcdd8cca53c4761fb31,,,,,,,,,,,,
"[""period""]",0,[1.3504000000059477],36,0,36,0,1,5d0d3c6c9193b80019e7f639,Kobieta,32,2021-07-13_21h49.24.086,rantool2,2021.1.4,MacIntel,60.0024001,5d0d3c6c9193b80019e7f639,60d9d14f4a8a35a482e0d9bf,60ededcdd8cca53c4761fb31,,,,,,,,,,,,
"[""comma""]",0,[1.5835999999940213],37,0,37,0,1,5d0d3c6c9193b80019e7f639,Kobieta,32,2021-07-13_21h49.24.086,rantool2,2021.1.4,MacIntel,60.0024001,5d0d3c6c9193b80019e7f639,60d9d14f4a8a35a482e0d9bf,60ededcdd8cca53c4761fb31,,,,,,,,,,,,
"[""comma""]",0,[1.0494999999999948],38,0,38,0,1,5d0d3c6c9193b80019e7f639,Kobieta,32,2021-07-13_21h49.24.086,rantool2,2021.1.4,MacIntel,60.0024001,5d0d3c6c9193b80019e7f639,60d9d14f4a8a35a482e0d9bf,60ededcdd8cca53c4761fb31,,,,,,,,,,,,
"[""comma""]",0,[0.5657000000178982],39,0,39,0,1,5d0d3c6c9193b80019e7f639,Kobieta,32,2021-07-13_21h49.24.086,rantool2,2021.1.4,MacIntel,60.0024001,5d0d3c6c9193b80019e7f639,60d9d14f4a8a35a482e0d9bf,60ededcdd8cca53c4761fb31,,,,,,,,,,,,
"[""comma""]",0,[0.33309999999403317],40,0,40,0,1,5d0d3c6c9193b80019e7f639,Kobieta,32,2021-07-13_21h49.24.086,rantool2,2021.1.4,MacIntel,60.0024001,5d0d3c6c9193b80019e7f639,60d9d14f4a8a35a482e0d9bf,60ededcdd8cca53c4761fb31,,,,,,,,,,,,
"[""comma""]",0,[0.33459999999405454],41,0,41,0,1,5d0d3c6c9193b80019e7f639,Kobieta,32,2021-07-13_21h49.24.086,rantool2,2021.1.4,MacIntel,60.0024001,5d0d3c6c9193b80019e7f639,60d9d14f4a8a35a482e0d9bf,60ededcdd8cca53c4761fb31,,,,,,,,,,,,
"[""comma""]",0,[0.4860999999940532],42,0,42,0,1,5d0d3c6c9193b80019e7f639,Kobieta,32,2021-07-13_21h49.24.086,rantool2,2021.1.4,MacIntel,60.0024001,5d0d3c6c9193b80019e7f639,60d9d14f4a8a35a482e0d9bf,60ededcdd8cca53c4761fb31,,,,,,,,,,,,
"[""comma""]",0,[0.4386999999880743],43,0,43,0,1,5d0d3c6c9193b80019e7f639,Kobieta,32,2021-07-13_21h49.24.086,rantool2,2021.1.4,MacIntel,60.0024001,5d0d3c6c9193b80019e7f639,60d9d14f4a8a35a482e0d9bf,60ededcdd8cca53c4761fb31,,,,,,,,,,,,
"[""comma""]",0,[0.8154000000059796],44,0,44,0,1,5d0d3c6c9193b80019e7f639,Kobieta,32,2021-07-13_21h49.24.086,rantool2,2021.1.4,MacIntel,60.0024001,5d0d3c6c9193b80019e7f639,60d9d14f4a8a35a482e0d9bf,60ededcdd8cca53c4761fb31,,,,,,,,,,,,
"[""comma""]",0,[0.40259999999403817],45,0,45,0,1,5d0d3c6c9193b80019e7f639,Kobieta,32,2021-07-13_21h49.24.086,rantool2,2021.1.4,MacIntel,60.0024001,5d0d3c6c9193b80019e7f639,60d9d14f4a8a35a482e0d9bf,60ededcdd8cca53c4761fb31,,,,,,,,,,,,
"[""period"",""period""]",0,"[0.2625999999940518,1.6318000000119355]",46,0,46,0,1,5d0d3c6c9193b80019e7f639,Kobieta,32,2021-07-13_21h49.24.086,rantool2,2021.1.4,MacIntel,60.0024001,5d0d3c6c9193b80019e7f639,60d9d14f4a8a35a482e0d9bf,60ededcdd8cca53c4761fb31,,,,,,,,,,,,
"[""comma""]",0,[0.8520000000000323],47,0,47,0,1,5d0d3c6c9193b80019e7f639,Kobieta,32,2021-07-13_21h49.24.086,rantool2,2021.1.4,MacIntel,60.0024001,5d0d3c6c9193b80019e7f639,60d9d14f4a8a35a482e0d9bf,60ededcdd8cca53c4761fb31,,,,,,,,,,,,
"[""comma"",""comma""]",0,"[0.43549999999999045,1.8534999999999968]",48,0,48,0,1,5d0d3c6c9193b80019e7f639,Kobieta,32,2021-07-13_21h49.24.086,rantool2,2021.1.4,MacIntel,60.0024001,5d0d3c6c9193b80019e7f639,60d9d14f4a8a35a482e0d9bf,60ededcdd8cca53c4761fb31,,,,,,,,,,,,
"[""comma""]",0,[1.4350999999940655],49,0,49,0,1,5d0d3c6c9193b80019e7f639,Kobieta,32,2021-07-13_21h49.24.086,rantool2,2021.1.4,MacIntel,60.0024001,5d0d3c6c9193b80019e7f639,60d9d14f4a8a35a482e0d9bf,60ededcdd8cca53c4761fb31,,,,,,,,,,,,
"[""comma"",""comma"",""period""]",0,"[0.04949999999996635,1.0841999999880727,1.9104999999999563]",50,0,50,0,1,5d0d3c6c9193b80019e7f639,Kobieta,32,2021-07-13_21h49.24.086,rantool2,2021.1.4,MacIntel,60.0024001,5d0d3c6c9193b80019e7f639,60d9d14f4a8a35a482e0d9bf,60ededcdd8cca53c4761fb31,,,,,,,,,,,,
"[""period""]",0,[0.5035999999940373],51,0,51,0,1,5d0d3c6c9193b80019e7f639,Kobieta,32,2021-07-13_21h49.24.086,rantool2,2021.1.4,MacIntel,60.0024001,5d0d3c6c9193b80019e7f639,60d9d14f4a8a35a482e0d9bf,60ededcdd8cca53c4761fb31,,,,,,,,,,,,
"[""comma""]",0,[-0.015000000000043201],52,0,52,0,1,5d0d3c6c9193b80019e7f639,Kobieta,32,2021-07-13_21h49.24.086,rantool2,2021.1.4,MacIntel,60.0024001,5d0d3c6c9193b80019e7f639,60d9d14f4a8a35a482e0d9bf,60ededcdd8cca53c4761fb31,,,,,,,,,,,,
"[""comma""]",0,[0.33280000001190047],53,0,53,0,1,5d0d3c6c9193b80019e7f639,Kobieta,32,2021-07-13_21h49.24.086,rantool2,2021.1.4,MacIntel,60.0024001,5d0d3c6c9193b80019e7f639,60d9d14f4a8a35a482e0d9bf,60ededcdd8cca53c4761fb31,,,,,,,,,,,,
"[""comma""]",0,[1.6496999999881155],54,0,54,0,1,5d0d3c6c9193b80019e7f639,Kobieta,32,2021-07-13_21h49.24.086,rantool2,2021.1.4,MacIntel,60.0024001,5d0d3c6c9193b80019e7f639,60d9d14f4a8a35a482e0d9bf,60ededcdd8cca53c4761fb31,,,,,,,,,,,,
"[""comma""]",0,[1.636000000000024],55,0,55,0,1,5d0d3c6c9193b80019e7f639,Kobieta,32,2021-07-13_21h49.24.086,rantool2,2021.1.4,MacIntel,60.0024001,5d0d3c6c9193b80019e7f639,60d9d14f4a8a35a482e0d9bf,60ededcdd8cca53c4761fb31,,,,,,,,,,,,
0,0,,56,0,56,0,1,5d0d3c6c9193b80019e7f639,Kobieta,32,2021-07-13_21h49.24.086,rantool2,2021.1.4,MacIntel,60.0024001,5d0d3c6c9193b80019e7f639,60d9d14f4a8a35a482e0d9bf,60ededcdd8cca53c4761fb31,,,,,,,,,,,,
"[""comma""]",0,[0.73690000000596],57,0,57,0,1,5d0d3c6c9193b80019e7f639,Kobieta,32,2021-07-13_21h49.24.086,rantool2,2021.1.4,MacIntel,60.0024001,5d0d3c6c9193b80019e7f639,60d9d14f4a8a35a482e0d9bf,60ededcdd8cca53c4761fb31,,,,,,,,,,,,
"[""comma"",""comma"",""comma""]",0,"[-0.01589999997617042,0.8833000000119,1.1043000000119036]",58,0,58,0,1,5d0d3c6c9193b80019e7f639,Kobieta,32,2021-07-13_21h49.24.086,rantool2,2021.1.4,MacIntel,60.0024001,5d0d3c6c9193b80019e7f639,60d9d14f4a8a35a482e0d9bf,60ededcdd8cca53c4761fb31,,,,,,,,,,,,
"[""comma""]",0,[1.83779999998211],59,0,59,0,1,5d0d3c6c9193b80019e7f639,Kobieta,32,2021-07-13_21h49.24.086,rantool2,2021.1.4,MacIntel,60.0024001,5d0d3c6c9193b80019e7f639,60d9d14f4a8a35a482e0d9bf,60ededcdd8cca53c4761fb31,,,,,,,,,,,,
"[""comma"",""comma""]",0,"[1.0346999999880495,1.7550999999940018]",60,0,60,0,1,5d0d3c6c9193b80019e7f639,Kobieta,32,2021-07-13_21h49.24.086,rantool2,2021.1.4,MacIntel,60.0024001,5d0d3c6c9193b80019e7f639,60d9d14f4a8a35a482e0d9bf,60ededcdd8cca53c4761fb31,,,,,,,,,,,,
"[""comma""]",0,[0.4872999999821559],61,0,61,0,1,5d0d3c6c9193b80019e7f639,Kobieta,32,2021-07-13_21h49.24.086,rantool2,2021.1.4,MacIntel,60.0024001,5d0d3c6c9193b80019e7f639,60d9d14f4a8a35a482e0d9bf,60ededcdd8cca53c4761fb31,,,,,,,,,,,,
"[""comma""]",0,[0.38540000000597274],62,0,62,0,1,5d0d3c6c9193b80019e7f639,Kobieta,32,2021-07-13_21h49.24.086,rantool2,2021.1.4,MacIntel,60.0024001,5d0d3c6c9193b80019e7f639,60d9d14f4a8a35a482e0d9bf,60ededcdd8cca53c4761fb31,,,,,,,,,,,,
0,0,,63,0,63,0,1,5d0d3c6c9193b80019e7f639,Kobieta,32,2021-07-13_21h49.24.086,rantool2,2021.1.4,MacIntel,60.0024001,5d0d3c6c9193b80019e7f639,60d9d14f4a8a35a482e0d9bf,60ededcdd8cca53c4761fb31,,,,,,,,,,,,
"[""comma"",""comma""]",0,"[0.33609999999401907,1.8366999999880704]",64,0,64,0,1,5d0d3c6c9193b80019e7f639,Kobieta,32,2021-07-13_21h49.24.086,rantool2,2021.1.4,MacIntel,60.0024001,5d0d3c6c9193b80019e7f639,60d9d14f4a8a35a482e0d9bf,60ededcdd8cca53c4761fb31,,,,,,,,,,,,
0,0,,65,0,65,0,1,5d0d3c6c9193b80019e7f639,Kobieta,32,2021-07-13_21h49.24.086,rantool2,2021.1.4,MacIntel,60.0024001,5d0d3c6c9193b80019e7f639,60d9d14f4a8a35a482e0d9bf,60ededcdd8cca53c4761fb31,,,,,,,,,,,,
"[""comma""]",0,[0.06670000001787457],66,0,66,0,1,5d0d3c6c9193b80019e7f639,Kobieta,32,2021-07-13_21h49.24.086,rantool2,2021.1.4,MacIntel,60.0024001,5d0d3c6c9193b80019e7f639,60d9d14f4a8a35a482e0d9bf,60ededcdd8cca53c4761fb31,,,,,,,,,,,,
0,0,,67,0,67,0,1,5d0d3c6c9193b80019e7f639,Kobieta,32,2021-07-13_21h49.24.086,rantool2,2021.1.4,MacIntel,60.0024001,5d0d3c6c9193b80019e7f639,60d9d14f4a8a35a482e0d9bf,60ededcdd8cca53c4761fb31,,,,,,,,,,,,
"[""comma""]",0,[0.13549999999997908],68,0,68,0,1,5d0d3c6c9193b80019e7f639,Kobieta,32,2021-07-13_21h49.24.086,rantool2,2021.1.4,MacIntel,60.0024001,5d0d3c6c9193b80019e7f639,60d9d14f4a8a35a482e0d9bf,60ededcdd8cca53c4761fb31,,,,,,,,,,,,
"[""comma"",""comma""]",0,"[0.35019999998809226,1.565599999994049]",69,0,69,0,1,5d0d3c6c9193b80019e7f639,Kobieta,32,2021-07-13_21h49.24.086,rantool2,2021.1.4,MacIntel,60.0024001,5d0d3c6c9193b80019e7f639,60d9d14f4a8a35a482e0d9bf,60ededcdd8cca53c4761fb31,,,,,,,,,,,,
"[""comma""]",0,[0.9359999999999786],70,0,70,0,1,5d0d3c6c9193b80019e7f639,Kobieta,32,2021-07-13_21h49.24.086,rantool2,2021.1.4,MacIntel,60.0024001,5d0d3c6c9193b80019e7f639,60d9d14f4a8a35a482e0d9bf,60ededcdd8cca53c4761fb31,,,,,,,,,,,,
"[""comma"",""comma""]",0,"[0.22120000001791595,1.9394000000060032]",71,0,71,0,1,5d0d3c6c9193b80019e7f639,Kobieta,32,2021-07-13_21h49.24.086,rantool2,2021.1.4,MacIntel,60.0024001,5d0d3c6c9193b80019e7f639,60d9d14f4a8a35a482e0d9bf,60ededcdd8cca53c4761fb31,,,,,,,,,,,,
0,0,,72,0,72,0,1,5d0d3c6c9193b80019e7f639,Kobieta,32,2021-07-13_21h49.24.086,rantool2,2021.1.4,MacIntel,60.0024001,5d0d3c6c9193b80019e7f639,60d9d14f4a8a35a482e0d9bf,60ededcdd8cca53c4761fb31,,,,,,,,,,,,
"[""comma"",""period""]",0,"[0.2864000000059832,1.9350999999940086]",73,0,73,0,1,5d0d3c6c9193b80019e7f639,Kobieta,32,2021-07-13_21h49.24.086,rantool2,2021.1.4,MacIntel,60.0024001,5d0d3c6c9193b80019e7f639,60d9d14f4a8a35a482e0d9bf,60ededcdd8cca53c4761fb31,,,,,,,,,,,,
"[""period""]",0,[0.5040999999940254],74,0,74,0,1,5d0d3c6c9193b80019e7f639,Kobieta,32,2021-07-13_21h49.24.086,rantool2,2021.1.4,MacIntel,60.0024001,5d0d3c6c9193b80019e7f639,60d9d14f4a8a35a482e0d9bf,60ededcdd8cca53c4761fb31,,,,,,,,,,,,
"[""period""]",0,[0.33990000000596865],75,0,75,0,1,5d0d3c6c9193b80019e7f639,Kobieta,32,2021-07-13_21h49.24.086,rantool2,2021.1.4,MacIntel,60.0024001,5d0d3c6c9193b80019e7f639,60d9d14f4a8a35a482e0d9bf,60ededcdd8cca53c4761fb31,,,,,,,,,,,,
"[""comma""]",0,[0.30509999999401316],76,0,76,0,1,5d0d3c6c9193b80019e7f639,Kobieta,32,2021-07-13_21h49.24.086,rantool2,2021.1.4,MacIntel,60.0024001,5d0d3c6c9193b80019e7f639,60d9d14f4a8a35a482e0d9bf,60ededcdd8cca53c4761fb31,,,,,,,,,,,,
"[""comma""]",0,[0.35080000001192957],77,0,77,0,1,5d0d3c6c9193b80019e7f639,Kobieta,32,2021-07-13_21h49.24.086,rantool2,2021.1.4,MacIntel,60.0024001,5d0d3c6c9193b80019e7f639,60d9d14f4a8a35a482e0d9bf,60ededcdd8cca53c4761fb31,,,,,,,,,,,,
"[""comma""]",0,[0.23539999997615269],78,0,78,0,1,5d0d3c6c9193b80019e7f639,Kobieta,32,2021-07-13_21h49.24.086,rantool2,2021.1.4,MacIntel,60.0024001,5d0d3c6c9193b80019e7f639,60d9d14f4a8a35a482e0d9bf,60ededcdd8cca53c4761fb31,,,,,,,,,,,,
"[""period""]",0,[0.2000999999940518],79,0,79,0,1,5d0d3c6c9193b80019e7f639,Kobieta,32,2021-07-13_21h49.24.086,rantool2,2021.1.4,MacIntel,60.0024001,5d0d3c6c9193b80019e7f639,60d9d14f4a8a35a482e0d9bf,60ededcdd8cca53c4761fb31,,,,,,,,,,,,
"[""comma""]",0,[0.33409999999406637],80,0,80,0,1,5d0d3c6c9193b80019e7f639,Kobieta,32,2021-07-13_21h49.24.086,rantool2,2021.1.4,MacIntel,60.0024001,5d0d3c6c9193b80019e7f639,60d9d14f4a8a35a482e0d9bf,60ededcdd8cca53c4761fb31,,,,,,,,,,,,
"[""period""]",0,[0.3354999999999677],81,0,81,0,1,5d0d3c6c9193b80019e7f639,Kobieta,32,2021-07-13_21h49.24.086,rantool2,2021.1.4,MacIntel,60.0024001,5d0d3c6c9193b80019e7f639,60d9d14f4a8a35a482e0d9bf,60ededcdd8cca53c4761fb31,,,,,,,,,,,,
"[""comma""]",0,[0.5856999999880941],82,0,82,0,1,5d0d3c6c9193b80019e7f639,Kobieta,32,2021-07-13_21h49.24.086,rantool2,2021.1.4,MacIntel,60.0024001,5d0d3c6c9193b80019e7f639,60d9d14f4a8a35a482e0d9bf,60ededcdd8cca53c4761fb31,,,,,,,,,,,,
0,0,,83,0,83,0,1,5d0d3c6c9193b80019e7f639,Kobieta,32,2021-07-13_21h49.24.086,rantool2,2021.1.4,MacIntel,60.0024001,5d0d3c6c9193b80019e7f639,60d9d14f4a8a35a482e0d9bf,60ededcdd8cca53c4761fb31,,,,,,,,,,,,
"[""period""]",0,[0.2838999999761995],84,0,84,0,1,5d0d3c6c9193b80019e7f639,Kobieta,32,2021-07-13_21h49.24.086,rantool2,2021.1.4,MacIntel,60.0024001,5d0d3c6c9193b80019e7f639,60d9d14f4a8a35a482e0d9bf,60ededcdd8cca53c4761fb31,,,,,,,,,,,,
"[""period""]",0,[0.3835000000000264],85,0,85,0,1,5d0d3c6c9193b80019e7f639,Kobieta,32,2021-07-13_21h49.24.086,rantool2,2021.1.4,MacIntel,60.0024001,5d0d3c6c9193b80019e7f639,60d9d14f4a8a35a482e0d9bf,60ededcdd8cca53c4761fb31,,,,,,,,,,,,
"[""period""]",0,[0.3555999999940127],86,0,86,0,1,5d0d3c6c9193b80019e7f639,Kobieta,32,2021-07-13_21h49.24.086,rantool2,2021.1.4,MacIntel,60.0024001,5d0d3c6c9193b80019e7f639,60d9d14f4a8a35a482e0d9bf,60ededcdd8cca53c4761fb31,,,,,,,,,,,,
"[""period""]",0,[0.2984000000059268],87,0,87,0,1,5d0d3c6c9193b80019e7f639,Kobieta,32,2021-07-13_21h49.24.086,rantool2,2021.1.4,MacIntel,60.0024001,5d0d3c6c9193b80019e7f639,60d9d14f4a8a35a482e0d9bf,60ededcdd8cca53c4761fb31,,,,,,,,,,,,
"[""period""]",0,[0.9172000000178855],88,0,88,0,1,5d0d3c6c9193b80019e7f639,Kobieta,32,2021-07-13_21h49.24.086,rantool2,2021.1.4,MacIntel,60.0024001,5d0d3c6c9193b80019e7f639,60d9d14f4a8a35a482e0d9bf,60ededcdd8cca53c4761fb31,,,,,,,,,,,,
"[""period""]",0,[0.6017000000178996],89,0,89,0,1,5d0d3c6c9193b80019e7f639,Kobieta,32,2021-07-13_21h49.24.086,rantool2,2021.1.4,MacIntel,60.0024001,5d0d3c6c9193b80019e7f639,60d9d14f4a8a35a482e0d9bf,60ededcdd8cca53c4761fb31,,,,,,,,,,,,
0,0,,90,0,90,0,1,5d0d3c6c9193b80019e7f639,Kobieta,32,2021-07-13_21h49.24.086,rantool2,2021.1.4,MacIntel,60.0024001,5d0d3c6c9193b80019e7f639,60d9d14f4a8a35a482e0d9bf,60ededcdd8cca53c4761fb31,,,,,,,,,,,,
"[""period""]",0,[0.7347000000178809],91,0,91,0,1,5d0d3c6c9193b80019e7f639,Kobieta,32,2021-07-13_21h49.24.086,rantool2,2021.1.4,MacIntel,60.0024001,5d0d3c6c9193b80019e7f639,60d9d14f4a8a35a482e0d9bf,60ededcdd8cca53c4761fb31,,,,,,,,,,,,
0,0,,92,0,92,0,1,5d0d3c6c9193b80019e7f639,Kobieta,32,2021-07-13_21h49.24.086,rantool2,2021.1.4,MacIntel,60.0024001,5d0d3c6c9193b80019e7f639,60d9d14f4a8a35a482e0d9bf,60ededcdd8cca53c4761fb31,,,,,,,,,,,,
"[""comma""]",0,[0.3378000000118959],93,0,93,0,1,5d0d3c6c9193b80019e7f639,Kobieta,32,2021-07-13_21h49.24.086,rantool2,2021.1.4,MacIntel,60.0024001,5d0d3c6c9193b80019e7f639,60d9d14f4a8a35a482e0d9bf,60ededcdd8cca53c4761fb31,,,,,,,,,,,,
"[""comma""]",0,[0.53449999999998],94,0,94,0,1,5d0d3c6c9193b80019e7f639,Kobieta,32,2021-07-13_21h49.24.086,rantool2,2021.1.4,MacIntel,60.0024001,5d0d3c6c9193b80019e7f639,60d9d14f4a8a35a482e0d9bf,60ededcdd8cca53c4761fb31,,,,,,,,,,,,
"[""comma""]",0,[0.48709999999402953],95,0,95,0,1,5d0d3c6c9193b80019e7f639,Kobieta,32,2021-07-13_21h49.24.086,rantool2,2021.1.4,MacIntel,60.0024001,5d0d3c6c9193b80019e7f639,60d9d14f4a8a35a482e0d9bf,60ededcdd8cca53c4761fb31,,,,,,,,,,,,
"[""comma""]",0,[0.7340999999940436],96,0,96,0,1,5d0d3c6c9193b80019e7f639,Kobieta,32,2021-07-13_21h49.24.086,rantool2,2021.1.4,MacIntel,60.0024001,5d0d3c6c9193b80019e7f639,60d9d14f4a8a35a482e0d9bf,60ededcdd8cca53c4761fb31,,,,,,,,,,,,
"[""comma""]",0,[0.3844000000059964],97,0,97,0,1,5d0d3c6c9193b80019e7f639,Kobieta,32,2021-07-13_21h49.24.086,rantool2,2021.1.4,MacIntel,60.0024001,5d0d3c6c9193b80019e7f639,60d9d14f4a8a35a482e0d9bf,60ededcdd8cca53c4761fb31,,,,,,,,,,,,
"[""period"",""comma""]",0,"[0.35080000001192957,0.4171000000238223]",98,0,98,0,1,5d0d3c6c9193b80019e7f639,Kobieta,32,2021-07-13_21h49.24.086,rantool2,2021.1.4,MacIntel,60.0024001,5d0d3c6c9193b80019e7f639,60d9d14f4a8a35a482e0d9bf,60ededcdd8cca53c4761fb31,,,,,,,,,,,,
"[""period""]",0,[0.38450000000000273],99,0,99,0,1,5d0d3c6c9193b80019e7f639,Kobieta,32,2021-07-13_21h49.24.086,rantool2,2021.1.4,MacIntel,60.0024001,5d0d3c6c9193b80019e7f639,60d9d14f4a8a35a482e0d9bf,60ededcdd8cca53c4761fb31,,,,,,,,,,,,
"[""comma""]",0,[0.5665999999940254],100,0,100,0,1,5d0d3c6c9193b80019e7f639,Kobieta,32,2021-07-13_21h49.24.086,rantool2,2021.1.4,MacIntel,60.0024001,5d0d3c6c9193b80019e7f639,60d9d14f4a8a35a482e0d9bf,60ededcdd8cca53c4761fb31,,,,,,,,,,,,
"[""period"",""period""]",0,"[-0.015300000011905013,0.8513000000119177]",101,0,101,0,1,5d0d3c6c9193b80019e7f639,Kobieta,32,2021-07-13_21h49.24.086,rantool2,2021.1.4,MacIntel,60.0024001,5d0d3c6c9193b80019e7f639,60d9d14f4a8a35a482e0d9bf,60ededcdd8cca53c4761fb31,,,,,,,,,,,,
"[""comma""]",0,[0.34899999999998954],102,0,102,0,1,5d0d3c6c9193b80019e7f639,Kobieta,32,2021-07-13_21h49.24.086,rantool2,2021.1.4,MacIntel,60.0024001,5d0d3c6c9193b80019e7f639,60d9d14f4a8a35a482e0d9bf,60ededcdd8cca53c4761fb31,,,,,,,,,,,,
"[""comma""]",0,[0.28279999998210315],103,0,103,0,1,5d0d3c6c9193b80019e7f639,Kobieta,32,2021-07-13_21h49.24.086,rantool2,2021.1.4,MacIntel,60.0024001,5d0d3c6c9193b80019e7f639,60d9d14f4a8a35a482e0d9bf,60ededcdd8cca53c4761fb31,,,,,,,,,,,,
"[""period""]",0,[0.332599999994045],104,0,104,0,1,5d0d3c6c9193b80019e7f639,Kobieta,32,2021-07-13_21h49.24.086,rantool2,2021.1.4,MacIntel,60.0024001,5d0d3c6c9193b80019e7f639,60d9d14f4a8a35a482e0d9bf,60ededcdd8cca53c4761fb31,,,,,,,,,,,,
0,0,,105,0,105,0,1,5d0d3c6c9193b80019e7f639,Kobieta,32,2021-07-13_21h49.24.086,rantool2,2021.1.4,MacIntel,60.0024001,5d0d3c6c9193b80019e7f639,60d9d14f4a8a35a482e0d9bf,60ededcdd8cca53c4761fb31,,,,,,,,,,,,
"[""period""]",0,[0.7833999999761545],106,0,106,0,1,5d0d3c6c9193b80019e7f639,Kobieta,32,2021-07-13_21h49.24.086,rantool2,2021.1.4,MacIntel,60.0024001,5d0d3c6c9193b80019e7f639,60d9d14f4a8a35a482e0d9bf,60ededcdd8cca53c4761fb31,,,,,,,,,,,,
0,0,,107,0,107,0,1,5d0d3c6c9193b80019e7f639,Kobieta,32,2021-07-13_21h49.24.086,rantool2,2021.1.4,MacIntel,60.0024001,5d0d3c6c9193b80019e7f639,60d9d14f4a8a35a482e0d9bf,60ededcdd8cca53c4761fb31,,,,,,,,,,,,
"[""period""]",0,[0.5849000000059732],108,0,108,0,1,5d0d3c6c9193b80019e7f639,Kobieta,32,2021-07-13_21h49.24.086,rantool2,2021.1.4,MacIntel,60.0024001,5d0d3c6c9193b80019e7f639,60d9d14f4a8a35a482e0d9bf,60ededcdd8cca53c4761fb31,,,,,,,,,,,,
"[""period""]",0,[0.4540999999940709],109,0,109,0,1,5d0d3c6c9193b80019e7f639,Kobieta,32,2021-07-13_21h49.24.086,rantool2,2021.1.4,MacIntel,60.0024001,5d0d3c6c9193b80019e7f639,60d9d14f4a8a35a482e0d9bf,60ededcdd8cca53c4761fb31,,,,,,,,,,,,
"[""period""]",0,[0.33449999999999136],110,0,110,0,1,5d0d3c6c9193b80019e7f639,Kobieta,32,2021-07-13_21h49.24.086,rantool2,2021.1.4,MacIntel,60.0024001,5d0d3c6c9193b80019e7f639,60d9d14f4a8a35a482e0d9bf,60ededcdd8cca53c4761fb31,,,,,,,,,,,,
"[""comma""]",0,[0.33430000001192184],111,0,111,0,1,5d0d3c6c9193b80019e7f639,Kobieta,32,2021-07-13_21h49.24.086,rantool2,2021.1.4,MacIntel,60.0024001,5d0d3c6c9193b80019e7f639,60d9d14f4a8a35a482e0d9bf,60ededcdd8cca53c4761fb31,,,,,,,,,,,,
"[""period""]",0,[0.5585000000000377],112,0,112,0,1,5d0d3c6c9193b80019e7f639,Kobieta,32,2021-07-13_21h49.24.086,rantool2,2021.1.4,MacIntel,60.0024001,5d0d3c6c9193b80019e7f639,60d9d14f4a8a35a482e0d9bf,60ededcdd8cca53c4761fb31,,,,,,,,,,,,
"[""period""]",0,[0.7366000000238273],113,0,113,0,1,5d0d3c6c9193b80019e7f639,Kobieta,32,2021-07-13_21h49.24.086,rantool2,2021.1.4,MacIntel,60.0024001,5d0d3c6c9193b80019e7f639,60d9d14f4a8a35a482e0d9bf,60ededcdd8cca53c4761fb31,,,,,,,,,,,,
"[""period""]",0,[0.3346999999880609],114,0,114,0,1,5d0d3c6c9193b80019e7f639,Kobieta,32,2021-07-13_21h49.24.086,rantool2,2021.1.4,MacIntel,60.0024001,5d0d3c6c9193b80019e7f639,60d9d14f4a8a35a482e0d9bf,60ededcdd8cca53c4761fb31,,,,,,,,,,,,
"[""comma""]",0,[0.16709999999403635],115,0,115,0,1,5d0d3c6c9193b80019e7f639,Kobieta,32,2021-07-13_21h49.24.086,rantool2,2021.1.4,MacIntel,60.0024001,5d0d3c6c9193b80019e7f639,60d9d14f4a8a35a482e0d9bf,60ededcdd8cca53c4761fb31,,,,,,,,,,,,
"[""comma""]",0,[1.7162000000178637],116,0,116,0,1,5d0d3c6c9193b80019e7f639,Kobieta,32,2021-07-13_21h49.24.086,rantool2,2021.1.4,MacIntel,60.0024001,5d0d3c6c9193b80019e7f639,60d9d14f4a8a35a482e0d9bf,60ededcdd8cca53c4761fb31,,,,,,,,,,,,
0,0,,117,0,117,0,1,5d0d3c6c9193b80019e7f639,Kobieta,32,2021-07-13_21h49.24.086,rantool2,2021.1.4,MacIntel,60.0024001,5d0d3c6c9193b80019e7f639,60d9d14f4a8a35a482e0d9bf,60ededcdd8cca53c4761fb31,,,,,,,,,,,,
"[""comma""]",0,[0.8664000000059673],118,0,118,0,1,5d0d3c6c9193b80019e7f639,Kobieta,32,2021-07-13_21h49.24.086,rantool2,2021.1.4,MacIntel,60.0024001,5d0d3c6c9193b80019e7f639,60d9d14f4a8a35a482e0d9bf,60ededcdd8cca53c4761fb31,,,,,,,,,,,,
"[""period""]",0,[0.3519000000059691],119,0,119,0,1,5d0d3c6c9193b80019e7f639,Kobieta,32,2021-07-13_21h49.24.086,rantool2,2021.1.4,MacIntel,60.0024001,5d0d3c6c9193b80019e7f639,60d9d14f4a8a35a482e0d9bf,60ededcdd8cca53c4761fb31,,,,,,,,,,,,
,,,,,,,,5d0d3c6c9193b80019e7f639,Kobieta,32,2021-07-13_21h49.24.086,rantool2,2021.1.4,MacIntel,60.0024001,5d0d3c6c9193b80019e7f639,60d9d14f4a8a35a482e0d9bf,60ededcdd8cca53c4761fb31,j,1.8348,0,0,0,47,1,RORRRRO,RORRRRR,21.81333602,21.02936224,series_0
,,,,,,,,5d0d3c6c9193b80019e7f639,Kobieta,32,2021-07-13_21h49.24.086,rantool2,2021.1.4,MacIntel,60.0024001,5d0d3c6c9193b80019e7f639,60d9d14f4a8a35a482e0d9bf,60ededcdd8cca53c4761fb31,j,1.9703,0,1,1,5,1,OOORORO,OOORORR,20.87963819,21.9921709,series_1
,,,,,,,,5d0d3c6c9193b80019e7f639,Kobieta,32,2021-07-13_21h49.24.086,rantool2,2021.1.4,MacIntel,60.0024001,5d0d3c6c9193b80019e7f639,60d9d14f4a8a35a482e0d9bf,60ededcdd8cca53c4761fb31,f,2.0866,0,2,2,20,1,OROROOO,OROROOR,21.31236711,21.90565814,series_1
,,,,,,,,5d0d3c6c9193b80019e7f639,Kobieta,32,2021-07-13_21h49.24.086,rantool2,2021.1.4,MacIntel,60.0024001,5d0d3c6c9193b80019e7f639,60d9d14f4a8a35a482e0d9bf,60ededcdd8cca53c4761fb31,j,1.2862,0,3,3,28,1,ORRROOO,ORRROOR,22.24142883,22.53364006,series_1
,,,,,,,,5d0d3c6c9193b80019e7f639,Kobieta,32,2021-07-13_21h49.24.086,rantool2,2021.1.4,MacIntel,60.0024001,5d0d3c6c9193b80019e7f639,60d9d14f4a8a35a482e0d9bf,60ededcdd8cca53c4761fb31,f,1.1713,0,4,4,59,1,RRRORRO,RRRORRR,21.56657303,20.89823192,series_0
,,,,,,,,5d0d3c6c9193b80019e7f639,Kobieta,32,2021-07-13_21h49.24.086,rantool2,2021.1.4,MacIntel,60.0024001,5d0d3c6c9193b80019e7f639,60d9d14f4a8a35a482e0d9bf,60ededcdd8cca53c4761fb31,j,1.085,0,5,5,45,1,RORRORO,RORRORR,20.78182524,21.22513037,series_1
,,,,,,,,5d0d3c6c9193b80019e7f639,Kobieta,32,2021-07-13_21h49.24.086,rantool2,2021.1.4,MacIntel,60.0024001,5d0d3c6c9193b80019e7f639,60d9d14f4a8a35a482e0d9bf,60ededcdd8cca53c4761fb31,f,0.9518,0,6,6,52,1,RROROOO,RROROOR,22.18365867,22.11097995,series_0
,,,,,,,,5d0d3c6c9193b80019e7f639,Kobieta,32,2021-07-13_21h49.24.086,rantool2,2021.1.4,MacIntel,60.0024001,5d0d3c6c9193b80019e7f639,60d9d14f4a8a35a482e0d9bf,60ededcdd8cca53c4761fb31,f,1.4527,0,7,7,34,1,ROOOROO,ROOOROR,21.03750787,21.24781509,series_1
,,,,,,,,5d0d3c6c9193b80019e7f639,Kobieta,32,2021-07-13_21h49.24.086,rantool2,2021.1.4,MacIntel,60.0024001,5d0d3c6c9193b80019e7f639,60d9d14f4a8a35a482e0d9bf,60ededcdd8cca53c4761fb31,f,1.3828,0,8,8,54,1,RRORROO,RRORROR,21.55250791,20.9984461,series_0
,,,,,,,,5d0d3c6c9193b80019e7f639,Kobieta,32,2021-07-13_21h49.24.086,rantool2,2021.1.4,MacIntel,60.0024001,5d0d3c6c9193b80019e7f639,60d9d14f4a8a35a482e0d9bf,60ededcdd8cca53c4761fb31,f,1.5525,0,9,9,49,1,RROOORO,RROOORR,21.76276513,22.53364006,series_1
,,,,,,,,5d0d3c6c9193b80019e7f639,Kobieta,32,2021-07-13_21h49.24.086,rantool2,2021.1.4,MacIntel,60.0024001,5d0d3c6c9193b80019e7f639,60d9d14f4a8a35a482e0d9bf,60ededcdd8cca53c4761fb31,f,1.6182,0,10,10,32,1,ROOOOOO,ROOOOOR,19.92253567,21.27974287,series_1
,,,,,,,,5d0d3c6c9193b80019e7f639,Kobieta,32,2021-07-13_21h49.24.086,rantool2,2021.1.4,MacIntel,60.0024001,5d0d3c6c9193b80019e7f639,60d9d14f4a8a35a482e0d9bf,60ededcdd8cca53c4761fb31,j,1.5024,0,11,11,30,1,ORRRROO,ORRRROR,22.46748491,22.03072203,series_0
,,,,,,,,5d0d3c6c9193b80019e7f639,Kobieta,32,2021-07-13_21h49.24.086,rantool2,2021.1.4,MacIntel,60.0024001,5d0d3c6c9193b80019e7f639,60d9d14f4a8a35a482e0d9bf,60ededcdd8cca53c4761fb31,f,1.652,0,12,12,23,1,ORORRRO,ORORRRR,22.1285618,21.9921709,series_0
,,,,,,,,5d0d3c6c9193b80019e7f639,Kobieta,32,2021-07-13_21h49.24.086,rantool2,2021.1.4,MacIntel,60.0024001,5d0d3c6c9193b80019e7f639,60d9d14f4a8a35a482e0d9bf,60ededcdd8cca53c4761fb31,j,1.3363,0,13,13,43,1,RORORRO,RORORRR,20.71309134,21.07490964,series_1
,,,,,,,,5d0d3c6c9193b80019e7f639,Kobieta,32,2021-07-13_21h49.24.086,rantool2,2021.1.4,MacIntel,60.0024001,5d0d3c6c9193b80019e7f639,60d9d14f4a8a35a482e0d9bf,60ededcdd8cca53c4761fb31,f,0.7362,0,14,14,11,1,OORORRO,OORORRR,22.18365867,22.6797523,series_1
,,,,,,,,5d0d3c6c9193b80019e7f639,Kobieta,32,2021-07-13_21h49.24.086,rantool2,2021.1.4,MacIntel,60.0024001,5d0d3c6c9193b80019e7f639,60d9d14f4a8a35a482e0d9bf,60ededcdd8cca53c4761fb31,j,1.1359,0,15,15,36,1,ROOROOO,ROOROOR,21.07991943,20.9984461,series_0
,,,,,,,,5d0d3c6c9193b80019e7f639,Kobieta,32,2021-07-13_21h49.24.086,rantool2,2021.1.4,MacIntel,60.0024001,5d0d3c6c9193b80019e7f639,60d9d14f4a8a35a482e0d9bf,60ededcdd8cca53c4761fb31,f,1.2527,0,16,16,40,1,ROROOOO,ROROOOR,20.87963819,21.37121559,series_1
,,,,,,,,5d0d3c6c9193b80019e7f639,Kobieta,32,2021-07-13_21h49.24.086,rantool2,2021.1.4,MacIntel,60.0024001,5d0d3c6c9193b80019e7f639,60d9d14f4a8a35a482e0d9bf,60ededcdd8cca53c4761fb31,j,1.2191,0,17,17,12,1,OORROOO,OORROOR,21.30250474,22.02786418,series_1
,,,,,,,,5d0d3c6c9193b80019e7f639,Kobieta,32,2021-07-13_21h49.24.086,rantool2,2021.1.4,MacIntel,60.0024001,5d0d3c6c9193b80019e7f639,60d9d14f4a8a35a482e0d9bf,60ededcdd8cca53c4761fb31,f,1.6988,0,18,18,57,1,RRROORO,RRROORR,21.82425538,22.07102821,series_1
,,,,,,,,5d0d3c6c9193b80019e7f639,Kobieta,32,2021-07-13_21h49.24.086,rantool2,2021.1.4,MacIntel,60.0024001,5d0d3c6c9193b80019e7f639,60d9d14f4a8a35a482e0d9bf,60ededcdd8cca53c4761fb31,j,1.4705,0,19,19,19,1,OROORRO,OROORRR,21.73568164,22.11181017,series_1
,,,,,,,,5d0d3c6c9193b80019e7f639,Kobieta,32,2021-07-13_21h49.24.086,rantool2,2021.1.4,MacIntel,60.0024001,5d0d3c6c9193b80019e7f639,60d9d14f4a8a35a482e0d9bf,60ededcdd8cca53c4761fb31,f,1.5877,0,20,20,56,1,RRROOOO,RRROOOR,21.6194508,22.31681875,series_1
,,,,,,,,5d0d3c6c9193b80019e7f639,Kobieta,32,2021-07-13_21h49.24.086,rantool2,2021.1.4,MacIntel,60.0024001,5d0d3c6c9193b80019e7f639,60d9d14f4a8a35a482e0d9bf,60ededcdd8cca53c4761fb31,f,1.5879,0,21,21,13,1,OORRORO,OORRORR,21.66733484,22.11181017,series_1
,,,,,,,,5d0d3c6c9193b80019e7f639,Kobieta,32,2021-07-13_21h49.24.086,rantool2,2021.1.4,MacIntel,60.0024001,5d0d3c6c9193b80019e7f639,60d9d14f4a8a35a482e0d9bf,60ededcdd8cca53c4761fb31,f,1.2004,0,22,22,27,1,ORRORRO,ORRORRR,21.55250791,22.2428857,series_1
,,,,,,,,5d0d3c6c9193b80019e7f639,Kobieta,32,2021-07-13_21h49.24.086,rantool2,2021.1.4,MacIntel,60.0024001,5d0d3c6c9193b80019e7f639,60d9d14f4a8a35a482e0d9bf,60ededcdd8cca53c4761fb31,j,1.3199,0,23,23,48,1,RROOOOO,RROOOOR,20.90986523,22.15934078,series_1
,,,,,,,,5d0d3c6c9193b80019e7f639,Kobieta,32,2021-07-13_21h49.24.086,rantool2,2021.1.4,MacIntel,60.0024001,5d0d3c6c9193b80019e7f639,60d9d14f4a8a35a482e0d9bf,60ededcdd8cca53c4761fb31,f,1.052,0,24,24,2,1,OOOOROO,OOOOROR,20.43051175,21.02936224,series_1
,,,,,,,,5d0d3c6c9193b80019e7f639,Kobieta,32,2021-07-13_21h49.24.086,rantool2,2021.1.4,MacIntel,60.0024001,5d0d3c6c9193b80019e7f639,60d9d14f4a8a35a482e0d9bf,60ededcdd8cca53c4761fb31,f,2.2185,0,25,25,1,1,OOOOORO,OOOOORR,19.92253567,20.74050628,series_1
,,,,,,,,5d0d3c6c9193b80019e7f639,Kobieta,32,2021-07-13_21h49.24.086,rantool2,2021.1.4,MacIntel,60.0024001,5d0d3c6c9193b80019e7f639,60d9d14f4a8a35a482e0d9bf,60ededcdd8cca53c4761fb31,j,1.2356,0,26,26,17,1,OROOORO,OROOORR,21.03750787,22.12173012,series_1
,,,,,,,,5d0d3c6c9193b80019e7f639,Kobieta,32,2021-07-13_21h49.24.086,rantool2,2021.1.4,MacIntel,60.0024001,5d0d3c6c9193b80019e7f639,60d9d14f4a8a35a482e0d9bf,60ededcdd8cca53c4761fb31,j,0.9879,0,27,27,3,1,OOOORRO,OOOORRR,20.90986523,21.74922619,series_1
,,,,,,,,5d0d3c6c9193b80019e7f639,Kobieta,32,2021-07-13_21h49.24.086,rantool2,2021.1.4,MacIntel,60.0024001,5d0d3c6c9193b80019e7f639,60d9d14f4a8a35a482e0d9bf,60ededcdd8cca53c4761fb31,j,1.7876,0,28,28,39,1,ROORRRO,ROORRRR,21.82425538,21.38562617,series_0
,,,,,,,,5d0d3c6c9193b80019e7f639,Kobieta,32,2021-07-13_21h49.24.086,rantool2,2021.1.4,MacIntel,60.0024001,5d0d3c6c9193b80019e7f639,60d9d14f4a8a35a482e0d9bf,60ededcdd8cca53c4761fb31,j,4.3387,0,29,29,53,1,RRORORO,RRORORR,20.71309134,21.90565814,series_1
,,,,,,,,5d0d3c6c9193b80019e7f639,Kobieta,32,2021-07-13_21h49.24.086,rantool2,2021.1.4,MacIntel,60.0024001,5d0d3c6c9193b80019e7f639,60d9d14f4a8a35a482e0d9bf,60ededcdd8cca53c4761fb31,f,1.402,0,30,30,62,1,RRRRROO,RRRRROR,22.16413392,21.27974287,series_0
,,,,,,,,5d0d3c6c9193b80019e7f639,Kobieta,32,2021-07-13_21h49.24.086,rantool2,2021.1.4,MacIntel,60.0024001,5d0d3c6c9193b80019e7f639,60d9d14f4a8a35a482e0d9bf,60ededcdd8cca53c4761fb31,j,1.0206,0,31,31,14,1,OORRROO,OORRROR,22.24142883,22.16977179,series_0
,,,,,,,,5d0d3c6c9193b80019e7f639,Kobieta,32,2021-07-13_21h49.24.086,rantool2,2021.1.4,MacIntel,60.0024001,5d0d3c6c9193b80019e7f639,60d9d14f4a8a35a482e0d9bf,60ededcdd8cca53c4761fb31,f,0.9882,0,32,32,26,1,ORROROO,ORROROR,22.02732763,21.71443381,series_0
,,,,,,,,5d0d3c6c9193b80019e7f639,Kobieta,32,2021-07-13_21h49.24.086,rantool2,2021.1.4,MacIntel,60.0024001,5d0d3c6c9193b80019e7f639,60d9d14f4a8a35a482e0d9bf,60ededcdd8cca53c4761fb31,f,1.5876,0,33,33,25,1,ORROORO,ORROORR,21.79500819,22.61624387,series_1
,,,,,,,,5d0d3c6c9193b80019e7f639,Kobieta,32,2021-07-13_21h49.24.086,rantool2,2021.1.4,MacIntel,60.0024001,5d0d3c6c9193b80019e7f639,60d9d14f4a8a35a482e0d9bf,60ededcdd8cca53c4761fb31,f,0.9359,0,34,34,44,1,RORROOO,RORROOR,21.66733484,22.02566557,series_1
,,,,,,,,5d0d3c6c9193b80019e7f639,Kobieta,32,2021-07-13_21h49.24.086,rantool2,2021.1.4,MacIntel,60.0024001,5d0d3c6c9193b80019e7f639,60d9d14f4a8a35a482e0d9bf,60ededcdd8cca53c4761fb31,j,1.0528,0,35,35,15,1,OORRRRO,OORRRRR,22.10108823,21.74922619,series_0
,,,,,,,,5d0d3c6c9193b80019e7f639,Kobieta,32,2021-07-13_21h49.24.086,rantool2,2021.1.4,MacIntel,60.0024001,5d0d3c6c9193b80019e7f639,60d9d14f4a8a35a482e0d9bf,60ededcdd8cca53c4761fb31,f,1.2352,0,36,36,10,1,OOROROO,OOROROR,21.31236711,21.07490964,series_0
,,,,,,,,5d0d3c6c9193b80019e7f639,Kobieta,32,2021-07-13_21h49.24.086,rantool2,2021.1.4,MacIntel,60.0024001,5d0d3c6c9193b80019e7f639,60d9d14f4a8a35a482e0d9bf,60ededcdd8cca53c4761fb31,j,1.1788,0,37,37,24,1,ORROOOO,ORROOOR,21.12383932,22.07102821,series_1
,,,,,,,,5d0d3c6c9193b80019e7f639,Kobieta,32,2021-07-13_21h49.24.086,rantool2,2021.1.4,MacIntel,60.0024001,5d0d3c6c9193b80019e7f639,60d9d14f4a8a35a482e0d9bf,60ededcdd8cca53c4761fb31,f,1.173,0,38,38,63,1,RRRRRRO,RRRRRRR,21.35278725,19.62521613,series_0
,,,,,,,,5d0d3c6c9193b80019e7f639,Kobieta,32,2021-07-13_21h49.24.086,rantool2,2021.1.4,MacIntel,60.0024001,5d0d3c6c9193b80019e7f639,60d9d14f4a8a35a482e0d9bf,60ededcdd8cca53c4761fb31,f,1.0175,0,39,39,21,1,ORORORO,ORORORR,20.39515459,22.06781359,series_1
,,,,,,,,5d0d3c6c9193b80019e7f639,Kobieta,32,2021-07-13_21h49.24.086,rantool2,2021.1.4,MacIntel,60.0024001,5d0d3c6c9193b80019e7f639,60d9d14f4a8a35a482e0d9bf,60ededcdd8cca53c4761fb31,j,0.5684,0,40,40,60,1,RRRROOO,RRRROOR,22.10108823,22.15934078,series_1
,,,,,,,,5d0d3c6c9193b80019e7f639,Kobieta,32,2021-07-13_21h49.24.086,rantool2,2021.1.4,MacIntel,60.0024001,5d0d3c6c9193b80019e7f639,60d9d14f4a8a35a482e0d9bf,60ededcdd8cca53c4761fb31,f,0.4862,0,41,41,61,1,RRRRORO,RRRRORR,21.81333602,21.17347734,series_0
,,,,,,,,5d0d3c6c9193b80019e7f639,Kobieta,32,2021-07-13_21h49.24.086,rantool2,2021.1.4,MacIntel,60.0024001,5d0d3c6c9193b80019e7f639,60d9d14f4a8a35a482e0d9bf,60ededcdd8cca53c4761fb31,f,1.1708,0,42,42,22,1,ORORROO,ORORROR,22.02732763,21.57657071,series_0
,,,,,,,,5d0d3c6c9193b80019e7f639,Kobieta,32,2021-07-13_21h49.24.086,rantool2,2021.1.4,MacIntel,60.0024001,5d0d3c6c9193b80019e7f639,60d9d14f4a8a35a482e0d9bf,60ededcdd8cca53c4761fb31,f,1.3882,0,43,43,37,1,ROORORO,ROORORR,20.42602454,21.57657071,series_1
,,,,,,,,5d0d3c6c9193b80019e7f639,Kobieta,32,2021-07-13_21h49.24.086,rantool2,2021.1.4,MacIntel,60.0024001,5d0d3c6c9193b80019e7f639,60d9d14f4a8a35a482e0d9bf,60ededcdd8cca53c4761fb31,f,1.2905,0,44,44,6,1,OOORROO,OOORROR,21.12383932,21.38562617,series_1
,,,,,,,,5d0d3c6c9193b80019e7f639,Kobieta,32,2021-07-13_21h49.24.086,rantool2,2021.1.4,MacIntel,60.0024001,5d0d3c6c9193b80019e7f639,60d9d14f4a8a35a482e0d9bf,60ededcdd8cca53c4761fb31,j,1.1861,0,45,45,18,1,OROOROO,OROOROR,20.84860893,21.22513037,series_1
,,,,,,,,5d0d3c6c9193b80019e7f639,Kobieta,32,2021-07-13_21h49.24.086,rantool2,2021.1.4,MacIntel,60.0024001,5d0d3c6c9193b80019e7f639,60d9d14f4a8a35a482e0d9bf,60ededcdd8cca53c4761fb31,f,0.7882,0,46,46,58,1,RRROROO,RRROROR,22.1285618,21.37121559,series_0
,,,,,,,,5d0d3c6c9193b80019e7f639,Kobieta,32,2021-07-13_21h49.24.086,rantool2,2021.1.4,MacIntel,60.0024001,5d0d3c6c9193b80019e7f639,60d9d14f4a8a35a482e0d9bf,60ededcdd8cca53c4761fb31,j,0.7871,0,47,47,42,1,ROROROO,ROROROR,20.39515459,19.8361834,series_0
,,,,,,,,5d0d3c6c9193b80019e7f639,Kobieta,32,2021-07-13_21h49.24.086,rantool2,2021.1.4,MacIntel,60.0024001,5d0d3c6c9193b80019e7f639,60d9d14f4a8a35a482e0d9bf,60ededcdd8cca53c4761fb31,f,1.353,0,48,48,31,1,ORRRRRO,ORRRRRR,22.16413392,20.74050628,series_0
,,,,,,,,5d0d3c6c9193b80019e7f639,Kobieta,32,2021-07-13_21h49.24.086,rantool2,2021.1.4,MacIntel,60.0024001,5d0d3c6c9193b80019e7f639,60d9d14f4a8a35a482e0d9bf,60ededcdd8cca53c4761fb31,j,1.1019,0,49,49,51,1,RROORRO,RROORRR,21.89852628,22.02786418,series_1
,,,,,,,,5d0d3c6c9193b80019e7f639,Kobieta,32,2021-07-13_21h49.24.086,rantool2,2021.1.4,MacIntel,60.0024001,5d0d3c6c9193b80019e7f639,60d9d14f4a8a35a482e0d9bf,60ededcdd8cca53c4761fb31,f,1.0547,0,50,50,29,1,ORRRORO,ORRRORR,22.00300695,22.12173012,series_1
,,,,,,,,5d0d3c6c9193b80019e7f639,Kobieta,32,2021-07-13_21h49.24.086,rantool2,2021.1.4,MacIntel,60.0024001,5d0d3c6c9193b80019e7f639,60d9d14f4a8a35a482e0d9bf,60ededcdd8cca53c4761fb31,j,1.1178,0,51,51,33,1,ROOOORO,ROOOORR,20.83779602,22.03072203,series_1
,,,,,,,,5d0d3c6c9193b80019e7f639,Kobieta,32,2021-07-13_21h49.24.086,rantool2,2021.1.4,MacIntel,60.0024001,5d0d3c6c9193b80019e7f639,60d9d14f4a8a35a482e0d9bf,60ededcdd8cca53c4761fb31,j,1.057,0,52,52,46,1,RORRROO,RORRROR,22.00300695,21.24781509,series_0
,,,,,,,,5d0d3c6c9193b80019e7f639,Kobieta,32,2021-07-13_21h49.24.086,rantool2,2021.1.4,MacIntel,60.0024001,5d0d3c6c9193b80019e7f639,60d9d14f4a8a35a482e0d9bf,60ededcdd8cca53c4761fb31,j,1.437,0,53,53,50,1,RROOROO,RROOROR,21.73568164,22.02566557,series_1
,,,,,,,,5d0d3c6c9193b80019e7f639,Kobieta,32,2021-07-13_21h49.24.086,rantool2,2021.1.4,MacIntel,60.0024001,5d0d3c6c9193b80019e7f639,60d9d14f4a8a35a482e0d9bf,60ededcdd8cca53c4761fb31,f,0.9664,0,54,54,4,1,OOOROOO,OOOROOR,19.91402015,21.21223021,series_1
,,,,,,,,5d0d3c6c9193b80019e7f639,Kobieta,32,2021-07-13_21h49.24.086,rantool2,2021.1.4,MacIntel,60.0024001,5d0d3c6c9193b80019e7f639,60d9d14f4a8a35a482e0d9bf,60ededcdd8cca53c4761fb31,j,0.8522,0,55,55,0,1,OOOOOOO,OOOOOOR,18.52739004,19.62521613,series_1
,,,,,,,,5d0d3c6c9193b80019e7f639,Kobieta,32,2021-07-13_21h49.24.086,rantool2,2021.1.4,MacIntel,60.0024001,5d0d3c6c9193b80019e7f639,60d9d14f4a8a35a482e0d9bf,60ededcdd8cca53c4761fb31,j,1.1192,0,56,56,9,1,OOROORO,OOROORR,21.07991943,22.2428857,series_1
,,,,,,,,5d0d3c6c9193b80019e7f639,Kobieta,32,2021-07-13_21h49.24.086,rantool2,2021.1.4,MacIntel,60.0024001,5d0d3c6c9193b80019e7f639,60d9d14f4a8a35a482e0d9bf,60ededcdd8cca53c4761fb31,j,1.3679,0,57,57,35,1,ROOORRO,ROOORRR,21.76276513,22.16977179,series_1
,,,,,,,,5d0d3c6c9193b80019e7f639,Kobieta,32,2021-07-13_21h49.24.086,rantool2,2021.1.4,MacIntel,60.0024001,5d0d3c6c9193b80019e7f639,60d9d14f4a8a35a482e0d9bf,60ededcdd8cca53c4761fb31,j,1.0355,0,58,58,55,1,RRORRRO,RRORRRR,21.56657303,21.21223021,series_0
,,,,,,,,5d0d3c6c9193b80019e7f639,Kobieta,32,2021-07-13_21h49.24.086,rantool2,2021.1.4,MacIntel,60.0024001,5d0d3c6c9193b80019e7f639,60d9d14f4a8a35a482e0d9bf,60ededcdd8cca53c4761fb31,j,0.9303,0,59,59,8,1,OOROOOO,OOROOOR,19.91402015,20.89823192,series_1
,,,,,,,,5d0d3c6c9193b80019e7f639,Kobieta,32,2021-07-13_21h49.24.086,rantool2,2021.1.4,MacIntel,60.0024001,5d0d3c6c9193b80019e7f639,60d9d14f4a8a35a482e0d9bf,60ededcdd8cca53c4761fb31,j,1.3832,0,60,60,38,1,ROORROO,ROORROR,21.79500819,21.36812781,series_0
,,,,,,,,5d0d3c6c9193b80019e7f639,Kobieta,32,2021-07-13_21h49.24.086,rantool2,2021.1.4,MacIntel,60.0024001,5d0d3c6c9193b80019e7f639,60d9d14f4a8a35a482e0d9bf,60ededcdd8cca53c4761fb31,f,1.4318,0,61,61,7,1,OOORRRO,OOORRRR,21.6194508,21.899017,series_1
,,,,,,,,5d0d3c6c9193b80019e7f639,Kobieta,32,2021-07-13_21h49.24.086,rantool2,2021.1.4,MacIntel,60.0024001,5d0d3c6c9193b80019e7f639,60d9d14f4a8a35a482e0d9bf,60ededcdd8cca53c4761fb31,f,1.1869,0,62,62,16,1,OROOOOO,OROOOOR,20.43051175,21.17347734,series_1
,,,,,,,,5d0d3c6c9193b80019e7f639,Kobieta,32,2021-07-13_21h49.24.086,rantool2,2021.1.4,MacIntel,60.0024001,5d0d3c6c9193b80019e7f639,60d9d14f4a8a35a482e0d9bf,60ededcdd8cca53c4761fb31,j,1.0849,0,63,63,41,1,ROROORO,ROROORR,20.42602454,21.71443381,series_1
