key_resp_7.keys,key_resp_7.rt,trials_2.thisRepN,trials_2.thisTrialN,trials_2.thisN,trials_2.thisIndex,trials_2.ran,id,series_0,series_1,acss_0,acss_1,comparison,id*,Płeć*,Wiek*,date,expName,psychopyVersion,OS,frameRate,STUDY_ID,SESSION_ID,key_resp_5.keys,key_resp_5.corr,key_resp_5.rt,trials.thisRepN,trials.thisTrialN,trials.thisN,trials.thisIndex,trials.ran
j,3.1748,0,0,0,35,1,5f36623f389f370009a0be44,ROOORRO,ROOORRR,21.76276513,22.16977179,series_1,5f36623f389f370009a0be44,Mężczyzna,25,2021-09-06_19h09.37.832,rantool2,2021.1.4,Win32,59.98080614,6135e006383e6ea6c3d06a28,61364b4061bd2dc68166d04e,,,,,,,,
f,1.5656,0,1,1,61,1,5f36623f389f370009a0be44,RRRRORO,RRRRORR,21.81333602,21.17347734,series_0,5f36623f389f370009a0be44,Mężczyzna,25,2021-09-06_19h09.37.832,rantool2,2021.1.4,Win32,59.98080614,6135e006383e6ea6c3d06a28,61364b4061bd2dc68166d04e,,,,,,,,
f,1.5507,0,2,2,62,1,5f36623f389f370009a0be44,RRRRROO,RRRRROR,22.16413392,21.27974287,series_0,5f36623f389f370009a0be44,Mężczyzna,25,2021-09-06_19h09.37.832,rantool2,2021.1.4,Win32,59.98080614,6135e006383e6ea6c3d06a28,61364b4061bd2dc68166d04e,,,,,,,,
j,1.3015,0,3,3,60,1,5f36623f389f370009a0be44,RRRROOO,RRRROOR,22.10108823,22.15934078,series_1,5f36623f389f370009a0be44,Mężczyzna,25,2021-09-06_19h09.37.832,rantool2,2021.1.4,Win32,59.98080614,6135e006383e6ea6c3d06a28,61364b4061bd2dc68166d04e,,,,,,,,
j,1.6578,0,4,4,57,1,5f36623f389f370009a0be44,RRROORO,RRROORR,21.82425538,22.07102821,series_1,5f36623f389f370009a0be44,Mężczyzna,25,2021-09-06_19h09.37.832,rantool2,2021.1.4,Win32,59.98080614,6135e006383e6ea6c3d06a28,61364b4061bd2dc68166d04e,,,,,,,,
f,1.6185,0,5,5,12,1,5f36623f389f370009a0be44,OORROOO,OORROOR,21.30250474,22.02786418,series_1,5f36623f389f370009a0be44,Mężczyzna,25,2021-09-06_19h09.37.832,rantool2,2021.1.4,Win32,59.98080614,6135e006383e6ea6c3d06a28,61364b4061bd2dc68166d04e,,,,,,,,
j,2.1677,0,6,6,16,1,5f36623f389f370009a0be44,OROOOOO,OROOOOR,20.43051175,21.17347734,series_1,5f36623f389f370009a0be44,Mężczyzna,25,2021-09-06_19h09.37.832,rantool2,2021.1.4,Win32,59.98080614,6135e006383e6ea6c3d06a28,61364b4061bd2dc68166d04e,,,,,,,,
f,1.1666,0,7,7,8,1,5f36623f389f370009a0be44,OOROOOO,OOROOOR,19.91402015,20.89823192,series_1,5f36623f389f370009a0be44,Mężczyzna,25,2021-09-06_19h09.37.832,rantool2,2021.1.4,Win32,59.98080614,6135e006383e6ea6c3d06a28,61364b4061bd2dc68166d04e,,,,,,,,
j,1.2585,0,8,8,18,1,5f36623f389f370009a0be44,OROOROO,OROOROR,20.84860893,21.22513037,series_1,5f36623f389f370009a0be44,Mężczyzna,25,2021-09-06_19h09.37.832,rantool2,2021.1.4,Win32,59.98080614,6135e006383e6ea6c3d06a28,61364b4061bd2dc68166d04e,,,,,,,,
j,1.4341,0,9,9,41,1,5f36623f389f370009a0be44,ROROORO,ROROORR,20.42602454,21.71443381,series_1,5f36623f389f370009a0be44,Mężczyzna,25,2021-09-06_19h09.37.832,rantool2,2021.1.4,Win32,59.98080614,6135e006383e6ea6c3d06a28,61364b4061bd2dc68166d04e,,,,,,,,
f,2.2623,0,10,10,47,1,5f36623f389f370009a0be44,RORRRRO,RORRRRR,21.81333602,21.02936224,series_0,5f36623f389f370009a0be44,Mężczyzna,25,2021-09-06_19h09.37.832,rantool2,2021.1.4,Win32,59.98080614,6135e006383e6ea6c3d06a28,61364b4061bd2dc68166d04e,,,,,,,,
f,1.8788,0,11,11,37,1,5f36623f389f370009a0be44,ROORORO,ROORORR,20.42602454,21.57657071,series_1,5f36623f389f370009a0be44,Mężczyzna,25,2021-09-06_19h09.37.832,rantool2,2021.1.4,Win32,59.98080614,6135e006383e6ea6c3d06a28,61364b4061bd2dc68166d04e,,,,,,,,
j,1.413,0,12,12,17,1,5f36623f389f370009a0be44,OROOORO,OROOORR,21.03750787,22.12173012,series_1,5f36623f389f370009a0be44,Mężczyzna,25,2021-09-06_19h09.37.832,rantool2,2021.1.4,Win32,59.98080614,6135e006383e6ea6c3d06a28,61364b4061bd2dc68166d04e,,,,,,,,
f,1.1968,0,13,13,43,1,5f36623f389f370009a0be44,RORORRO,RORORRR,20.71309134,21.07490964,series_1,5f36623f389f370009a0be44,Mężczyzna,25,2021-09-06_19h09.37.832,rantool2,2021.1.4,Win32,59.98080614,6135e006383e6ea6c3d06a28,61364b4061bd2dc68166d04e,,,,,,,,
j,1.3183,0,14,14,36,1,5f36623f389f370009a0be44,ROOROOO,ROOROOR,21.07991943,20.9984461,series_0,5f36623f389f370009a0be44,Mężczyzna,25,2021-09-06_19h09.37.832,rantool2,2021.1.4,Win32,59.98080614,6135e006383e6ea6c3d06a28,61364b4061bd2dc68166d04e,,,,,,,,
f,1.2829,0,15,15,51,1,5f36623f389f370009a0be44,RROORRO,RROORRR,21.89852628,22.02786418,series_1,5f36623f389f370009a0be44,Mężczyzna,25,2021-09-06_19h09.37.832,rantool2,2021.1.4,Win32,59.98080614,6135e006383e6ea6c3d06a28,61364b4061bd2dc68166d04e,,,,,,,,
j,1.7617,0,16,16,38,1,5f36623f389f370009a0be44,ROORROO,ROORROR,21.79500819,21.36812781,series_0,5f36623f389f370009a0be44,Mężczyzna,25,2021-09-06_19h09.37.832,rantool2,2021.1.4,Win32,59.98080614,6135e006383e6ea6c3d06a28,61364b4061bd2dc68166d04e,,,,,,,,
f,0.603,0,17,17,6,1,5f36623f389f370009a0be44,OOORROO,OOORROR,21.12383932,21.38562617,series_1,5f36623f389f370009a0be44,Mężczyzna,25,2021-09-06_19h09.37.832,rantool2,2021.1.4,Win32,59.98080614,6135e006383e6ea6c3d06a28,61364b4061bd2dc68166d04e,,,,,,,,
f,1.5561,0,18,18,31,1,5f36623f389f370009a0be44,ORRRRRO,ORRRRRR,22.16413392,20.74050628,series_0,5f36623f389f370009a0be44,Mężczyzna,25,2021-09-06_19h09.37.832,rantool2,2021.1.4,Win32,59.98080614,6135e006383e6ea6c3d06a28,61364b4061bd2dc68166d04e,,,,,,,,
j,1.4207,0,19,19,34,1,5f36623f389f370009a0be44,ROOOROO,ROOOROR,21.03750787,21.24781509,series_1,5f36623f389f370009a0be44,Mężczyzna,25,2021-09-06_19h09.37.832,rantool2,2021.1.4,Win32,59.98080614,6135e006383e6ea6c3d06a28,61364b4061bd2dc68166d04e,,,,,,,,
f,1.5034,0,20,20,45,1,5f36623f389f370009a0be44,RORRORO,RORRORR,20.78182524,21.22513037,series_1,5f36623f389f370009a0be44,Mężczyzna,25,2021-09-06_19h09.37.832,rantool2,2021.1.4,Win32,59.98080614,6135e006383e6ea6c3d06a28,61364b4061bd2dc68166d04e,,,,,,,,
j,1.4392,0,21,21,14,1,5f36623f389f370009a0be44,OORRROO,OORRROR,22.24142883,22.16977179,series_0,5f36623f389f370009a0be44,Mężczyzna,25,2021-09-06_19h09.37.832,rantool2,2021.1.4,Win32,59.98080614,6135e006383e6ea6c3d06a28,61364b4061bd2dc68166d04e,,,,,,,,
j,1.4854,0,22,22,28,1,5f36623f389f370009a0be44,ORRROOO,ORRROOR,22.24142883,22.53364006,series_1,5f36623f389f370009a0be44,Mężczyzna,25,2021-09-06_19h09.37.832,rantool2,2021.1.4,Win32,59.98080614,6135e006383e6ea6c3d06a28,61364b4061bd2dc68166d04e,,,,,,,,
f,1.4668,0,23,23,26,1,5f36623f389f370009a0be44,ORROROO,ORROROR,22.02732763,21.71443381,series_0,5f36623f389f370009a0be44,Mężczyzna,25,2021-09-06_19h09.37.832,rantool2,2021.1.4,Win32,59.98080614,6135e006383e6ea6c3d06a28,61364b4061bd2dc68166d04e,,,,,,,,
j,1.3437,0,24,24,22,1,5f36623f389f370009a0be44,ORORROO,ORORROR,22.02732763,21.57657071,series_0,5f36623f389f370009a0be44,Mężczyzna,25,2021-09-06_19h09.37.832,rantool2,2021.1.4,Win32,59.98080614,6135e006383e6ea6c3d06a28,61364b4061bd2dc68166d04e,,,,,,,,
j,1.4177,0,25,25,48,1,5f36623f389f370009a0be44,RROOOOO,RROOOOR,20.90986523,22.15934078,series_1,5f36623f389f370009a0be44,Mężczyzna,25,2021-09-06_19h09.37.832,rantool2,2021.1.4,Win32,59.98080614,6135e006383e6ea6c3d06a28,61364b4061bd2dc68166d04e,,,,,,,,
f,1.4055,0,26,26,40,1,5f36623f389f370009a0be44,ROROOOO,ROROOOR,20.87963819,21.37121559,series_1,5f36623f389f370009a0be44,Mężczyzna,25,2021-09-06_19h09.37.832,rantool2,2021.1.4,Win32,59.98080614,6135e006383e6ea6c3d06a28,61364b4061bd2dc68166d04e,,,,,,,,
f,1.4296,0,27,27,49,1,5f36623f389f370009a0be44,RROOORO,RROOORR,21.76276513,22.53364006,series_1,5f36623f389f370009a0be44,Mężczyzna,25,2021-09-06_19h09.37.832,rantool2,2021.1.4,Win32,59.98080614,6135e006383e6ea6c3d06a28,61364b4061bd2dc68166d04e,,,,,,,,
j,1.3204,0,28,28,5,1,5f36623f389f370009a0be44,OOORORO,OOORORR,20.87963819,21.9921709,series_1,5f36623f389f370009a0be44,Mężczyzna,25,2021-09-06_19h09.37.832,rantool2,2021.1.4,Win32,59.98080614,6135e006383e6ea6c3d06a28,61364b4061bd2dc68166d04e,,,,,,,,
j,1.3669,0,29,29,58,1,5f36623f389f370009a0be44,RRROROO,RRROROR,22.1285618,21.37121559,series_0,5f36623f389f370009a0be44,Mężczyzna,25,2021-09-06_19h09.37.832,rantool2,2021.1.4,Win32,59.98080614,6135e006383e6ea6c3d06a28,61364b4061bd2dc68166d04e,,,,,,,,
j,1.364,0,30,30,25,1,5f36623f389f370009a0be44,ORROORO,ORROORR,21.79500819,22.61624387,series_1,5f36623f389f370009a0be44,Mężczyzna,25,2021-09-06_19h09.37.832,rantool2,2021.1.4,Win32,59.98080614,6135e006383e6ea6c3d06a28,61364b4061bd2dc68166d04e,,,,,,,,
j,1.3831,0,31,31,7,1,5f36623f389f370009a0be44,OOORRRO,OOORRRR,21.6194508,21.899017,series_1,5f36623f389f370009a0be44,Mężczyzna,25,2021-09-06_19h09.37.832,rantool2,2021.1.4,Win32,59.98080614,6135e006383e6ea6c3d06a28,61364b4061bd2dc68166d04e,,,,,,,,
f,1.2977,0,32,32,39,1,5f36623f389f370009a0be44,ROORRRO,ROORRRR,21.82425538,21.38562617,series_0,5f36623f389f370009a0be44,Mężczyzna,25,2021-09-06_19h09.37.832,rantool2,2021.1.4,Win32,59.98080614,6135e006383e6ea6c3d06a28,61364b4061bd2dc68166d04e,,,,,,,,
f,1.2427,0,33,33,52,1,5f36623f389f370009a0be44,RROROOO,RROROOR,22.18365867,22.11097995,series_0,5f36623f389f370009a0be44,Mężczyzna,25,2021-09-06_19h09.37.832,rantool2,2021.1.4,Win32,59.98080614,6135e006383e6ea6c3d06a28,61364b4061bd2dc68166d04e,,,,,,,,
j,1.2672,0,34,34,55,1,5f36623f389f370009a0be44,RRORRRO,RRORRRR,21.56657303,21.21223021,series_0,5f36623f389f370009a0be44,Mężczyzna,25,2021-09-06_19h09.37.832,rantool2,2021.1.4,Win32,59.98080614,6135e006383e6ea6c3d06a28,61364b4061bd2dc68166d04e,,,,,,,,
f,1.2038,0,35,35,46,1,5f36623f389f370009a0be44,RORRROO,RORRROR,22.00300695,21.24781509,series_0,5f36623f389f370009a0be44,Mężczyzna,25,2021-09-06_19h09.37.832,rantool2,2021.1.4,Win32,59.98080614,6135e006383e6ea6c3d06a28,61364b4061bd2dc68166d04e,,,,,,,,
f,1.0974,0,36,36,20,1,5f36623f389f370009a0be44,OROROOO,OROROOR,21.31236711,21.90565814,series_1,5f36623f389f370009a0be44,Mężczyzna,25,2021-09-06_19h09.37.832,rantool2,2021.1.4,Win32,59.98080614,6135e006383e6ea6c3d06a28,61364b4061bd2dc68166d04e,,,,,,,,
j,1.5212,0,37,37,29,1,5f36623f389f370009a0be44,ORRRORO,ORRRORR,22.00300695,22.12173012,series_1,5f36623f389f370009a0be44,Mężczyzna,25,2021-09-06_19h09.37.832,rantool2,2021.1.4,Win32,59.98080614,6135e006383e6ea6c3d06a28,61364b4061bd2dc68166d04e,,,,,,,,
j,1.6332,0,38,38,30,1,5f36623f389f370009a0be44,ORRRROO,ORRRROR,22.46748491,22.03072203,series_0,5f36623f389f370009a0be44,Mężczyzna,25,2021-09-06_19h09.37.832,rantool2,2021.1.4,Win32,59.98080614,6135e006383e6ea6c3d06a28,61364b4061bd2dc68166d04e,,,,,,,,
j,1.3352,0,39,39,1,1,5f36623f389f370009a0be44,OOOOORO,OOOOORR,19.92253567,20.74050628,series_1,5f36623f389f370009a0be44,Mężczyzna,25,2021-09-06_19h09.37.832,rantool2,2021.1.4,Win32,59.98080614,6135e006383e6ea6c3d06a28,61364b4061bd2dc68166d04e,,,,,,,,
f,1.2506,0,40,40,13,1,5f36623f389f370009a0be44,OORRORO,OORRORR,21.66733484,22.11181017,series_1,5f36623f389f370009a0be44,Mężczyzna,25,2021-09-06_19h09.37.832,rantool2,2021.1.4,Win32,59.98080614,6135e006383e6ea6c3d06a28,61364b4061bd2dc68166d04e,,,,,,,,
j,2.0883,0,41,41,56,1,5f36623f389f370009a0be44,RRROOOO,RRROOOR,21.6194508,22.31681875,series_1,5f36623f389f370009a0be44,Mężczyzna,25,2021-09-06_19h09.37.832,rantool2,2021.1.4,Win32,59.98080614,6135e006383e6ea6c3d06a28,61364b4061bd2dc68166d04e,,,,,,,,
f,1.3068,0,42,42,27,1,5f36623f389f370009a0be44,ORRORRO,ORRORRR,21.55250791,22.2428857,series_1,5f36623f389f370009a0be44,Mężczyzna,25,2021-09-06_19h09.37.832,rantool2,2021.1.4,Win32,59.98080614,6135e006383e6ea6c3d06a28,61364b4061bd2dc68166d04e,,,,,,,,
f,2.1389,0,43,43,50,1,5f36623f389f370009a0be44,RROOROO,RROOROR,21.73568164,22.02566557,series_1,5f36623f389f370009a0be44,Mężczyzna,25,2021-09-06_19h09.37.832,rantool2,2021.1.4,Win32,59.98080614,6135e006383e6ea6c3d06a28,61364b4061bd2dc68166d04e,,,,,,,,
f,1.3438,0,44,44,54,1,5f36623f389f370009a0be44,RRORROO,RRORROR,21.55250791,20.9984461,series_0,5f36623f389f370009a0be44,Mężczyzna,25,2021-09-06_19h09.37.832,rantool2,2021.1.4,Win32,59.98080614,6135e006383e6ea6c3d06a28,61364b4061bd2dc68166d04e,,,,,,,,
j,1.1431,0,45,45,10,1,5f36623f389f370009a0be44,OOROROO,OOROROR,21.31236711,21.07490964,series_0,5f36623f389f370009a0be44,Mężczyzna,25,2021-09-06_19h09.37.832,rantool2,2021.1.4,Win32,59.98080614,6135e006383e6ea6c3d06a28,61364b4061bd2dc68166d04e,,,,,,,,
f,1.1341,0,46,46,42,1,5f36623f389f370009a0be44,ROROROO,ROROROR,20.39515459,19.8361834,series_0,5f36623f389f370009a0be44,Mężczyzna,25,2021-09-06_19h09.37.832,rantool2,2021.1.4,Win32,59.98080614,6135e006383e6ea6c3d06a28,61364b4061bd2dc68166d04e,,,,,,,,
j,1.1068,0,47,47,15,1,5f36623f389f370009a0be44,OORRRRO,OORRRRR,22.10108823,21.74922619,series_0,5f36623f389f370009a0be44,Mężczyzna,25,2021-09-06_19h09.37.832,rantool2,2021.1.4,Win32,59.98080614,6135e006383e6ea6c3d06a28,61364b4061bd2dc68166d04e,,,,,,,,
j,1.5268,0,48,48,44,1,5f36623f389f370009a0be44,RORROOO,RORROOR,21.66733484,22.02566557,series_1,5f36623f389f370009a0be44,Mężczyzna,25,2021-09-06_19h09.37.832,rantool2,2021.1.4,Win32,59.98080614,6135e006383e6ea6c3d06a28,61364b4061bd2dc68166d04e,,,,,,,,
f,2.3684,0,49,49,11,1,5f36623f389f370009a0be44,OORORRO,OORORRR,22.18365867,22.6797523,series_1,5f36623f389f370009a0be44,Mężczyzna,25,2021-09-06_19h09.37.832,rantool2,2021.1.4,Win32,59.98080614,6135e006383e6ea6c3d06a28,61364b4061bd2dc68166d04e,,,,,,,,
f,0.7803,0,50,50,9,1,5f36623f389f370009a0be44,OOROORO,OOROORR,21.07991943,22.2428857,series_1,5f36623f389f370009a0be44,Mężczyzna,25,2021-09-06_19h09.37.832,rantool2,2021.1.4,Win32,59.98080614,6135e006383e6ea6c3d06a28,61364b4061bd2dc68166d04e,,,,,,,,
f,1.0358,0,51,51,4,1,5f36623f389f370009a0be44,OOOROOO,OOOROOR,19.91402015,21.21223021,series_1,5f36623f389f370009a0be44,Mężczyzna,25,2021-09-06_19h09.37.832,rantool2,2021.1.4,Win32,59.98080614,6135e006383e6ea6c3d06a28,61364b4061bd2dc68166d04e,,,,,,,,
j,1.6462,0,52,52,33,1,5f36623f389f370009a0be44,ROOOORO,ROOOORR,20.83779602,22.03072203,series_1,5f36623f389f370009a0be44,Mężczyzna,25,2021-09-06_19h09.37.832,rantool2,2021.1.4,Win32,59.98080614,6135e006383e6ea6c3d06a28,61364b4061bd2dc68166d04e,,,,,,,,
j,0.8744,0,53,53,21,1,5f36623f389f370009a0be44,ORORORO,ORORORR,20.39515459,22.06781359,series_1,5f36623f389f370009a0be44,Mężczyzna,25,2021-09-06_19h09.37.832,rantool2,2021.1.4,Win32,59.98080614,6135e006383e6ea6c3d06a28,61364b4061bd2dc68166d04e,,,,,,,,
f,1.0913,0,54,54,63,1,5f36623f389f370009a0be44,RRRRRRO,RRRRRRR,21.35278725,19.62521613,series_0,5f36623f389f370009a0be44,Mężczyzna,25,2021-09-06_19h09.37.832,rantool2,2021.1.4,Win32,59.98080614,6135e006383e6ea6c3d06a28,61364b4061bd2dc68166d04e,,,,,,,,
f,0.9719,0,55,55,23,1,5f36623f389f370009a0be44,ORORRRO,ORORRRR,22.1285618,21.9921709,series_0,5f36623f389f370009a0be44,Mężczyzna,25,2021-09-06_19h09.37.832,rantool2,2021.1.4,Win32,59.98080614,6135e006383e6ea6c3d06a28,61364b4061bd2dc68166d04e,,,,,,,,
j,1.4587,0,56,56,24,1,5f36623f389f370009a0be44,ORROOOO,ORROOOR,21.12383932,22.07102821,series_1,5f36623f389f370009a0be44,Mężczyzna,25,2021-09-06_19h09.37.832,rantool2,2021.1.4,Win32,59.98080614,6135e006383e6ea6c3d06a28,61364b4061bd2dc68166d04e,,,,,,,,
f,1.047,0,57,57,59,1,5f36623f389f370009a0be44,RRRORRO,RRRORRR,21.56657303,20.89823192,series_0,5f36623f389f370009a0be44,Mężczyzna,25,2021-09-06_19h09.37.832,rantool2,2021.1.4,Win32,59.98080614,6135e006383e6ea6c3d06a28,61364b4061bd2dc68166d04e,,,,,,,,
f,1.3448,0,58,58,2,1,5f36623f389f370009a0be44,OOOOROO,OOOOROR,20.43051175,21.02936224,series_1,5f36623f389f370009a0be44,Mężczyzna,25,2021-09-06_19h09.37.832,rantool2,2021.1.4,Win32,59.98080614,6135e006383e6ea6c3d06a28,61364b4061bd2dc68166d04e,,,,,,,,
j,2.4281,0,59,59,32,1,5f36623f389f370009a0be44,ROOOOOO,ROOOOOR,19.92253567,21.27974287,series_1,5f36623f389f370009a0be44,Mężczyzna,25,2021-09-06_19h09.37.832,rantool2,2021.1.4,Win32,59.98080614,6135e006383e6ea6c3d06a28,61364b4061bd2dc68166d04e,,,,,,,,
j,1.0139,0,60,60,0,1,5f36623f389f370009a0be44,OOOOOOO,OOOOOOR,18.52739004,19.62521613,series_1,5f36623f389f370009a0be44,Mężczyzna,25,2021-09-06_19h09.37.832,rantool2,2021.1.4,Win32,59.98080614,6135e006383e6ea6c3d06a28,61364b4061bd2dc68166d04e,,,,,,,,
f,0.8742,0,61,61,3,1,5f36623f389f370009a0be44,OOOORRO,OOOORRR,20.90986523,21.74922619,series_1,5f36623f389f370009a0be44,Mężczyzna,25,2021-09-06_19h09.37.832,rantool2,2021.1.4,Win32,59.98080614,6135e006383e6ea6c3d06a28,61364b4061bd2dc68166d04e,,,,,,,,
j,0.8301,0,62,62,53,1,5f36623f389f370009a0be44,RRORORO,RRORORR,20.71309134,21.90565814,series_1,5f36623f389f370009a0be44,Mężczyzna,25,2021-09-06_19h09.37.832,rantool2,2021.1.4,Win32,59.98080614,6135e006383e6ea6c3d06a28,61364b4061bd2dc68166d04e,,,,,,,,
f,1.2632,0,63,63,19,1,5f36623f389f370009a0be44,OROORRO,OROORRR,21.73568164,22.11181017,series_1,5f36623f389f370009a0be44,Mężczyzna,25,2021-09-06_19h09.37.832,rantool2,2021.1.4,Win32,59.98080614,6135e006383e6ea6c3d06a28,61364b4061bd2dc68166d04e,,,,,,,,
,,,,,,,5f36623f389f370009a0be44,,,,,,5f36623f389f370009a0be44,Mężczyzna,25,2021-09-06_19h09.37.832,rantool2,2021.1.4,Win32,59.98080614,6135e006383e6ea6c3d06a28,61364b4061bd2dc68166d04e,"[""comma""]",0,[1.9004999999999939],0,0,0,0,1
,,,,,,,5f36623f389f370009a0be44,,,,,,5f36623f389f370009a0be44,Mężczyzna,25,2021-09-06_19h09.37.832,rantool2,2021.1.4,Win32,59.98080614,6135e006383e6ea6c3d06a28,61364b4061bd2dc68166d04e,"[""period""]",0,[1.4100999999046167],1,0,1,0,1
,,,,,,,5f36623f389f370009a0be44,,,,,,5f36623f389f370009a0be44,Mężczyzna,25,2021-09-06_19h09.37.832,rantool2,2021.1.4,Win32,59.98080614,6135e006383e6ea6c3d06a28,61364b4061bd2dc68166d04e,"[""period""]",0,[1.086500000000001],2,0,2,0,1
,,,,,,,5f36623f389f370009a0be44,,,,,,5f36623f389f370009a0be44,Mężczyzna,25,2021-09-06_19h09.37.832,rantool2,2021.1.4,Win32,59.98080614,6135e006383e6ea6c3d06a28,61364b4061bd2dc68166d04e,"[""period"",""period""]",0,"[0.2666000001430291,1.454100000143029]",3,0,3,0,1
,,,,,,,5f36623f389f370009a0be44,,,,,,5f36623f389f370009a0be44,Mężczyzna,25,2021-09-06_19h09.37.832,rantool2,2021.1.4,Win32,59.98080614,6135e006383e6ea6c3d06a28,61364b4061bd2dc68166d04e,"[""comma""]",0,[1.0748999998569673],4,0,4,0,1
,,,,,,,5f36623f389f370009a0be44,,,,,,5f36623f389f370009a0be44,Mężczyzna,25,2021-09-06_19h09.37.832,rantool2,2021.1.4,Win32,59.98080614,6135e006383e6ea6c3d06a28,61364b4061bd2dc68166d04e,"[""comma""]",0,[0.7494999999999834],5,0,5,0,1
,,,,,,,5f36623f389f370009a0be44,,,,,,5f36623f389f370009a0be44,Mężczyzna,25,2021-09-06_19h09.37.832,rantool2,2021.1.4,Win32,59.98080614,6135e006383e6ea6c3d06a28,61364b4061bd2dc68166d04e,"[""period"",""comma""]",0,"[0.31929999995230673,1.9224999999999852]",6,0,6,0,1
,,,,,,,5f36623f389f370009a0be44,,,,,,5f36623f389f370009a0be44,Mężczyzna,25,2021-09-06_19h09.37.832,rantool2,2021.1.4,Win32,59.98080614,6135e006383e6ea6c3d06a28,61364b4061bd2dc68166d04e,"[""comma""]",0,[0.40529999995231947],7,0,7,0,1
,,,,,,,5f36623f389f370009a0be44,,,,,,5f36623f389f370009a0be44,Mężczyzna,25,2021-09-06_19h09.37.832,rantool2,2021.1.4,Win32,59.98080614,6135e006383e6ea6c3d06a28,61364b4061bd2dc68166d04e,"[""period""]",0,[1.0390000000000157],8,0,8,0,1
,,,,,,,5f36623f389f370009a0be44,,,,,,5f36623f389f370009a0be44,Mężczyzna,25,2021-09-06_19h09.37.832,rantool2,2021.1.4,Win32,59.98080614,6135e006383e6ea6c3d06a28,61364b4061bd2dc68166d04e,"[""comma""]",0,[1.4082999999523338],9,0,9,0,1
,,,,,,,5f36623f389f370009a0be44,,,,,,5f36623f389f370009a0be44,Mężczyzna,25,2021-09-06_19h09.37.832,rantool2,2021.1.4,Win32,59.98080614,6135e006383e6ea6c3d06a28,61364b4061bd2dc68166d04e,"[""period""]",0,[1.052700000047679],10,0,10,0,1
,,,,,,,5f36623f389f370009a0be44,,,,,,5f36623f389f370009a0be44,Mężczyzna,25,2021-09-06_19h09.37.832,rantool2,2021.1.4,Win32,59.98080614,6135e006383e6ea6c3d06a28,61364b4061bd2dc68166d04e,"[""period""]",0,[1.017300000190744],11,0,11,0,1
,,,,,,,5f36623f389f370009a0be44,,,,,,5f36623f389f370009a0be44,Mężczyzna,25,2021-09-06_19h09.37.832,rantool2,2021.1.4,Win32,59.98080614,6135e006383e6ea6c3d06a28,61364b4061bd2dc68166d04e,"[""period""]",0,[1.024899999856956],12,0,12,0,1
,,,,,,,5f36623f389f370009a0be44,,,,,,5f36623f389f370009a0be44,Mężczyzna,25,2021-09-06_19h09.37.832,rantool2,2021.1.4,Win32,59.98080614,6135e006383e6ea6c3d06a28,61364b4061bd2dc68166d04e,"[""comma""]",0,[1.093900000095374],13,0,13,0,1
,,,,,,,5f36623f389f370009a0be44,,,,,,5f36623f389f370009a0be44,Mężczyzna,25,2021-09-06_19h09.37.832,rantool2,2021.1.4,Win32,59.98080614,6135e006383e6ea6c3d06a28,61364b4061bd2dc68166d04e,"[""comma""]",0,[1.0891000001430484],14,0,14,0,1
,,,,,,,5f36623f389f370009a0be44,,,,,,5f36623f389f370009a0be44,Mężczyzna,25,2021-09-06_19h09.37.832,rantool2,2021.1.4,Win32,59.98080614,6135e006383e6ea6c3d06a28,61364b4061bd2dc68166d04e,"[""period""]",0,[1.0389999999999873],15,0,15,0,1
,,,,,,,5f36623f389f370009a0be44,,,,,,5f36623f389f370009a0be44,Mężczyzna,25,2021-09-06_19h09.37.832,rantool2,2021.1.4,Win32,59.98080614,6135e006383e6ea6c3d06a28,61364b4061bd2dc68166d04e,"[""comma""]",0,[0.7179999999999893],16,0,16,0,1
,,,,,,,5f36623f389f370009a0be44,,,,,,5f36623f389f370009a0be44,Mężczyzna,25,2021-09-06_19h09.37.832,rantool2,2021.1.4,Win32,59.98080614,6135e006383e6ea6c3d06a28,61364b4061bd2dc68166d04e,"[""period""]",0,[0.28820000004768076],17,0,17,0,1
,,,,,,,5f36623f389f370009a0be44,,,,,,5f36623f389f370009a0be44,Mężczyzna,25,2021-09-06_19h09.37.832,rantool2,2021.1.4,Win32,59.98080614,6135e006383e6ea6c3d06a28,61364b4061bd2dc68166d04e,"[""comma""]",0,[0.4252000000476812],18,0,18,0,1
,,,,,,,5f36623f389f370009a0be44,,,,,,5f36623f389f370009a0be44,Mężczyzna,25,2021-09-06_19h09.37.832,rantool2,2021.1.4,Win32,59.98080614,6135e006383e6ea6c3d06a28,61364b4061bd2dc68166d04e,"[""comma"",""period""]",0,"[0.3359999999999843,0.33630000019073236]",19,0,19,0,1
,,,,,,,5f36623f389f370009a0be44,,,,,,5f36623f389f370009a0be44,Mężczyzna,25,2021-09-06_19h09.37.832,rantool2,2021.1.4,Win32,59.98080614,6135e006383e6ea6c3d06a28,61364b4061bd2dc68166d04e,"[""comma"",""period"",""period"",""comma""]",0,"[0.21710000014306274,0.2864000000953695,1.897500000000008,1.975100000143044]",20,0,20,0,1
,,,,,,,5f36623f389f370009a0be44,,,,,,5f36623f389f370009a0be44,Mężczyzna,25,2021-09-06_19h09.37.832,rantool2,2021.1.4,Win32,59.98080614,6135e006383e6ea6c3d06a28,61364b4061bd2dc68166d04e,"[""period"",""comma""]",0,"[0.4999000000953515,0.5409000000953483]",21,0,21,0,1
,,,,,,,5f36623f389f370009a0be44,,,,,,5f36623f389f370009a0be44,Mężczyzna,25,2021-09-06_19h09.37.832,rantool2,2021.1.4,Win32,59.98080614,6135e006383e6ea6c3d06a28,61364b4061bd2dc68166d04e,"[""comma"",""period"",""comma"",""period"",""comma"",""period"",""comma"",""period""]",0,"[0.14260000014303387,0.14270000004768235,0.6922999999522972,0.6926000001430452,1.1657000000476785,1.182600000143026,1.6084000000953438,1.6499999999999773]",22,0,22,0,1
,,,,,,,5f36623f389f370009a0be44,,,,,,5f36623f389f370009a0be44,Mężczyzna,25,2021-09-06_19h09.37.832,rantool2,2021.1.4,Win32,59.98080614,6135e006383e6ea6c3d06a28,61364b4061bd2dc68166d04e,"[""comma"",""period"",""period"",""comma"",""period"",""comma"",""period"",""comma"",""period"",""comma"",""period"",""period"",""comma""]",0,"[-0.006600000143038187,0.00839999985694817,0.40550000000001774,0.5102999999523092,0.8601999998092822,1.0045000000000073,1.1621999998092747,1.3041999998092706,1.4534999999999911,1.7008999998569436,1.7067999999523238,1.95969999980926,1.980699999809275]",23,0,23,0,1
,,,,,,,5f36623f389f370009a0be44,,,,,,5f36623f389f370009a0be44,Mężczyzna,25,2021-09-06_19h09.37.832,rantool2,2021.1.4,Win32,59.98080614,6135e006383e6ea6c3d06a28,61364b4061bd2dc68166d04e,"[""comma"",""period"",""period"",""period"",""comma"",""period"",""comma"",""period"",""comma"",""period""]",0,"[0.24579999995231105,0.3224999999999909,0.7722999999523097,0.9910999999046339,1.2770999999046353,1.3202000000476914,1.5444999999999993,1.6555999999046378,1.9057999999523076,1.9435000000000002]",24,0,24,0,1
,,,,,,,5f36623f389f370009a0be44,,,,,,5f36623f389f370009a0be44,Mężczyzna,25,2021-09-06_19h09.37.832,rantool2,2021.1.4,Win32,59.98080614,6135e006383e6ea6c3d06a28,61364b4061bd2dc68166d04e,"[""comma"",""period"",""period"",""comma"",""period"",""comma"",""comma"",""period"",""comma"",""period"",""period""]",0,"[0.21270000004770395,0.2684000000953688,0.525200000047704,0.7637000000476917,0.9250000000000114,1.1084000000953722,1.4013000001907585,1.4658000001907396,1.697200000047701,1.7039000000953877,1.9730000000000132]",25,0,25,0,1
,,,,,,,5f36623f389f370009a0be44,,,,,,5f36623f389f370009a0be44,Mężczyzna,25,2021-09-06_19h09.37.832,rantool2,2021.1.4,Win32,59.98080614,6135e006383e6ea6c3d06a28,61364b4061bd2dc68166d04e,"[""comma"",""period"",""comma"",""period"",""period"",""comma"",""period"",""comma"",""period"",""comma"",""period"",""comma"",""period"",""comma"",""period""]",0,"[0.02139999985692498,0.20669999980924558,0.4176999998092583,0.43489999985692407,0.6782999999523156,0.9357999999523088,0.9580999999046185,1.1546999998092815,1.1791999998092706,1.390899999856913,1.400299999952324,1.629599999904599,1.6296999998092474,1.850999999999999,1.8511999998092392]",26,0,26,0,1
,,,,,,,5f36623f389f370009a0be44,,,,,,5f36623f389f370009a0be44,Mężczyzna,25,2021-09-06_19h09.37.832,rantool2,2021.1.4,Win32,59.98080614,6135e006383e6ea6c3d06a28,61364b4061bd2dc68166d04e,"[""comma"",""period"",""period"",""comma"",""period"",""comma"",""period"",""comma"",""period"",""comma"",""period"",""comma"",""comma"",""period"",""comma"",""period""]",0,"[0.07679999995229991,0.07699999999999818,0.29050000000000864,0.3029000000953488,0.507000000000005,0.516700000047706,0.7172000000476828,0.7377000000477096,0.9287999999523322,0.9352000000477005,1.1529000000953715,1.1800000000000068,1.3789000000953706,1.5819999999999936,1.8500000000000227,1.8502000000476642]",27,0,27,0,1
,,,,,,,5f36623f389f370009a0be44,,,,,,5f36623f389f370009a0be44,Mężczyzna,25,2021-09-06_19h09.37.832,rantool2,2021.1.4,Win32,59.98080614,6135e006383e6ea6c3d06a28,61364b4061bd2dc68166d04e,"[""period"",""comma"",""period"",""comma"",""period"",""period"",""comma"",""period"",""period"",""comma"",""period"",""period"",""comma"",""period""]",0,"[0.08280000019072986,0.10330000019075669,0.280700000047716,0.5072000000477033,0.5134000000953733,0.7326000001430657,0.9379000000953965,0.9600000000000364,1.147400000095388,1.3636000001430375,1.375600000143038,1.5761000001430716,1.7965000000000373,1.8176000001430452]",28,0,28,0,1
,,,,,,,5f36623f389f370009a0be44,,,,,,5f36623f389f370009a0be44,Mężczyzna,25,2021-09-06_19h09.37.832,rantool2,2021.1.4,Win32,59.98080614,6135e006383e6ea6c3d06a28,61364b4061bd2dc68166d04e,"[""period"",""comma"",""period"",""period"",""comma"",""comma"",""period"",""period"",""comma"",""comma"",""period"",""period"",""comma"",""comma"",""period"",""period"",""comma""]",0,"[0.02790000009531468,0.27629999995230037,0.28470000004767826,0.5137999999523117,0.529099999904588,0.7430999999045866,0.749499999999955,0.9599999999999795,0.9794000000953247,1.193200000047682,1.1934999999999718,1.4172000000476714,1.4274000000953606,1.6275999999045894,1.6277000000476392,1.847799999952315,1.859599999904617]",29,0,29,0,1
,,,,,,,5f36623f389f370009a0be44,,,,,,5f36623f389f370009a0be44,Mężczyzna,25,2021-09-06_19h09.37.832,rantool2,2021.1.4,Win32,59.98080614,6135e006383e6ea6c3d06a28,61364b4061bd2dc68166d04e,"[""period"",""period"",""comma"",""period"",""comma"",""comma"",""period""]",0,"[0.0939000000953456,0.2757000000476637,0.28379999995229355,0.5114000000953638,0.5235000000000127,0.7072000000476919,0.7074000000953902]",30,0,30,0,1
,,,,,,,5f36623f389f370009a0be44,,,,,,5f36623f389f370009a0be44,Mężczyzna,25,2021-09-06_19h09.37.832,rantool2,2021.1.4,Win32,59.98080614,6135e006383e6ea6c3d06a28,61364b4061bd2dc68166d04e,"[""period"",""comma"",""comma"",""period"",""comma"",""period"",""comma"",""period"",""comma"",""period"",""comma"",""period"",""comma""]",0,"[0.1868000001907717,0.20070000004767508,0.42670000004767417,0.43640000009537516,0.6244000000953633,0.6254999999999882,0.8209000000953779,0.8221000001430525,1.021300000190763,1.0219000000953997,1.257300000190753,1.5669000000953588,1.8388000001907585]",31,0,31,0,1
,,,,,,,5f36623f389f370009a0be44,,,,,,5f36623f389f370009a0be44,Mężczyzna,25,2021-09-06_19h09.37.832,rantool2,2021.1.4,Win32,59.98080614,6135e006383e6ea6c3d06a28,61364b4061bd2dc68166d04e,"[""comma"",""period"",""comma"",""period"",""period"",""comma"",""comma"",""period"",""comma"",""period"",""comma"",""period""]",0,"[0.07659999990465849,0.07670000004770827,0.328099999904623,0.32850000000001955,0.560299999952349,0.7715999999046517,0.9897999999523108,1.2069999999999936,1.4643999998569939,1.4662000000477065,1.70929999995235,1.9353999998569407]",32,0,32,0,1
,,,,,,,5f36623f389f370009a0be44,,,,,,5f36623f389f370009a0be44,Mężczyzna,25,2021-09-06_19h09.37.832,rantool2,2021.1.4,Win32,59.98080614,6135e006383e6ea6c3d06a28,61364b4061bd2dc68166d04e,"[""period"",""period"",""period"",""period"",""comma"",""period"",""comma"",""period"",""comma"",""period"",""comma"",""comma""]",0,"[0.14529999995232856,0.3505999999046594,0.5503999998569498,0.7669999999999959,0.9838999998569307,0.9840999999046289,1.2175000000000296,1.217700000047671,1.4632999999523122,1.463599999904659,1.6870000000000118,1.9170999999046217]",33,0,33,0,1
,,,,,,,5f36623f389f370009a0be44,,,,,,5f36623f389f370009a0be44,Mężczyzna,25,2021-09-06_19h09.37.832,rantool2,2021.1.4,Win32,59.98080614,6135e006383e6ea6c3d06a28,61364b4061bd2dc68166d04e,"[""comma"",""comma"",""period"",""period"",""comma"",""comma"",""period"",""comma"",""period"",""period"",""comma"",""period"",""comma"",""period"",""period""]",0,"[0.16709999990462165,0.36729999995230855,0.3675999999046553,0.5855000000000246,0.5972999999523267,0.8170999999046558,0.8174999999999955,1.0397999999523222,1.0407999999522985,1.2835999999046521,1.4834999999999923,1.4837000000476905,1.703899999856958,1.7050999999046326,1.9227999999523036]",34,0,34,0,1
,,,,,,,5f36623f389f370009a0be44,,,,,,5f36623f389f370009a0be44,Mężczyzna,25,2021-09-06_19h09.37.832,rantool2,2021.1.4,Win32,59.98080614,6135e006383e6ea6c3d06a28,61364b4061bd2dc68166d04e,"[""period"",""period"",""period"",""period"",""comma"",""comma"",""comma"",""comma"",""comma"",""comma""]",0,"[0.1507000000476637,0.35020000004766416,0.5671000001430571,0.7837000000477019,0.7839000000953433,0.9909999999999854,1.2221000001430298,1.430799999952285,1.6504000000953738,1.900299999952324]",35,0,35,0,1
,,,,,,,5f36623f389f370009a0be44,,,,,,5f36623f389f370009a0be44,Mężczyzna,25,2021-09-06_19h09.37.832,rantool2,2021.1.4,Win32,59.98080614,6135e006383e6ea6c3d06a28,61364b4061bd2dc68166d04e,"[""comma"",""comma"",""comma"",""period"",""period"",""period"",""period"",""period"",""period"",""period""]",0,"[0.11670000004767189,0.316799999952309,0.5670000000000073,0.5672999999522972,0.7832999999523054,1.0332000000477137,1.222799999952315,1.44370000004767,1.666499999999985,1.900100000143027]",36,0,36,0,1
,,,,,,,5f36623f389f370009a0be44,,,,,,5f36623f389f370009a0be44,Mężczyzna,25,2021-09-06_19h09.37.832,rantool2,2021.1.4,Win32,59.98080614,6135e006383e6ea6c3d06a28,61364b4061bd2dc68166d04e,"[""period"",""comma"",""period"",""comma"",""period"",""comma"",""comma"",""comma"",""comma"",""comma"",""comma""]",0,"[0.11789999985694521,0.33369999980925513,0.35069999980925104,0.5670000000000073,0.5671999998092474,0.790899999856947,1.00029999995229,1.2188999998569443,1.4835999999046408,1.6838999998569193,1.883599999904618]",37,0,37,0,1
,,,,,,,5f36623f389f370009a0be44,,,,,,5f36623f389f370009a0be44,Mężczyzna,25,2021-09-06_19h09.37.832,rantool2,2021.1.4,Win32,59.98080614,6135e006383e6ea6c3d06a28,61364b4061bd2dc68166d04e,"[""comma"",""period"",""period"",""period"",""period"",""period"",""period"",""period"",""period"",""comma"",""period""]",0,"[0.13380000019077443,0.13390000009536607,0.3716000001430757,0.5878000001907253,0.7836000001430534,1.0004000000953965,1.2299000000953697,1.4504000000953852,1.658400000095412,1.91700000000003,1.9172000000477283]",38,0,38,0,1
,,,,,,,5f36623f389f370009a0be44,,,,,,5f36623f389f370009a0be44,Mężczyzna,25,2021-09-06_19h09.37.832,rantool2,2021.1.4,Win32,59.98080614,6135e006383e6ea6c3d06a28,61364b4061bd2dc68166d04e,"[""comma"",""comma"",""comma"",""comma"",""comma"",""comma"",""comma"",""comma"",""period"",""comma"",""period""]",0,"[0.1504000000953738,0.36740000009535834,0.5672000000477055,0.8016000001430825,1.000300000190748,1.2170000000000414,1.433800000190729,1.690200000047696,1.6905000000000427,1.9337000000476792,1.9339000000953774]",39,0,39,0,1
,,,,,,,5f36623f389f370009a0be44,,,,,,5f36623f389f370009a0be44,Mężczyzna,25,2021-09-06_19h09.37.832,rantool2,2021.1.4,Win32,59.98080614,6135e006383e6ea6c3d06a28,61364b4061bd2dc68166d04e,"[""period"",""period"",""period"",""period"",""period"",""period"",""comma"",""period"",""period"",""comma""]",0,"[0.1671000001430798,0.350200000047721,0.5640000000000214,0.7838000001907517,1.0128000001907367,1.208200000047725,1.4838000001907403,1.484100000143087,1.694800000190753,1.9335000000000377]",40,0,40,0,1
,,,,,,,5f36623f389f370009a0be44,,,,,,5f36623f389f370009a0be44,Mężczyzna,25,2021-09-06_19h09.37.832,rantool2,2021.1.4,Win32,59.98080614,6135e006383e6ea6c3d06a28,61364b4061bd2dc68166d04e,"[""comma"",""comma"",""comma"",""comma"",""comma"",""comma"",""period"",""period"",""period"",""period""]",0,"[0.16730000019077806,0.37260000014305206,0.6031000001430584,0.8171000001430571,1.0217000000477015,1.2838000001907517,1.2841000001430416,1.4854000000954102,1.7141000001430484,1.9337000000476792]",41,0,41,0,1
,,,,,,,5f36623f389f370009a0be44,,,,,,5f36623f389f370009a0be44,Mężczyzna,25,2021-09-06_19h09.37.832,rantool2,2021.1.4,Win32,59.98080614,6135e006383e6ea6c3d06a28,61364b4061bd2dc68166d04e,"[""period"",""period"",""period"",""period"",""comma"",""period"",""comma"",""comma"",""comma""]",0,"[0.16729999995231992,0.3607000000477001,0.6005000000000109,0.8092999999523158,1.0595999999046626,1.0600999999046508,1.297700000047712,1.5123999998569957,1.8672999999523086]",42,0,42,0,1
,,,,,,,5f36623f389f370009a0be44,,,,,,5f36623f389f370009a0be44,Mężczyzna,25,2021-09-06_19h09.37.832,rantool2,2021.1.4,Win32,59.98080614,6135e006383e6ea6c3d06a28,61364b4061bd2dc68166d04e,"[""period"",""comma"",""period"",""comma"",""period"",""comma"",""comma"",""comma""]",0,"[0.16729999995231992,0.4005000000000223,0.6049000000953697,0.8052000000477051,0.9712000000477019,1.3040000000000305,1.516999999999996,1.7297000000476714]",43,0,43,0,1
,,,,,,,5f36623f389f370009a0be44,,,,,,5f36623f389f370009a0be44,Mężczyzna,25,2021-09-06_19h09.37.832,rantool2,2021.1.4,Win32,59.98080614,6135e006383e6ea6c3d06a28,61364b4061bd2dc68166d04e,"[""period"",""comma"",""period"",""comma"",""period"",""comma"",""period"",""period""]",0,"[-0.025500000000022283,0.18399999999996908,0.42410000014302796,0.6262000000476746,1.1338000001907176,1.400400000095317,1.7168000001906876,1.9558000001907203]",44,0,44,0,1
,,,,,,,5f36623f389f370009a0be44,,,,,,5f36623f389f370009a0be44,Mężczyzna,25,2021-09-06_19h09.37.832,rantool2,2021.1.4,Win32,59.98080614,6135e006383e6ea6c3d06a28,61364b4061bd2dc68166d04e,"[""comma"",""period"",""comma"",""period"",""comma"",""comma"",""comma""]",0,"[0.18399999999996908,0.4004000000953738,0.5999999999999659,0.6842000000476673,0.9339000000953774,1.1837999999523277,1.7209000000953552]",45,0,45,0,1
,,,,,,,5f36623f389f370009a0be44,,,,,,5f36623f389f370009a0be44,Mężczyzna,25,2021-09-06_19h09.37.832,rantool2,2021.1.4,Win32,59.98080614,6135e006383e6ea6c3d06a28,61364b4061bd2dc68166d04e,"[""period"",""comma"",""period"",""comma"",""period"",""comma"",""period"",""comma"",""period""]",0,"[0.32629999995231174,0.566799999952309,0.5838999998568966,1.2503999998569384,1.290099999904612,1.4373999998569502,1.5669999999999504,1.734899999856907,1.8169999999999504]",46,0,46,0,1
,,,,,,,5f36623f389f370009a0be44,,,,,,5f36623f389f370009a0be44,Mężczyzna,25,2021-09-06_19h09.37.832,rantool2,2021.1.4,Win32,59.98080614,6135e006383e6ea6c3d06a28,61364b4061bd2dc68166d04e,"[""comma"",""period"",""comma"",""comma"",""comma"",""comma""]",0,"[0.028200000047661433,0.12189999985690747,0.7692999999522954,1.317099999904599,1.5557000000476364,1.817099999904599]",47,0,47,0,1
,,,,,,,5f36623f389f370009a0be44,,,,,,5f36623f389f370009a0be44,Mężczyzna,25,2021-09-06_19h09.37.832,rantool2,2021.1.4,Win32,59.98080614,6135e006383e6ea6c3d06a28,61364b4061bd2dc68166d04e,"[""comma"",""period"",""period"",""comma"",""period"",""comma"",""period"",""period"",""comma"",""period""]",0,"[0.083500000000015,0.33690000009539744,0.5737000000477224,0.8171000001430571,0.9967000000477242,1.1337000000477246,1.2671000001430457,1.5336000001430534,1.5669000000953588,1.7767999999523454]",48,0,48,0,1
,,,,,,,5f36623f389f370009a0be44,,,,,,5f36623f389f370009a0be44,Mężczyzna,25,2021-09-06_19h09.37.832,rantool2,2021.1.4,Win32,59.98080614,6135e006383e6ea6c3d06a28,61364b4061bd2dc68166d04e,"[""period"",""comma"",""period"",""comma"",""period"",""comma"",""period"",""comma"",""period"",""period"",""comma"",""period"",""comma""]",0,"[0.0005999999046366611,0.16699999999997317,0.3007000000476978,0.4507000000476751,0.5584000000953893,0.7169999999999845,0.8225999999046394,1.016999999999996,1.0930000000000177,1.3835000000000264,1.5177000000476824,1.65300000000002,1.8170999999046558]",49,0,49,0,1
,,,,,,,5f36623f389f370009a0be44,,,,,,5f36623f389f370009a0be44,Mężczyzna,25,2021-09-06_19h09.37.832,rantool2,2021.1.4,Win32,59.98080614,6135e006383e6ea6c3d06a28,61364b4061bd2dc68166d04e,"[""comma"",""period"",""period"",""period"",""period"",""period"",""comma"",""period"",""comma"",""period""]",0,"[0.07539999985692702,0.23379999995228218,0.5670999999045989,0.7835000000000036,1.0042000000476605,1.2413999998569238,1.4268999998569143,1.6767999999523227,1.8999999999999773,1.9003999998569157]",50,0,50,0,1
,,,,,,,5f36623f389f370009a0be44,,,,,,5f36623f389f370009a0be44,Mężczyzna,25,2021-09-06_19h09.37.832,rantool2,2021.1.4,Win32,59.98080614,6135e006383e6ea6c3d06a28,61364b4061bd2dc68166d04e,"[""comma"",""period"",""comma"",""comma"",""period"",""comma"",""period"",""comma"",""period"",""comma"",""period"",""period""]",0,"[0.12450000000001182,0.12549999999998818,0.35070000004765234,0.5672000000476487,0.7338000001907403,0.9004999999999654,1.0503000001907026,1.2169999999999845,1.3337000000476564,1.5003000001906912,1.6338000001907176,1.9256000001430493]",51,0,51,0,1
,,,,,,,5f36623f389f370009a0be44,,,,,,5f36623f389f370009a0be44,Mężczyzna,25,2021-09-06_19h09.37.832,rantool2,2021.1.4,Win32,59.98080614,6135e006383e6ea6c3d06a28,61364b4061bd2dc68166d04e,"[""comma"",""period"",""comma"",""period"",""comma"",""period"",""comma"",""period"",""comma"",""period"",""comma"",""period""]",0,"[0.058599999904629385,0.1978999998569293,0.383599999904618,0.7337000000476905,0.900299999952324,1.033700000047645,1.2335999999046408,1.322499999999991,1.48629999995228,1.6003999998569611,1.7667999999522976,1.8503999998569611]",52,0,52,0,1
,,,,,,,5f36623f389f370009a0be44,,,,,,5f36623f389f370009a0be44,Mężczyzna,25,2021-09-06_19h09.37.832,rantool2,2021.1.4,Win32,59.98080614,6135e006383e6ea6c3d06a28,61364b4061bd2dc68166d04e,"[""period"",""period"",""comma"",""period"",""comma"",""period"",""comma"",""period""]",0,"[0.11879999995232993,1.0507000000476978,1.1507000000476637,1.2674000000953924,1.4174000000953697,1.5507999999522895,1.7172999999523313,1.802000000000021]",53,0,53,0,1
,,,,,,,5f36623f389f370009a0be44,,,,,,5f36623f389f370009a0be44,Mężczyzna,25,2021-09-06_19h09.37.832,rantool2,2021.1.4,Win32,59.98080614,6135e006383e6ea6c3d06a28,61364b4061bd2dc68166d04e,"[""comma"",""period"",""comma"",""comma"",""period"",""comma"",""period"",""comma"",""period"",""comma"",""period"",""comma"",""period"",""comma"",""period"",""period""]",0,"[-0.02429999995229082,0.06860000014307843,0.2072000000476919,0.28400000000004866,0.31729999995235403,0.5504999999999995,0.5837999999523618,0.783400000095412,0.8837999999523163,1.0670000000000073,1.1505000000000223,1.3337999999523618,1.41700000000003,1.5840000000000032,1.683700000047736,1.962799999952324]",54,0,54,0,1
,,,,,,,5f36623f389f370009a0be44,,,,,,5f36623f389f370009a0be44,Mężczyzna,25,2021-09-06_19h09.37.832,rantool2,2021.1.4,Win32,59.98080614,6135e006383e6ea6c3d06a28,61364b4061bd2dc68166d04e,"[""period"",""comma"",""period"",""comma"",""period"",""comma"",""period"",""comma"",""period"",""comma"",""period""]",0,"[0.2002000000476869,0.3004000000954079,0.5099999999999909,0.7002999999523354,0.8337999999523049,1.0335000000000036,1.1337999999523163,1.3670000000000186,1.4669999999999845,1.7060000000000173,1.768900000095357]",55,0,55,0,1
,,,,,,,5f36623f389f370009a0be44,,,,,,5f36623f389f370009a0be44,Mężczyzna,25,2021-09-06_19h09.37.832,rantool2,2021.1.4,Win32,59.98080614,6135e006383e6ea6c3d06a28,61364b4061bd2dc68166d04e,"[""comma"",""period"",""comma"",""period"",""comma"",""period"",""comma"",""period"",""comma"",""period"",""comma"",""period"",""comma"",""period"",""comma"",""period""]",0,"[0.017099999904644392,0.09639999985699887,0.27829999995236676,0.3580999999046526,0.5838999998569534,0.6923999998570025,0.8502999999523695,0.9455000000000382,1.156699999809291,1.1737999999523367,1.4340999999046744,1.434199999809266,1.6670999999046785,1.6671999998092701,1.8957999999523167,1.896000000000015]",56,0,56,0,1
,,,,,,,5f36623f389f370009a0be44,,,,,,5f36623f389f370009a0be44,Mężczyzna,25,2021-09-06_19h09.37.832,rantool2,2021.1.4,Win32,59.98080614,6135e006383e6ea6c3d06a28,61364b4061bd2dc68166d04e,"[""period"",""comma"",""period"",""comma"",""period"",""comma"",""comma""]",0,"[0.4672000000476828,0.6893000001907126,0.9502000000476869,1.2439999999999714,1.245700000047691,1.4875000000000114,1.9336000001430307]",57,0,57,0,1
,,,,,,,5f36623f389f370009a0be44,,,,,,5f36623f389f370009a0be44,Mężczyzna,25,2021-09-06_19h09.37.832,rantool2,2021.1.4,Win32,59.98080614,6135e006383e6ea6c3d06a28,61364b4061bd2dc68166d04e,"[""comma"",""comma"",""period"",""comma"",""comma"",""period"",""comma""]",0,"[0.36720000004766007,0.5840000000000032,1.0336000001430534,1.0338000001907517,1.2547000000477055,1.2639000000953615,1.4834999999999923]",58,0,58,0,1
,,,,,,,5f36623f389f370009a0be44,,,,,,5f36623f389f370009a0be44,Mężczyzna,25,2021-09-06_19h09.37.832,rantool2,2021.1.4,Win32,59.98080614,6135e006383e6ea6c3d06a28,61364b4061bd2dc68166d04e,"[""period"",""comma"",""period"",""comma"",""period"",""comma"",""period"",""comma"",""period"",""comma"",""period"",""comma""]",0,"[0.0006000001430379598,0.21800000000001774,0.43390000009537744,0.6009000000953506,0.767300000190744,0.9837000000476905,1.133900000095366,1.3353000001907276,1.4838000001907403,1.6749000000953629,1.7504999999999882,1.9676000001430225]",59,0,59,0,1
,,,,,,,5f36623f389f370009a0be44,,,,,,5f36623f389f370009a0be44,Mężczyzna,25,2021-09-06_19h09.37.832,rantool2,2021.1.4,Win32,59.98080614,6135e006383e6ea6c3d06a28,61364b4061bd2dc68166d04e,"[""period"",""period"",""period"",""period"",""period"",""comma"",""comma"",""period""]",0,"[0.2266999998092274,0.5004999999999882,0.6963999998569079,0.9079999999999586,1.1501999998092742,1.3907999999523213,1.5811999998092574,1.7835999999045953]",60,0,60,0,1
,,,,,,,5f36623f389f370009a0be44,,,,,,5f36623f389f370009a0be44,Mężczyzna,25,2021-09-06_19h09.37.832,rantool2,2021.1.4,Win32,59.98080614,6135e006383e6ea6c3d06a28,61364b4061bd2dc68166d04e,"[""comma"",""period"",""comma"",""period"",""comma"",""period"",""comma"",""comma"",""period"",""comma"",""period""]",0,"[0.043000000000006366,0.07609999990461347,0.2708999998569084,0.36719999980925877,0.5811999998092574,0.8076999998092447,0.8669999999999618,1.4836999998092324,1.4837999999522822,1.7856999998092533,1.8016999998092729]",61,0,61,0,1
,,,,,,,5f36623f389f370009a0be44,,,,,,5f36623f389f370009a0be44,Mężczyzna,25,2021-09-06_19h09.37.832,rantool2,2021.1.4,Win32,59.98080614,6135e006383e6ea6c3d06a28,61364b4061bd2dc68166d04e,"[""period"",""comma"",""comma"",""period"",""comma"",""period"",""comma"",""period""]",0,"[0.37840000009538244,0.40370000004770645,0.761299999952314,1.0487000000476883,1.3819000000953565,1.532299999952329,1.7820999999046307,1.8405999999046116]",62,0,62,0,1
,,,,,,,5f36623f389f370009a0be44,,,,,,5f36623f389f370009a0be44,Mężczyzna,25,2021-09-06_19h09.37.832,rantool2,2021.1.4,Win32,59.98080614,6135e006383e6ea6c3d06a28,61364b4061bd2dc68166d04e,"[""period"",""comma"",""period"",""period"",""period"",""comma"",""period"",""comma"",""period"",""comma"",""period""]",0,"[0.15449999999998454,0.5001000001430498,0.5167000000476492,0.7667000000476492,1.0999000000953743,1.3167000000476605,1.3336000001430648,1.570900000095378,1.5872999999523358,1.8334000000953665,1.866700000047672]",63,0,63,0,1
,,,,,,,5f36623f389f370009a0be44,,,,,,5f36623f389f370009a0be44,Mężczyzna,25,2021-09-06_19h09.37.832,rantool2,2021.1.4,Win32,59.98080614,6135e006383e6ea6c3d06a28,61364b4061bd2dc68166d04e,"[""period"",""comma"",""period"",""comma"",""period"",""comma"",""period"",""comma"",""period""]",0,"[0.1203000001907526,0.3721000001430639,0.43380000019072895,0.6840000000000259,0.7620000000000005,1.4539000000953592,1.4834000000954006,1.9337000000476792,1.9339000000953774]",64,0,64,0,1
,,,,,,,5f36623f389f370009a0be44,,,,,,5f36623f389f370009a0be44,Mężczyzna,25,2021-09-06_19h09.37.832,rantool2,2021.1.4,Win32,59.98080614,6135e006383e6ea6c3d06a28,61364b4061bd2dc68166d04e,"[""comma"",""period"",""period"",""comma"",""period"",""comma"",""period"",""comma"",""period"",""comma"",""period""]",0,"[0.33009999990463257,0.3305000000000291,0.5340000000000487,0.7770999999046353,0.9379000000953965,1.1504000000953738,1.2287999999523436,1.5172000000476942,1.5502999999523581,1.763200000047732,1.8139000000953729]",65,0,65,0,1
,,,,,,,5f36623f389f370009a0be44,,,,,,5f36623f389f370009a0be44,Mężczyzna,25,2021-09-06_19h09.37.832,rantool2,2021.1.4,Win32,59.98080614,6135e006383e6ea6c3d06a28,61364b4061bd2dc68166d04e,"[""period"",""period"",""period"",""comma"",""period"",""period"",""comma"",""period""]",0,"[0.15240000009538335,0.41699999999997317,0.6837000000476792,0.9504000000953852,0.9504000000953852,1.4336000001430307,1.4337000000476792,1.7169999999999845]",66,0,66,0,1
,,,,,,,5f36623f389f370009a0be44,,,,,,5f36623f389f370009a0be44,Mężczyzna,25,2021-09-06_19h09.37.832,rantool2,2021.1.4,Win32,59.98080614,6135e006383e6ea6c3d06a28,61364b4061bd2dc68166d04e,"[""comma"",""period"",""period"",""comma"",""period"",""comma"",""period"",""comma"",""period""]",0,"[0.03300000000001546,0.033200000047656886,0.4830000000000041,0.8879000000953852,0.888499999999965,1.2757999999523122,1.2767999999522885,1.6267000000476628,1.6274000000953492]",67,0,67,0,1
,,,,,,,5f36623f389f370009a0be44,,,,,,5f36623f389f370009a0be44,Mężczyzna,25,2021-09-06_19h09.37.832,rantool2,2021.1.4,Win32,59.98080614,6135e006383e6ea6c3d06a28,61364b4061bd2dc68166d04e,"[""comma"",""period"",""period"",""period"",""comma"",""period"",""comma"",""period"",""comma"",""period"",""comma"",""period"",""comma"",""period"",""comma"",""period"",""period"",""comma""]",0,"[0.050499999999999545,0.05059999990464803,0.2504999999999882,0.4335999999046294,0.4505999999046253,0.6207999999523395,0.8206999998092783,0.8208999998569197,1.0335999999046521,1.0337999999522935,1.2224999999999682,1.2230000000000132,1.433499999999981,1.4336999998092779,1.657299999952329,1.6578999998569657,1.9038999998569466,1.9125000000000227]",68,0,68,0,1
,,,,,,,5f36623f389f370009a0be44,,,,,,5f36623f389f370009a0be44,Mężczyzna,25,2021-09-06_19h09.37.832,rantool2,2021.1.4,Win32,59.98080614,6135e006383e6ea6c3d06a28,61364b4061bd2dc68166d04e,"[""period"",""comma"",""period"",""comma"",""period"",""comma"",""period"",""comma"",""period"",""comma"",""period"",""comma""]",0,"[0.12410000014301659,0.3666000001430234,0.36690000009537016,0.5829000000953215,0.5831000001430198,0.8068000001907194,0.8996000001430389,1.1164000000953251,1.2996000001430161,1.5329999999999586,1.6329000000953329,1.8797000000476487]",69,0,69,0,1
,,,,,,,5f36623f389f370009a0be44,,,,,,5f36623f389f370009a0be44,Mężczyzna,25,2021-09-06_19h09.37.832,rantool2,2021.1.4,Win32,59.98080614,6135e006383e6ea6c3d06a28,61364b4061bd2dc68166d04e,"[""comma"",""period"",""period"",""period"",""comma"",""period"",""comma"",""period""]",0,"[0.21309999990461392,0.3172000000476487,0.6670999999046217,0.9502999999522785,1.1002999999523126,1.350499999999954,1.5169000000953474,1.7002999999522785]",70,0,70,0,1
,,,,,,,5f36623f389f370009a0be44,,,,,,5f36623f389f370009a0be44,Mężczyzna,25,2021-09-06_19h09.37.832,rantool2,2021.1.4,Win32,59.98080614,6135e006383e6ea6c3d06a28,61364b4061bd2dc68166d04e,"[""comma"",""period"",""comma"",""period"",""comma"",""comma"",""comma"",""period""]",0,"[0.0004999999999881766,0.08470000004763278,0.3997000000476305,0.5998000001907258,0.8754999999999882,1.5053000001906867,1.8519999999999754,1.8999000000953288]",71,0,71,0,1
,,,,,,,5f36623f389f370009a0be44,,,,,,5f36623f389f370009a0be44,Mężczyzna,25,2021-09-06_19h09.37.832,rantool2,2021.1.4,Win32,59.98080614,6135e006383e6ea6c3d06a28,61364b4061bd2dc68166d04e,"[""comma"",""period"",""comma"",""period"",""comma"",""period"",""comma"",""period"",""comma"",""period""]",0,"[0.3340000000000032,0.5006000001430948,0.7683000001907772,0.8836000001430762,1.2668000001907558,1.2836000001430534,1.5506000001430493,1.5670000000000073,1.800400000095408,1.8189000000953683]",72,0,72,0,1
,,,,,,,5f36623f389f370009a0be44,,,,,,5f36623f389f370009a0be44,Mężczyzna,25,2021-09-06_19h09.37.832,rantool2,2021.1.4,Win32,59.98080614,6135e006383e6ea6c3d06a28,61364b4061bd2dc68166d04e,"[""comma"",""period"",""comma"",""period"",""comma"",""period"",""comma"",""period"",""comma"",""period"",""period""]",0,"[0.10040000009536243,0.1173000001907667,0.37520000004769827,0.3758000001907362,0.5960000000000036,0.5968000001907399,0.8051000001430566,1.0600000000000023,1.2808000001907658,1.4046000001430912,1.7504000000953965]",73,0,73,0,1
,,,,,,,5f36623f389f370009a0be44,,,,,,5f36623f389f370009a0be44,Mężczyzna,25,2021-09-06_19h09.37.832,rantool2,2021.1.4,Win32,59.98080614,6135e006383e6ea6c3d06a28,61364b4061bd2dc68166d04e,"[""period"",""period"",""comma"",""comma"",""period"",""comma"",""period"",""comma"",""period""]",0,"[0.00050000000004502,0.35400000000004184,0.40070000004772055,0.6129999999999995,0.6263000001907812,0.9173000001907781,1.1861000001430853,1.4673000001907326,1.7504000000953965]",74,0,74,0,1
,,,,,,,5f36623f389f370009a0be44,,,,,,5f36623f389f370009a0be44,Mężczyzna,25,2021-09-06_19h09.37.832,rantool2,2021.1.4,Win32,59.98080614,6135e006383e6ea6c3d06a28,61364b4061bd2dc68166d04e,"[""comma"",""period"",""period"",""period"",""period"",""comma"",""period"",""comma"",""period"",""comma""]",0,"[0.020299999952328562,0.020700000047725098,0.33409999990465167,0.5853999998569748,0.8835999999046749,1.1838999998569761,1.1840999999046744,1.4505000000000337,1.4672999999523313,1.7338999998569875]",75,0,75,0,1
,,,,,,,5f36623f389f370009a0be44,,,,,,5f36623f389f370009a0be44,Mężczyzna,25,2021-09-06_19h09.37.832,rantool2,2021.1.4,Win32,59.98080614,6135e006383e6ea6c3d06a28,61364b4061bd2dc68166d04e,"[""period"",""period"",""comma"",""period"",""period"",""comma"",""period"",""period"",""period""]",0,"[0.0341000001430416,0.2954000000953556,0.31720000004770554,0.5982000000477115,0.8841000001430643,1.1337000000476678,1.1337999999523163,1.4172000000476714,1.6837000000476792]",76,0,76,0,1
,,,,,,,5f36623f389f370009a0be44,,,,,,5f36623f389f370009a0be44,Mężczyzna,25,2021-09-06_19h09.37.832,rantool2,2021.1.4,Win32,59.98080614,6135e006383e6ea6c3d06a28,61364b4061bd2dc68166d04e,"[""comma"",""period"",""period"",""comma"",""period"",""period"",""period"",""comma"",""period""]",0,"[-0.016400000095359246,0.2697999999523404,0.550599999904648,0.5507999999523463,0.8223999998569411,1.120099999904653,1.41700000000003,1.672899999856952,1.6735999999046385]",77,0,77,0,1
,,,,,,,5f36623f389f370009a0be44,,,,,,5f36623f389f370009a0be44,Mężczyzna,25,2021-09-06_19h09.37.832,rantool2,2021.1.4,Win32,59.98080614,6135e006383e6ea6c3d06a28,61364b4061bd2dc68166d04e,"[""period"",""comma"",""period"",""period"",""period"",""comma"",""period"",""period"",""period"",""period""]",0,"[-0.01590000009537107,0.26729999995234266,0.28429999995233857,0.5339999999999918,0.8337999999523049,1.1003999998569611,1.1005999999046594,1.367399999856957,1.6170999999046671,1.8472999999523267]",78,0,78,0,1
,,,,,,,5f36623f389f370009a0be44,,,,,,5f36623f389f370009a0be44,Mężczyzna,25,2021-09-06_19h09.37.832,rantool2,2021.1.4,Win32,59.98080614,6135e006383e6ea6c3d06a28,61364b4061bd2dc68166d04e,"[""period"",""period"",""comma"",""period"",""comma"",""period"",""comma"",""period"",""period""]",0,"[0.13079999995227354,0.6838999998569193,0.6839999999999691,0.9728999998569066,1.2667999999522976,1.266999999999996,1.5785999999046112,1.5795999999045875,1.8334999999999582]",79,0,79,0,1
,,,,,,,5f36623f389f370009a0be44,,,,,,5f36623f389f370009a0be44,Mężczyzna,25,2021-09-06_19h09.37.832,rantool2,2021.1.4,Win32,59.98080614,6135e006383e6ea6c3d06a28,61364b4061bd2dc68166d04e,"[""comma"",""period"",""period"",""period"",""period"",""period"",""comma"",""period"",""comma"",""period"",""period""]",0,"[0.1337000000476678,0.13379999995231628,0.4172999999523199,0.6837999999522708,0.9337999999522708,1.1724999999999568,1.413499999999999,1.4142000000476855,1.65170000004764,1.6668999998569234,1.9169999999999732]",80,0,80,0,1
,,,,,,,5f36623f389f370009a0be44,,,,,,5f36623f389f370009a0be44,Mężczyzna,25,2021-09-06_19h09.37.832,rantool2,2021.1.4,Win32,59.98080614,6135e006383e6ea6c3d06a28,61364b4061bd2dc68166d04e,"[""period"",""comma"",""period"",""comma"",""comma"",""period"",""comma"",""period"",""period"",""comma"",""comma"",""period""]",0,"[0.20029999995233538,0.43369999980927787,0.4340000000000259,0.7005000000000337,0.9696999998092792,0.9700000000000273,1.2505999999046367,1.2506999998092851,1.4834999999999923,1.5003999998569952,1.750199999809297,1.7503999998569952]",81,0,81,0,1
,,,,,,,5f36623f389f370009a0be44,,,,,,5f36623f389f370009a0be44,Mężczyzna,25,2021-09-06_19h09.37.832,rantool2,2021.1.4,Win32,59.98080614,6135e006383e6ea6c3d06a28,61364b4061bd2dc68166d04e,"[""comma"",""period"",""comma"",""period"",""comma"",""period"",""period"",""comma"",""period"",""comma"",""period"",""comma"",""period"",""comma"",""period""]",0,"[-0.016400000095359246,-0.01599999999996271,0.23009999990466667,0.23019999980925832,0.5090000000000146,0.5091999998093115,0.7505999999046367,0.9981999998092874,1.0170999999046444,1.28579999995236,1.2862999999523481,1.5005999999046367,1.5006999998092851,1.7503999998569952,1.750500000000045]",82,0,82,0,1
,,,,,,,5f36623f389f370009a0be44,,,,,,5f36623f389f370009a0be44,Mężczyzna,25,2021-09-06_19h09.37.832,rantool2,2021.1.4,Win32,59.98080614,6135e006383e6ea6c3d06a28,61364b4061bd2dc68166d04e,"[""comma"",""period"",""comma"",""period"",""comma"",""period"",""period"",""comma"",""period"",""comma""]",0,"[0.00039999985693839335,0.0006999998092283022,0.24989999985695022,0.2501999998092401,0.5512999999522776,0.5514999999999759,0.8498999998569161,1.099899999856916,1.116899999856912,1.4998999998569502]",83,0,83,0,1
,,,,,,,5f36623f389f370009a0be44,,,,,,5f36623f389f370009a0be44,Mężczyzna,25,2021-09-06_19h09.37.832,rantool2,2021.1.4,Win32,59.98080614,6135e006383e6ea6c3d06a28,61364b4061bd2dc68166d04e,"[""period"",""comma"",""period"",""comma"",""period"",""period"",""comma"",""period"",""comma"",""period"",""comma""]",0,"[0.026299999952300368,0.12140000009532059,0.41699999999997317,0.6834999999999809,0.7501000001430498,1.133400000095321,1.2834999999999468,1.4337999999522708,1.6069000000953224,1.7166000001430461,1.8834999999999695]",84,0,84,0,1
,,,,,,,5f36623f389f370009a0be44,,,,,,5f36623f389f370009a0be44,Mężczyzna,25,2021-09-06_19h09.37.832,rantool2,2021.1.4,Win32,59.98080614,6135e006383e6ea6c3d06a28,61364b4061bd2dc68166d04e,"[""period"",""comma"",""period"",""comma"",""period"",""comma"",""period"",""comma"",""period"",""comma"",""period"",""comma"",""period"",""comma"",""period""]",0,"[-0.01650000000000773,0.18380000019072895,0.28390000009534333,0.4504999999999768,0.551800000190724,0.7400000000000091,0.8336000001430648,1.0002000000476983,1.1112000000476883,1.2839000000953433,1.3838000001907176,1.6068000001907308,1.686700000047665,1.938100000143038,1.967400000095381]",85,0,85,0,1
,,,,,,,5f36623f389f370009a0be44,,,,,,5f36623f389f370009a0be44,Mężczyzna,25,2021-09-06_19h09.37.832,rantool2,2021.1.4,Win32,59.98080614,6135e006383e6ea6c3d06a28,61364b4061bd2dc68166d04e,"[""period"",""period"",""comma"",""comma"",""period"",""comma"",""period"",""period"",""comma"",""period"",""comma"",""period""]",0,"[0.30649999999997135,0.6002000000476642,0.6169000000953133,0.8499999999999659,0.8502000000476642,1.1094000000953201,1.1099999999999568,1.4082000000476569,1.650900000095362,1.6519000000953383,1.9502999999522785,1.9504999999999768]",86,0,86,0,1
,,,,,,,5f36623f389f370009a0be44,,,,,,5f36623f389f370009a0be44,Mężczyzna,25,2021-09-06_19h09.37.832,rantool2,2021.1.4,Win32,59.98080614,6135e006383e6ea6c3d06a28,61364b4061bd2dc68166d04e,"[""comma"",""comma"",""comma"",""period"",""comma"",""period"",""comma"",""period""]",0,"[0.21709999990463302,0.5007000000476864,0.7538999998569125,1.0170999999046444,1.3338999998569534,1.5003999998569384,1.697499999999991,1.817099999904599]",87,0,87,0,1
,,,,,,,5f36623f389f370009a0be44,,,,,,5f36623f389f370009a0be44,Mężczyzna,25,2021-09-06_19h09.37.832,rantool2,2021.1.4,Win32,59.98080614,6135e006383e6ea6c3d06a28,61364b4061bd2dc68166d04e,"[""comma"",""period"",""comma"",""period"",""comma"",""period"",""comma"",""period"",""comma"",""period""]",0,"[0.10559999990465485,0.37690000009536107,0.8337000000477133,0.9369000000953633,1.1837999999523277,1.2669000000954043,1.4687999999523527,1.5515000000000327,1.7669000000954043,1.8367000000476992]",88,0,88,0,1
,,,,,,,5f36623f389f370009a0be44,,,,,,5f36623f389f370009a0be44,Mężczyzna,25,2021-09-06_19h09.37.832,rantool2,2021.1.4,Win32,59.98080614,6135e006383e6ea6c3d06a28,61364b4061bd2dc68166d04e,"[""comma"",""period"",""comma"",""period"",""period"",""period"",""period"",""comma"",""period""]",0,"[0.0678000001907435,0.10000000000002274,0.27649999999999864,0.35149999999998727,0.6432000000476705,0.9668000001907444,1.53449999999998,1.7834000000953552,1.9616000001430507]",89,0,89,0,1
,,,,,,,5f36623f389f370009a0be44,,,,,,5f36623f389f370009a0be44,Mężczyzna,25,2021-09-06_19h09.37.832,rantool2,2021.1.4,Win32,59.98080614,6135e006383e6ea6c3d06a28,61364b4061bd2dc68166d04e,"[""comma"",""period"",""comma"",""period"",""comma"",""period"",""comma""]",0,"[0.14699999999999136,0.2769999999999868,0.4703000001907185,0.6004000000953624,0.8505000000000109,1.136000000000024,1.4461000001430762]",90,0,90,0,1
,,,,,,,5f36623f389f370009a0be44,,,,,,5f36623f389f370009a0be44,Mężczyzna,25,2021-09-06_19h09.37.832,rantool2,2021.1.4,Win32,59.98080614,6135e006383e6ea6c3d06a28,61364b4061bd2dc68166d04e,"[""comma"",""period"",""comma"",""comma""]",0,"[0.08409999990465167,0.08449999999999136,0.7004999999999768,1.766999999999996]",91,0,91,0,1
,,,,,,,5f36623f389f370009a0be44,,,,,,5f36623f389f370009a0be44,Mężczyzna,25,2021-09-06_19h09.37.832,rantool2,2021.1.4,Win32,59.98080614,6135e006383e6ea6c3d06a28,61364b4061bd2dc68166d04e,"[""comma"",""comma"",""period"",""comma"",""period""]",0,"[0.44680000019070576,1.119900000095356,1.3173000001907553,1.5284000000953597,1.6505000000000223]",92,0,92,0,1
,,,,,,,5f36623f389f370009a0be44,,,,,,5f36623f389f370009a0be44,Mężczyzna,25,2021-09-06_19h09.37.832,rantool2,2021.1.4,Win32,59.98080614,6135e006383e6ea6c3d06a28,61364b4061bd2dc68166d04e,"[""comma"",""period"",""comma"",""period"",""comma"",""period"",""comma"",""period"",""period"",""comma"",""period""]",0,"[0.050599999904591186,0.44129999995232083,0.6837999999523277,0.7005999999046253,0.9565999999045971,0.9572999999522835,1.2381999998092397,1.244299999952318,1.467099999904633,1.7670999999046444,1.8002999999523013]",93,0,93,0,1
,,,,,,,5f36623f389f370009a0be44,,,,,,5f36623f389f370009a0be44,Mężczyzna,25,2021-09-06_19h09.37.832,rantool2,2021.1.4,Win32,59.98080614,6135e006383e6ea6c3d06a28,61364b4061bd2dc68166d04e,"[""comma"",""period"",""comma"",""period"",""comma"",""period"",""comma"",""comma"",""comma"",""comma"",""comma""]",0,"[0.06779999995228536,0.06809999990463211,0.30039999985694976,0.3005999999045912,0.5512999999522776,0.5514999999999759,0.8340000000000032,1.128699999809271,1.4381999998092283,1.650299999952324,1.9337999999523277]",94,0,94,0,1
,,,,,,,5f36623f389f370009a0be44,,,,,,5f36623f389f370009a0be44,Mężczyzna,25,2021-09-06_19h09.37.832,rantool2,2021.1.4,Win32,59.98080614,6135e006383e6ea6c3d06a28,61364b4061bd2dc68166d04e,"[""period"",""comma"",""comma"",""period"",""comma"",""period"",""comma""]",0,"[0.18360000014308753,0.4073000001907303,0.9834999999999923,1.2334999999999923,1.500300000190748,1.716900000095393,1.9672000000476828]",95,0,95,0,1
,,,,,,,5f36623f389f370009a0be44,,,,,,5f36623f389f370009a0be44,Mężczyzna,25,2021-09-06_19h09.37.832,rantool2,2021.1.4,Win32,59.98080614,6135e006383e6ea6c3d06a28,61364b4061bd2dc68166d04e,"[""comma"",""period"",""comma"",""period"",""comma"",""comma"",""period""]",0,"[0.2517999999523113,0.5173999998569343,0.9006999998092624,1.1005999999046026,1.4006999998092624,1.7337999999522822,1.7339999999999804]",96,0,96,0,1
,,,,,,,5f36623f389f370009a0be44,,,,,,5f36623f389f370009a0be44,Mężczyzna,25,2021-09-06_19h09.37.832,rantool2,2021.1.4,Win32,59.98080614,6135e006383e6ea6c3d06a28,61364b4061bd2dc68166d04e,"[""comma"",""period"",""comma"",""period"",""comma"",""comma"",""period"",""period"",""period"",""comma"",""comma""]",0,"[0.0004999999999881766,0.0006000001430379598,0.30049999999999955,0.3008000001907476,0.5507000000476978,0.8189000000953683,0.8267000000477083,1.163000000000011,1.3838000001907176,1.6484000000953642,1.9547000000476942]",97,0,97,0,1
,,,,,,,5f36623f389f370009a0be44,,,,,,5f36623f389f370009a0be44,Mężczyzna,25,2021-09-06_19h09.37.832,rantool2,2021.1.4,Win32,59.98080614,6135e006383e6ea6c3d06a28,61364b4061bd2dc68166d04e,"[""period"",""comma"",""comma"",""period"",""comma"",""period"",""comma"",""period"",""period"",""comma"",""period""]",0,"[-0.016599999904656215,0.044499999999970896,0.17099999999999227,0.2735999999046044,0.5170999999045875,0.7999999999999545,1.0717999999523045,1.25,1.5000999999045916,1.6167999999523204,1.8669000000953702]",98,0,98,0,1
,,,,,,,5f36623f389f370009a0be44,,,,,,5f36623f389f370009a0be44,Mężczyzna,25,2021-09-06_19h09.37.832,rantool2,2021.1.4,Win32,59.98080614,6135e006383e6ea6c3d06a28,61364b4061bd2dc68166d04e,"[""period"",""comma"",""comma"",""period"",""comma"",""comma""]",0,"[0.11950000000001637,0.386299999952314,0.700399999856927,0.8834999999999695,1.0397999999523222,1.388699999809262]",99,0,99,0,1
,,,,,,,5f36623f389f370009a0be44,,,,,,5f36623f389f370009a0be44,Mężczyzna,25,2021-09-06_19h09.37.832,rantool2,2021.1.4,Win32,59.98080614,6135e006383e6ea6c3d06a28,61364b4061bd2dc68166d04e,"[""comma"",""comma"",""period"",""comma"",""period"",""comma"",""period"",""comma"",""period"",""period""]",0,"[0.0004999999999881766,0.31720000004770554,0.5523999998569593,0.8503999998569611,0.8670999999046671,1.1082000000477024,1.3020999999046694,1.4850000000000136,1.5503999998569498,1.9058999998569561]",100,0,100,0,1
,,,,,,,5f36623f389f370009a0be44,,,,,,5f36623f389f370009a0be44,Mężczyzna,25,2021-09-06_19h09.37.832,rantool2,2021.1.4,Win32,59.98080614,6135e006383e6ea6c3d06a28,61364b4061bd2dc68166d04e,"[""period"",""comma"",""period"",""comma"",""period"",""comma"",""period"",""comma"",""period"",""comma"",""period""]",0,"[0.15050000000002228,0.383599999904618,0.5240000000000009,0.7339999999999804,0.8670999999046103,1.1003999998569611,1.2167999999522863,1.4333999998569311,1.5335999999046521,1.7172999999523313,1.8555999999046549]",101,0,101,0,1
,,,,,,,5f36623f389f370009a0be44,,,,,,5f36623f389f370009a0be44,Mężczyzna,25,2021-09-06_19h09.37.832,rantool2,2021.1.4,Win32,59.98080614,6135e006383e6ea6c3d06a28,61364b4061bd2dc68166d04e,"[""period"",""period"",""comma"",""period"",""comma"",""period"",""comma"",""comma"",""period"",""comma"",""period"",""comma"",""period"",""comma""]",0,"[0.10079999995230082,0.3005999999045912,0.4505999999046253,0.5867000000476423,0.7377999999523013,0.8084999999999809,0.9334999999999809,1.2000999999046371,1.327900000095326,1.483900000095332,1.602099999904624,1.7504000000953397,1.8170000000000073,1.9510999999046135]",102,0,102,0,1
,,,,,,,5f36623f389f370009a0be44,,,,,,5f36623f389f370009a0be44,Mężczyzna,25,2021-09-06_19h09.37.832,rantool2,2021.1.4,Win32,59.98080614,6135e006383e6ea6c3d06a28,61364b4061bd2dc68166d04e,"[""period"",""comma"",""period"",""comma"",""period"",""comma"",""period"",""comma""]",0,"[0.6264999999999645,0.6517000000476401,0.8299999999999841,1.1002999999523126,1.2244999999999777,1.4634999999999536,1.600499999999954,1.8237000000476655]",103,0,103,0,1
,,,,,,,5f36623f389f370009a0be44,,,,,,5f36623f389f370009a0be44,Mężczyzna,25,2021-09-06_19h09.37.832,rantool2,2021.1.4,Win32,59.98080614,6135e006383e6ea6c3d06a28,61364b4061bd2dc68166d04e,"[""comma"",""comma"",""period"",""comma"",""period"",""comma"",""period"",""comma"",""period"",""period"",""comma"",""period""]",0,"[0.07140000009536607,0.2506000001430948,0.41690000009538153,0.5738000001907722,0.5742000000477105,0.7303000001907662,0.8669000000953702,1.350500000000011,1.3507000000477092,1.5169000000954043,1.5172000000476942,1.9412000000477292]",104,0,104,0,1
,,,,,,,5f36623f389f370009a0be44,,,,,,5f36623f389f370009a0be44,Mężczyzna,25,2021-09-06_19h09.37.832,rantool2,2021.1.4,Win32,59.98080614,6135e006383e6ea6c3d06a28,61364b4061bd2dc68166d04e,"[""comma"",""comma"",""comma"",""period"",""comma"",""period"",""comma""]",0,"[0.1757000000476978,0.7168999998569916,1.0002000000476983,1.2188999998569443,1.3812999999523186,1.7042999999523545,1.850200000047721]",105,0,105,0,1
,,,,,,,5f36623f389f370009a0be44,,,,,,5f36623f389f370009a0be44,Mężczyzna,25,2021-09-06_19h09.37.832,rantool2,2021.1.4,Win32,59.98080614,6135e006383e6ea6c3d06a28,61364b4061bd2dc68166d04e,"[""period"",""period"",""period"",""comma"",""period"",""comma"",""period""]",0,"[0.15029999995232401,0.48370000004769054,0.8170000000000073,0.9213999998569875,1.2005000000000337,1.6837999999523277,1.7003999998569839]",106,0,106,0,1
,,,,,,,5f36623f389f370009a0be44,,,,,,5f36623f389f370009a0be44,Mężczyzna,25,2021-09-06_19h09.37.832,rantool2,2021.1.4,Win32,59.98080614,6135e006383e6ea6c3d06a28,61364b4061bd2dc68166d04e,"[""comma"",""period"",""comma"",""period"",""comma"",""period"",""comma"",""period"",""comma"",""period"",""comma"",""period"",""comma"",""period""]",0,"[0.16679999995233175,0.16690000009538153,0.433200000047691,0.4332999999523395,0.7290000000000418,0.8665000000000305,0.9997999999523586,1.0780000000000314,1.216299999952355,1.3092999999523158,1.5119000000954088,1.549799999952313,1.78579999995236,1.7867999999523363]",107,0,107,0,1
,,,,,,,5f36623f389f370009a0be44,,,,,,5f36623f389f370009a0be44,Mężczyzna,25,2021-09-06_19h09.37.832,rantool2,2021.1.4,Win32,59.98080614,6135e006383e6ea6c3d06a28,61364b4061bd2dc68166d04e,"[""comma"",""period"",""period"",""comma"",""period"",""comma"",""period"",""comma"",""period"",""comma"",""period"",""comma"",""period""]",0,"[0.02259999990462802,0.023000000000024556,0.4574999999999818,0.5837999999523049,0.7024999999999864,0.9027999999523217,0.9337999999523277,1.1055999999046549,1.1835999999046294,1.4506999998092738,1.4685999999046544,1.8336999998092551,1.8340999999046517]",108,0,108,0,1
,,,,,,,5f36623f389f370009a0be44,,,,,,5f36623f389f370009a0be44,Mężczyzna,25,2021-09-06_19h09.37.832,rantool2,2021.1.4,Win32,59.98080614,6135e006383e6ea6c3d06a28,61364b4061bd2dc68166d04e,"[""comma"",""period"",""period"",""comma"",""period"",""comma"",""period"",""comma"",""period"",""comma"",""period"",""comma"",""period""]",0,"[0.11700000000001864,0.11739999985695704,0.5336999998093006,0.6503999998569725,0.8003999998569498,0.9673999998569798,1.0503999998569498,1.233799999952339,1.3501999998092629,1.5172999999523427,1.5835999999046635,1.8806999998092806,1.9022999999523336]",109,0,109,0,1
,,,,,,,5f36623f389f370009a0be44,,,,,,5f36623f389f370009a0be44,Mężczyzna,25,2021-09-06_19h09.37.832,rantool2,2021.1.4,Win32,59.98080614,6135e006383e6ea6c3d06a28,61364b4061bd2dc68166d04e,"[""comma"",""period"",""period"",""period"",""comma"",""period"",""comma"",""period"",""period"",""period"",""comma"",""period""]",0,"[0.15049999999996544,0.15059999990461392,0.41720000004767144,0.6519000000953383,0.8837999999523163,0.8840999999046062,1.1504000000953738,1.150599999904614,1.4055999999046094,1.633599999904618,1.9004999999999654,1.9014000000953502]",110,0,110,0,1
,,,,,,,5f36623f389f370009a0be44,,,,,,5f36623f389f370009a0be44,Mężczyzna,25,2021-09-06_19h09.37.832,rantool2,2021.1.4,Win32,59.98080614,6135e006383e6ea6c3d06a28,61364b4061bd2dc68166d04e,"[""comma"",""period"",""period"",""period"",""comma"",""period"",""comma"",""period""]",0,"[0.17300000000000182,0.17349999999999,0.48409999990462893,0.8670000000000186,1.1035999999046453,1.1337000000476678,1.5504999999999995,1.5507000000476978]",111,0,111,0,1
,,,,,,,5f36623f389f370009a0be44,,,,,,5f36623f389f370009a0be44,Mężczyzna,25,2021-09-06_19h09.37.832,rantool2,2021.1.4,Win32,59.98080614,6135e006383e6ea6c3d06a28,61364b4061bd2dc68166d04e,"[""period"",""comma"",""comma"",""period"",""comma"",""period"",""comma"",""period""]",0,"[0.016900000095404266,0.017200000047694175,0.5834000000953665,0.5836000001430648,1.1222000000477124,1.1225000000000023,1.6335000000000264,1.91700000000003]",112,0,112,0,1
,,,,,,,5f36623f389f370009a0be44,,,,,,5f36623f389f370009a0be44,Mężczyzna,25,2021-09-06_19h09.37.832,rantool2,2021.1.4,Win32,59.98080614,6135e006383e6ea6c3d06a28,61364b4061bd2dc68166d04e,"[""comma"",""period"",""comma"",""comma"",""comma"",""period"",""comma""]",0,"[0.13389999985690793,0.43009999990459846,0.627200000047651,0.9337000000476792,1.1700999999046076,1.4504999999999768,1.6838999998569193]",113,0,113,0,1
,,,,,,,5f36623f389f370009a0be44,,,,,,5f36623f389f370009a0be44,Mężczyzna,25,2021-09-06_19h09.37.832,rantool2,2021.1.4,Win32,59.98080614,6135e006383e6ea6c3d06a28,61364b4061bd2dc68166d04e,"[""period"",""comma"",""period"",""comma"",""period"",""comma"",""period""]",0,"[0.03359999990465212,0.257000000000005,0.8002999999523013,1.2504000000953965,1.2509000000953847,1.7835999999046521,1.7837999999522935]",114,0,114,0,1
,,,,,,,5f36623f389f370009a0be44,,,,,,5f36623f389f370009a0be44,Mężczyzna,25,2021-09-06_19h09.37.832,rantool2,2021.1.4,Win32,59.98080614,6135e006383e6ea6c3d06a28,61364b4061bd2dc68166d04e,"[""comma"",""period"",""comma"",""period"",""period"",""comma"",""comma""]",0,"[0.31959999990459664,0.3197999999522949,0.8667999999523204,0.8670000000000186,1.3999999999999773,1.4002000000476755,1.9300999999045985]",115,0,115,0,1
,,,,,,,5f36623f389f370009a0be44,,,,,,5f36623f389f370009a0be44,Mężczyzna,25,2021-09-06_19h09.37.832,rantool2,2021.1.4,Win32,59.98080614,6135e006383e6ea6c3d06a28,61364b4061bd2dc68166d04e,"[""comma"",""period"",""period"",""period""]",0,"[0.4504000000953283,0.4672000000476828,0.9003000001907253,1.4898000001907121]",116,0,116,0,1
,,,,,,,5f36623f389f370009a0be44,,,,,,5f36623f389f370009a0be44,Mężczyzna,25,2021-09-06_19h09.37.832,rantool2,2021.1.4,Win32,59.98080614,6135e006383e6ea6c3d06a28,61364b4061bd2dc68166d04e,"[""comma"",""period"",""comma"",""comma"",""comma"",""period""]",0,"[0.00040000009533969205,0.2669999999999959,0.4169000000953247,1.021299999952305,1.600499999999954,1.6007000000476523]",117,0,117,0,1
,,,,,,,5f36623f389f370009a0be44,,,,,,5f36623f389f370009a0be44,Mężczyzna,25,2021-09-06_19h09.37.832,rantool2,2021.1.4,Win32,59.98080614,6135e006383e6ea6c3d06a28,61364b4061bd2dc68166d04e,"[""period"",""comma"",""comma"",""period"",""comma"",""period""]",0,"[0.11740000009535834,0.567400000095347,1.067100000143057,1.2723000001907394,1.5004000000953397,1.6302000000476937]",118,0,118,0,1
,,,,,,,5f36623f389f370009a0be44,,,,,,5f36623f389f370009a0be44,Mężczyzna,25,2021-09-06_19h09.37.832,rantool2,2021.1.4,Win32,59.98080614,6135e006383e6ea6c3d06a28,61364b4061bd2dc68166d04e,"[""period"",""comma"",""comma"",""period"",""comma"",""period"",""comma"",""period""]",0,"[0.13389999985690793,0.15039999985691566,0.7505999999046367,0.7510999999046248,1.2500999999045916,1.2506999998092283,1.7001999998092288,1.7010999999046135]",119,0,119,0,1
