key_resp_7.keys,key_resp_7.rt,trials_2.thisRepN,trials_2.thisTrialN,trials_2.thisN,trials_2.thisIndex,trials_2.ran,id,series_0,series_1,acss_0,acss_1,comparison,id*,Płeć*,Wiek*,date,expName,psychopyVersion,OS,frameRate,STUDY_ID,SESSION_ID,key_resp_5.keys,key_resp_5.corr,key_resp_5.rt,trials.thisRepN,trials.thisTrialN,trials.thisN,trials.thisIndex,trials.ran
j,1.659,0,0,0,32,1,6100276b976b46d8b1c77a7c,ROOOOOO,ROOOOOR,19.92253567,21.27974287,series_1,6100276b976b46d8b1c77a7c,Kobieta,22,2021-09-06_18h49.42.656,rantool2,2021.1.4,Win32,62.05398697,6135e006383e6ea6c3d06a28,61364655e4798dbe44d83463,,,,,,,,
j,1.8218,0,1,1,45,1,6100276b976b46d8b1c77a7c,RORRORO,RORRORR,20.78182524,21.22513037,series_1,6100276b976b46d8b1c77a7c,Kobieta,22,2021-09-06_18h49.42.656,rantool2,2021.1.4,Win32,62.05398697,6135e006383e6ea6c3d06a28,61364655e4798dbe44d83463,,,,,,,,
j,1.5166,0,2,2,47,1,6100276b976b46d8b1c77a7c,RORRRRO,RORRRRR,21.81333602,21.02936224,series_0,6100276b976b46d8b1c77a7c,Kobieta,22,2021-09-06_18h49.42.656,rantool2,2021.1.4,Win32,62.05398697,6135e006383e6ea6c3d06a28,61364655e4798dbe44d83463,,,,,,,,
f,1.3499,0,3,3,41,1,6100276b976b46d8b1c77a7c,ROROORO,ROROORR,20.42602454,21.71443381,series_1,6100276b976b46d8b1c77a7c,Kobieta,22,2021-09-06_18h49.42.656,rantool2,2021.1.4,Win32,62.05398697,6135e006383e6ea6c3d06a28,61364655e4798dbe44d83463,,,,,,,,
j,2.0302,0,4,4,27,1,6100276b976b46d8b1c77a7c,ORRORRO,ORRORRR,21.55250791,22.2428857,series_1,6100276b976b46d8b1c77a7c,Kobieta,22,2021-09-06_18h49.42.656,rantool2,2021.1.4,Win32,62.05398697,6135e006383e6ea6c3d06a28,61364655e4798dbe44d83463,,,,,,,,
j,2.0951,0,5,5,51,1,6100276b976b46d8b1c77a7c,RROORRO,RROORRR,21.89852628,22.02786418,series_1,6100276b976b46d8b1c77a7c,Kobieta,22,2021-09-06_18h49.42.656,rantool2,2021.1.4,Win32,62.05398697,6135e006383e6ea6c3d06a28,61364655e4798dbe44d83463,,,,,,,,
f,1.839,0,6,6,13,1,6100276b976b46d8b1c77a7c,OORRORO,OORRORR,21.66733484,22.11181017,series_1,6100276b976b46d8b1c77a7c,Kobieta,22,2021-09-06_18h49.42.656,rantool2,2021.1.4,Win32,62.05398697,6135e006383e6ea6c3d06a28,61364655e4798dbe44d83463,,,,,,,,
f,1.4662,0,7,7,63,1,6100276b976b46d8b1c77a7c,RRRRRRO,RRRRRRR,21.35278725,19.62521613,series_0,6100276b976b46d8b1c77a7c,Kobieta,22,2021-09-06_18h49.42.656,rantool2,2021.1.4,Win32,62.05398697,6135e006383e6ea6c3d06a28,61364655e4798dbe44d83463,,,,,,,,
j,1.6397,0,8,8,3,1,6100276b976b46d8b1c77a7c,OOOORRO,OOOORRR,20.90986523,21.74922619,series_1,6100276b976b46d8b1c77a7c,Kobieta,22,2021-09-06_18h49.42.656,rantool2,2021.1.4,Win32,62.05398697,6135e006383e6ea6c3d06a28,61364655e4798dbe44d83463,,,,,,,,
f,1.8124,0,9,9,49,1,6100276b976b46d8b1c77a7c,RROOORO,RROOORR,21.76276513,22.53364006,series_1,6100276b976b46d8b1c77a7c,Kobieta,22,2021-09-06_18h49.42.656,rantool2,2021.1.4,Win32,62.05398697,6135e006383e6ea6c3d06a28,61364655e4798dbe44d83463,,,,,,,,
f,1.0338,0,10,10,23,1,6100276b976b46d8b1c77a7c,ORORRRO,ORORRRR,22.1285618,21.9921709,series_0,6100276b976b46d8b1c77a7c,Kobieta,22,2021-09-06_18h49.42.656,rantool2,2021.1.4,Win32,62.05398697,6135e006383e6ea6c3d06a28,61364655e4798dbe44d83463,,,,,,,,
f,1.7224,0,11,11,31,1,6100276b976b46d8b1c77a7c,ORRRRRO,ORRRRRR,22.16413392,20.74050628,series_0,6100276b976b46d8b1c77a7c,Kobieta,22,2021-09-06_18h49.42.656,rantool2,2021.1.4,Win32,62.05398697,6135e006383e6ea6c3d06a28,61364655e4798dbe44d83463,,,,,,,,
f,1.4073,0,12,12,37,1,6100276b976b46d8b1c77a7c,ROORORO,ROORORR,20.42602454,21.57657071,series_1,6100276b976b46d8b1c77a7c,Kobieta,22,2021-09-06_18h49.42.656,rantool2,2021.1.4,Win32,62.05398697,6135e006383e6ea6c3d06a28,61364655e4798dbe44d83463,,,,,,,,
f,2.3338,0,13,13,28,1,6100276b976b46d8b1c77a7c,ORRROOO,ORRROOR,22.24142883,22.53364006,series_1,6100276b976b46d8b1c77a7c,Kobieta,22,2021-09-06_18h49.42.656,rantool2,2021.1.4,Win32,62.05398697,6135e006383e6ea6c3d06a28,61364655e4798dbe44d83463,,,,,,,,
j,0.944,0,14,14,22,1,6100276b976b46d8b1c77a7c,ORORROO,ORORROR,22.02732763,21.57657071,series_0,6100276b976b46d8b1c77a7c,Kobieta,22,2021-09-06_18h49.42.656,rantool2,2021.1.4,Win32,62.05398697,6135e006383e6ea6c3d06a28,61364655e4798dbe44d83463,,,,,,,,
f,1.8472,0,15,15,19,1,6100276b976b46d8b1c77a7c,OROORRO,OROORRR,21.73568164,22.11181017,series_1,6100276b976b46d8b1c77a7c,Kobieta,22,2021-09-06_18h49.42.656,rantool2,2021.1.4,Win32,62.05398697,6135e006383e6ea6c3d06a28,61364655e4798dbe44d83463,,,,,,,,
j,0.9079,0,16,16,59,1,6100276b976b46d8b1c77a7c,RRRORRO,RRRORRR,21.56657303,20.89823192,series_0,6100276b976b46d8b1c77a7c,Kobieta,22,2021-09-06_18h49.42.656,rantool2,2021.1.4,Win32,62.05398697,6135e006383e6ea6c3d06a28,61364655e4798dbe44d83463,,,,,,,,
f,1.5341,0,17,17,61,1,6100276b976b46d8b1c77a7c,RRRRORO,RRRRORR,21.81333602,21.17347734,series_0,6100276b976b46d8b1c77a7c,Kobieta,22,2021-09-06_18h49.42.656,rantool2,2021.1.4,Win32,62.05398697,6135e006383e6ea6c3d06a28,61364655e4798dbe44d83463,,,,,,,,
j,1.3417,0,18,18,1,1,6100276b976b46d8b1c77a7c,OOOOORO,OOOOORR,19.92253567,20.74050628,series_1,6100276b976b46d8b1c77a7c,Kobieta,22,2021-09-06_18h49.42.656,rantool2,2021.1.4,Win32,62.05398697,6135e006383e6ea6c3d06a28,61364655e4798dbe44d83463,,,,,,,,
f,1.0983,0,19,19,52,1,6100276b976b46d8b1c77a7c,RROROOO,RROROOR,22.18365867,22.11097995,series_0,6100276b976b46d8b1c77a7c,Kobieta,22,2021-09-06_18h49.42.656,rantool2,2021.1.4,Win32,62.05398697,6135e006383e6ea6c3d06a28,61364655e4798dbe44d83463,,,,,,,,
f,0.7367,0,20,20,9,1,6100276b976b46d8b1c77a7c,OOROORO,OOROORR,21.07991943,22.2428857,series_1,6100276b976b46d8b1c77a7c,Kobieta,22,2021-09-06_18h49.42.656,rantool2,2021.1.4,Win32,62.05398697,6135e006383e6ea6c3d06a28,61364655e4798dbe44d83463,,,,,,,,
f,1.2428,0,21,21,39,1,6100276b976b46d8b1c77a7c,ROORRRO,ROORRRR,21.82425538,21.38562617,series_0,6100276b976b46d8b1c77a7c,Kobieta,22,2021-09-06_18h49.42.656,rantool2,2021.1.4,Win32,62.05398697,6135e006383e6ea6c3d06a28,61364655e4798dbe44d83463,,,,,,,,
f,1.1403,0,22,22,5,1,6100276b976b46d8b1c77a7c,OOORORO,OOORORR,20.87963819,21.9921709,series_1,6100276b976b46d8b1c77a7c,Kobieta,22,2021-09-06_18h49.42.656,rantool2,2021.1.4,Win32,62.05398697,6135e006383e6ea6c3d06a28,61364655e4798dbe44d83463,,,,,,,,
j,0.9021,0,23,23,4,1,6100276b976b46d8b1c77a7c,OOOROOO,OOOROOR,19.91402015,21.21223021,series_1,6100276b976b46d8b1c77a7c,Kobieta,22,2021-09-06_18h49.42.656,rantool2,2021.1.4,Win32,62.05398697,6135e006383e6ea6c3d06a28,61364655e4798dbe44d83463,,,,,,,,
f,0.8296,0,24,24,12,1,6100276b976b46d8b1c77a7c,OORROOO,OORROOR,21.30250474,22.02786418,series_1,6100276b976b46d8b1c77a7c,Kobieta,22,2021-09-06_18h49.42.656,rantool2,2021.1.4,Win32,62.05398697,6135e006383e6ea6c3d06a28,61364655e4798dbe44d83463,,,,,,,,
j,0.8631,0,25,25,62,1,6100276b976b46d8b1c77a7c,RRRRROO,RRRRROR,22.16413392,21.27974287,series_0,6100276b976b46d8b1c77a7c,Kobieta,22,2021-09-06_18h49.42.656,rantool2,2021.1.4,Win32,62.05398697,6135e006383e6ea6c3d06a28,61364655e4798dbe44d83463,,,,,,,,
f,1.0564,0,26,26,8,1,6100276b976b46d8b1c77a7c,OOROOOO,OOROOOR,19.91402015,20.89823192,series_1,6100276b976b46d8b1c77a7c,Kobieta,22,2021-09-06_18h49.42.656,rantool2,2021.1.4,Win32,62.05398697,6135e006383e6ea6c3d06a28,61364655e4798dbe44d83463,,,,,,,,
f,0.7278,0,27,27,18,1,6100276b976b46d8b1c77a7c,OROOROO,OROOROR,20.84860893,21.22513037,series_1,6100276b976b46d8b1c77a7c,Kobieta,22,2021-09-06_18h49.42.656,rantool2,2021.1.4,Win32,62.05398697,6135e006383e6ea6c3d06a28,61364655e4798dbe44d83463,,,,,,,,
j,1.0916,0,28,28,43,1,6100276b976b46d8b1c77a7c,RORORRO,RORORRR,20.71309134,21.07490964,series_1,6100276b976b46d8b1c77a7c,Kobieta,22,2021-09-06_18h49.42.656,rantool2,2021.1.4,Win32,62.05398697,6135e006383e6ea6c3d06a28,61364655e4798dbe44d83463,,,,,,,,
j,1.1387,0,29,29,42,1,6100276b976b46d8b1c77a7c,ROROROO,ROROROR,20.39515459,19.8361834,series_0,6100276b976b46d8b1c77a7c,Kobieta,22,2021-09-06_18h49.42.656,rantool2,2021.1.4,Win32,62.05398697,6135e006383e6ea6c3d06a28,61364655e4798dbe44d83463,,,,,,,,
f,0.9093,0,30,30,16,1,6100276b976b46d8b1c77a7c,OROOOOO,OROOOOR,20.43051175,21.17347734,series_1,6100276b976b46d8b1c77a7c,Kobieta,22,2021-09-06_18h49.42.656,rantool2,2021.1.4,Win32,62.05398697,6135e006383e6ea6c3d06a28,61364655e4798dbe44d83463,,,,,,,,
f,1.2543,0,31,31,60,1,6100276b976b46d8b1c77a7c,RRRROOO,RRRROOR,22.10108823,22.15934078,series_1,6100276b976b46d8b1c77a7c,Kobieta,22,2021-09-06_18h49.42.656,rantool2,2021.1.4,Win32,62.05398697,6135e006383e6ea6c3d06a28,61364655e4798dbe44d83463,,,,,,,,
j,1.0503,0,32,32,56,1,6100276b976b46d8b1c77a7c,RRROOOO,RRROOOR,21.6194508,22.31681875,series_1,6100276b976b46d8b1c77a7c,Kobieta,22,2021-09-06_18h49.42.656,rantool2,2021.1.4,Win32,62.05398697,6135e006383e6ea6c3d06a28,61364655e4798dbe44d83463,,,,,,,,
j,1.0689,0,33,33,7,1,6100276b976b46d8b1c77a7c,OOORRRO,OOORRRR,21.6194508,21.899017,series_1,6100276b976b46d8b1c77a7c,Kobieta,22,2021-09-06_18h49.42.656,rantool2,2021.1.4,Win32,62.05398697,6135e006383e6ea6c3d06a28,61364655e4798dbe44d83463,,,,,,,,
f,1.1108,0,34,34,57,1,6100276b976b46d8b1c77a7c,RRROORO,RRROORR,21.82425538,22.07102821,series_1,6100276b976b46d8b1c77a7c,Kobieta,22,2021-09-06_18h49.42.656,rantool2,2021.1.4,Win32,62.05398697,6135e006383e6ea6c3d06a28,61364655e4798dbe44d83463,,,,,,,,
f,0.8775,0,35,35,58,1,6100276b976b46d8b1c77a7c,RRROROO,RRROROR,22.1285618,21.37121559,series_0,6100276b976b46d8b1c77a7c,Kobieta,22,2021-09-06_18h49.42.656,rantool2,2021.1.4,Win32,62.05398697,6135e006383e6ea6c3d06a28,61364655e4798dbe44d83463,,,,,,,,
j,0.8196,0,36,36,34,1,6100276b976b46d8b1c77a7c,ROOOROO,ROOOROR,21.03750787,21.24781509,series_1,6100276b976b46d8b1c77a7c,Kobieta,22,2021-09-06_18h49.42.656,rantool2,2021.1.4,Win32,62.05398697,6135e006383e6ea6c3d06a28,61364655e4798dbe44d83463,,,,,,,,
f,0.8837,0,37,37,33,1,6100276b976b46d8b1c77a7c,ROOOORO,ROOOORR,20.83779602,22.03072203,series_1,6100276b976b46d8b1c77a7c,Kobieta,22,2021-09-06_18h49.42.656,rantool2,2021.1.4,Win32,62.05398697,6135e006383e6ea6c3d06a28,61364655e4798dbe44d83463,,,,,,,,
f,1.2121,0,38,38,46,1,6100276b976b46d8b1c77a7c,RORRROO,RORRROR,22.00300695,21.24781509,series_0,6100276b976b46d8b1c77a7c,Kobieta,22,2021-09-06_18h49.42.656,rantool2,2021.1.4,Win32,62.05398697,6135e006383e6ea6c3d06a28,61364655e4798dbe44d83463,,,,,,,,
f,1.131,0,39,39,14,1,6100276b976b46d8b1c77a7c,OORRROO,OORRROR,22.24142883,22.16977179,series_0,6100276b976b46d8b1c77a7c,Kobieta,22,2021-09-06_18h49.42.656,rantool2,2021.1.4,Win32,62.05398697,6135e006383e6ea6c3d06a28,61364655e4798dbe44d83463,,,,,,,,
f,1.0969,0,40,40,17,1,6100276b976b46d8b1c77a7c,OROOORO,OROOORR,21.03750787,22.12173012,series_1,6100276b976b46d8b1c77a7c,Kobieta,22,2021-09-06_18h49.42.656,rantool2,2021.1.4,Win32,62.05398697,6135e006383e6ea6c3d06a28,61364655e4798dbe44d83463,,,,,,,,
f,1.7645,0,41,41,26,1,6100276b976b46d8b1c77a7c,ORROROO,ORROROR,22.02732763,21.71443381,series_0,6100276b976b46d8b1c77a7c,Kobieta,22,2021-09-06_18h49.42.656,rantool2,2021.1.4,Win32,62.05398697,6135e006383e6ea6c3d06a28,61364655e4798dbe44d83463,,,,,,,,
j,0.932,0,42,42,44,1,6100276b976b46d8b1c77a7c,RORROOO,RORROOR,21.66733484,22.02566557,series_1,6100276b976b46d8b1c77a7c,Kobieta,22,2021-09-06_18h49.42.656,rantool2,2021.1.4,Win32,62.05398697,6135e006383e6ea6c3d06a28,61364655e4798dbe44d83463,,,,,,,,
j,1.0841,0,43,43,11,1,6100276b976b46d8b1c77a7c,OORORRO,OORORRR,22.18365867,22.6797523,series_1,6100276b976b46d8b1c77a7c,Kobieta,22,2021-09-06_18h49.42.656,rantool2,2021.1.4,Win32,62.05398697,6135e006383e6ea6c3d06a28,61364655e4798dbe44d83463,,,,,,,,
j,0.9781,0,44,44,20,1,6100276b976b46d8b1c77a7c,OROROOO,OROROOR,21.31236711,21.90565814,series_1,6100276b976b46d8b1c77a7c,Kobieta,22,2021-09-06_18h49.42.656,rantool2,2021.1.4,Win32,62.05398697,6135e006383e6ea6c3d06a28,61364655e4798dbe44d83463,,,,,,,,
f,1.1277,0,45,45,25,1,6100276b976b46d8b1c77a7c,ORROORO,ORROORR,21.79500819,22.61624387,series_1,6100276b976b46d8b1c77a7c,Kobieta,22,2021-09-06_18h49.42.656,rantool2,2021.1.4,Win32,62.05398697,6135e006383e6ea6c3d06a28,61364655e4798dbe44d83463,,,,,,,,
j,0.7659,0,46,46,15,1,6100276b976b46d8b1c77a7c,OORRRRO,OORRRRR,22.10108823,21.74922619,series_0,6100276b976b46d8b1c77a7c,Kobieta,22,2021-09-06_18h49.42.656,rantool2,2021.1.4,Win32,62.05398697,6135e006383e6ea6c3d06a28,61364655e4798dbe44d83463,,,,,,,,
f,0.898,0,47,47,50,1,6100276b976b46d8b1c77a7c,RROOROO,RROOROR,21.73568164,22.02566557,series_1,6100276b976b46d8b1c77a7c,Kobieta,22,2021-09-06_18h49.42.656,rantool2,2021.1.4,Win32,62.05398697,6135e006383e6ea6c3d06a28,61364655e4798dbe44d83463,,,,,,,,
j,0.9066,0,48,48,38,1,6100276b976b46d8b1c77a7c,ROORROO,ROORROR,21.79500819,21.36812781,series_0,6100276b976b46d8b1c77a7c,Kobieta,22,2021-09-06_18h49.42.656,rantool2,2021.1.4,Win32,62.05398697,6135e006383e6ea6c3d06a28,61364655e4798dbe44d83463,,,,,,,,
f,1.4209,0,49,49,30,1,6100276b976b46d8b1c77a7c,ORRRROO,ORRRROR,22.46748491,22.03072203,series_0,6100276b976b46d8b1c77a7c,Kobieta,22,2021-09-06_18h49.42.656,rantool2,2021.1.4,Win32,62.05398697,6135e006383e6ea6c3d06a28,61364655e4798dbe44d83463,,,,,,,,
j,0.981,0,50,50,2,1,6100276b976b46d8b1c77a7c,OOOOROO,OOOOROR,20.43051175,21.02936224,series_1,6100276b976b46d8b1c77a7c,Kobieta,22,2021-09-06_18h49.42.656,rantool2,2021.1.4,Win32,62.05398697,6135e006383e6ea6c3d06a28,61364655e4798dbe44d83463,,,,,,,,
f,1.5887,0,51,51,35,1,6100276b976b46d8b1c77a7c,ROOORRO,ROOORRR,21.76276513,22.16977179,series_1,6100276b976b46d8b1c77a7c,Kobieta,22,2021-09-06_18h49.42.656,rantool2,2021.1.4,Win32,62.05398697,6135e006383e6ea6c3d06a28,61364655e4798dbe44d83463,,,,,,,,
j,0.3338,0,52,52,48,1,6100276b976b46d8b1c77a7c,RROOOOO,RROOOOR,20.90986523,22.15934078,series_1,6100276b976b46d8b1c77a7c,Kobieta,22,2021-09-06_18h49.42.656,rantool2,2021.1.4,Win32,62.05398697,6135e006383e6ea6c3d06a28,61364655e4798dbe44d83463,,,,,,,,
f,1.9405,0,53,53,29,1,6100276b976b46d8b1c77a7c,ORRRORO,ORRRORR,22.00300695,22.12173012,series_1,6100276b976b46d8b1c77a7c,Kobieta,22,2021-09-06_18h49.42.656,rantool2,2021.1.4,Win32,62.05398697,6135e006383e6ea6c3d06a28,61364655e4798dbe44d83463,,,,,,,,
j,1.059,0,54,54,0,1,6100276b976b46d8b1c77a7c,OOOOOOO,OOOOOOR,18.52739004,19.62521613,series_1,6100276b976b46d8b1c77a7c,Kobieta,22,2021-09-06_18h49.42.656,rantool2,2021.1.4,Win32,62.05398697,6135e006383e6ea6c3d06a28,61364655e4798dbe44d83463,,,,,,,,
j,1.2114,0,55,55,21,1,6100276b976b46d8b1c77a7c,ORORORO,ORORORR,20.39515459,22.06781359,series_1,6100276b976b46d8b1c77a7c,Kobieta,22,2021-09-06_18h49.42.656,rantool2,2021.1.4,Win32,62.05398697,6135e006383e6ea6c3d06a28,61364655e4798dbe44d83463,,,,,,,,
j,1.6921,0,56,56,36,1,6100276b976b46d8b1c77a7c,ROOROOO,ROOROOR,21.07991943,20.9984461,series_0,6100276b976b46d8b1c77a7c,Kobieta,22,2021-09-06_18h49.42.656,rantool2,2021.1.4,Win32,62.05398697,6135e006383e6ea6c3d06a28,61364655e4798dbe44d83463,,,,,,,,
f,1.0546,0,57,57,55,1,6100276b976b46d8b1c77a7c,RRORRRO,RRORRRR,21.56657303,21.21223021,series_0,6100276b976b46d8b1c77a7c,Kobieta,22,2021-09-06_18h49.42.656,rantool2,2021.1.4,Win32,62.05398697,6135e006383e6ea6c3d06a28,61364655e4798dbe44d83463,,,,,,,,
j,1.1125,0,58,58,40,1,6100276b976b46d8b1c77a7c,ROROOOO,ROROOOR,20.87963819,21.37121559,series_1,6100276b976b46d8b1c77a7c,Kobieta,22,2021-09-06_18h49.42.656,rantool2,2021.1.4,Win32,62.05398697,6135e006383e6ea6c3d06a28,61364655e4798dbe44d83463,,,,,,,,
f,1.579,0,59,59,54,1,6100276b976b46d8b1c77a7c,RRORROO,RRORROR,21.55250791,20.9984461,series_0,6100276b976b46d8b1c77a7c,Kobieta,22,2021-09-06_18h49.42.656,rantool2,2021.1.4,Win32,62.05398697,6135e006383e6ea6c3d06a28,61364655e4798dbe44d83463,,,,,,,,
j,0.8368,0,60,60,53,1,6100276b976b46d8b1c77a7c,RRORORO,RRORORR,20.71309134,21.90565814,series_1,6100276b976b46d8b1c77a7c,Kobieta,22,2021-09-06_18h49.42.656,rantool2,2021.1.4,Win32,62.05398697,6135e006383e6ea6c3d06a28,61364655e4798dbe44d83463,,,,,,,,
f,0.9464,0,61,61,24,1,6100276b976b46d8b1c77a7c,ORROOOO,ORROOOR,21.12383932,22.07102821,series_1,6100276b976b46d8b1c77a7c,Kobieta,22,2021-09-06_18h49.42.656,rantool2,2021.1.4,Win32,62.05398697,6135e006383e6ea6c3d06a28,61364655e4798dbe44d83463,,,,,,,,
j,1.1118,0,62,62,6,1,6100276b976b46d8b1c77a7c,OOORROO,OOORROR,21.12383932,21.38562617,series_1,6100276b976b46d8b1c77a7c,Kobieta,22,2021-09-06_18h49.42.656,rantool2,2021.1.4,Win32,62.05398697,6135e006383e6ea6c3d06a28,61364655e4798dbe44d83463,,,,,,,,
f,0.9433,0,63,63,10,1,6100276b976b46d8b1c77a7c,OOROROO,OOROROR,21.31236711,21.07490964,series_0,6100276b976b46d8b1c77a7c,Kobieta,22,2021-09-06_18h49.42.656,rantool2,2021.1.4,Win32,62.05398697,6135e006383e6ea6c3d06a28,61364655e4798dbe44d83463,,,,,,,,
,,,,,,,6100276b976b46d8b1c77a7c,,,,,,6100276b976b46d8b1c77a7c,Kobieta,22,2021-09-06_18h49.42.656,rantool2,2021.1.4,Win32,62.05398697,6135e006383e6ea6c3d06a28,61364655e4798dbe44d83463,0,,,0,0,0,0,1
,,,,,,,6100276b976b46d8b1c77a7c,,,,,,6100276b976b46d8b1c77a7c,Kobieta,22,2021-09-06_18h49.42.656,rantool2,2021.1.4,Win32,62.05398697,6135e006383e6ea6c3d06a28,61364655e4798dbe44d83463,0,,,1,0,1,0,1
,,,,,,,6100276b976b46d8b1c77a7c,,,,,,6100276b976b46d8b1c77a7c,Kobieta,22,2021-09-06_18h49.42.656,rantool2,2021.1.4,Win32,62.05398697,6135e006383e6ea6c3d06a28,61364655e4798dbe44d83463,0,,,2,0,2,0,1
,,,,,,,6100276b976b46d8b1c77a7c,,,,,,6100276b976b46d8b1c77a7c,Kobieta,22,2021-09-06_18h49.42.656,rantool2,2021.1.4,Win32,62.05398697,6135e006383e6ea6c3d06a28,61364655e4798dbe44d83463,0,,,3,0,3,0,1
,,,,,,,6100276b976b46d8b1c77a7c,,,,,,6100276b976b46d8b1c77a7c,Kobieta,22,2021-09-06_18h49.42.656,rantool2,2021.1.4,Win32,62.05398697,6135e006383e6ea6c3d06a28,61364655e4798dbe44d83463,0,,,4,0,4,0,1
,,,,,,,6100276b976b46d8b1c77a7c,,,,,,6100276b976b46d8b1c77a7c,Kobieta,22,2021-09-06_18h49.42.656,rantool2,2021.1.4,Win32,62.05398697,6135e006383e6ea6c3d06a28,61364655e4798dbe44d83463,"[""period""]",0,[1.6101000000238344],5,0,5,0,1
,,,,,,,6100276b976b46d8b1c77a7c,,,,,,6100276b976b46d8b1c77a7c,Kobieta,22,2021-09-06_18h49.42.656,rantool2,2021.1.4,Win32,62.05398697,6135e006383e6ea6c3d06a28,61364655e4798dbe44d83463,"[""comma""]",0,[1.0106999999284767],6,0,6,0,1
,,,,,,,6100276b976b46d8b1c77a7c,,,,,,6100276b976b46d8b1c77a7c,Kobieta,22,2021-09-06_18h49.42.656,rantool2,2021.1.4,Win32,62.05398697,6135e006383e6ea6c3d06a28,61364655e4798dbe44d83463,"[""period""]",0,[0.5673999999761747],7,0,7,0,1
,,,,,,,6100276b976b46d8b1c77a7c,,,,,,6100276b976b46d8b1c77a7c,Kobieta,22,2021-09-06_18h49.42.656,rantool2,2021.1.4,Win32,62.05398697,6135e006383e6ea6c3d06a28,61364655e4798dbe44d83463,"[""comma""]",0,[0.2617000000476821],8,0,8,0,1
,,,,,,,6100276b976b46d8b1c77a7c,,,,,,6100276b976b46d8b1c77a7c,Kobieta,22,2021-09-06_18h49.42.656,rantool2,2021.1.4,Win32,62.05398697,6135e006383e6ea6c3d06a28,61364655e4798dbe44d83463,"[""period"",""period""]",0,"[0.2665999999046278,0.49359999990463166]",9,0,9,0,1
,,,,,,,6100276b976b46d8b1c77a7c,,,,,,6100276b976b46d8b1c77a7c,Kobieta,22,2021-09-06_18h49.42.656,rantool2,2021.1.4,Win32,62.05398697,6135e006383e6ea6c3d06a28,61364655e4798dbe44d83463,"[""comma""]",0,[0.48050000000000637],10,0,10,0,1
,,,,,,,6100276b976b46d8b1c77a7c,,,,,,6100276b976b46d8b1c77a7c,Kobieta,22,2021-09-06_18h49.42.656,rantool2,2021.1.4,Win32,62.05398697,6135e006383e6ea6c3d06a28,61364655e4798dbe44d83463,0,0,,11,0,11,0,1
,,,,,,,6100276b976b46d8b1c77a7c,,,,,,6100276b976b46d8b1c77a7c,Kobieta,22,2021-09-06_18h49.42.656,rantool2,2021.1.4,Win32,62.05398697,6135e006383e6ea6c3d06a28,61364655e4798dbe44d83463,"[""comma""]",0,[0.2195000000000107],12,0,12,0,1
,,,,,,,6100276b976b46d8b1c77a7c,,,,,,6100276b976b46d8b1c77a7c,Kobieta,22,2021-09-06_18h49.42.656,rantool2,2021.1.4,Win32,62.05398697,6135e006383e6ea6c3d06a28,61364655e4798dbe44d83463,0,0,,13,0,13,0,1
,,,,,,,6100276b976b46d8b1c77a7c,,,,,,6100276b976b46d8b1c77a7c,Kobieta,22,2021-09-06_18h49.42.656,rantool2,2021.1.4,Win32,62.05398697,6135e006383e6ea6c3d06a28,61364655e4798dbe44d83463,"[""period""]",0,[0.37429999995231356],14,0,14,0,1
,,,,,,,6100276b976b46d8b1c77a7c,,,,,,6100276b976b46d8b1c77a7c,Kobieta,22,2021-09-06_18h49.42.656,rantool2,2021.1.4,Win32,62.05398697,6135e006383e6ea6c3d06a28,61364655e4798dbe44d83463,0,0,,15,0,15,0,1
,,,,,,,6100276b976b46d8b1c77a7c,,,,,,6100276b976b46d8b1c77a7c,Kobieta,22,2021-09-06_18h49.42.656,rantool2,2021.1.4,Win32,62.05398697,6135e006383e6ea6c3d06a28,61364655e4798dbe44d83463,"[""period""]",0,[0.2912000000476951],16,0,16,0,1
,,,,,,,6100276b976b46d8b1c77a7c,,,,,,6100276b976b46d8b1c77a7c,Kobieta,22,2021-09-06_18h49.42.656,rantool2,2021.1.4,Win32,62.05398697,6135e006383e6ea6c3d06a28,61364655e4798dbe44d83463,"[""period""]",0,[0.7021000000238473],17,0,17,0,1
,,,,,,,6100276b976b46d8b1c77a7c,,,,,,6100276b976b46d8b1c77a7c,Kobieta,22,2021-09-06_18h49.42.656,rantool2,2021.1.4,Win32,62.05398697,6135e006383e6ea6c3d06a28,61364655e4798dbe44d83463,"[""period""]",0,[0.5555000000000234],18,0,18,0,1
,,,,,,,6100276b976b46d8b1c77a7c,,,,,,6100276b976b46d8b1c77a7c,Kobieta,22,2021-09-06_18h49.42.656,rantool2,2021.1.4,Win32,62.05398697,6135e006383e6ea6c3d06a28,61364655e4798dbe44d83463,"[""period""]",0,[0.4274999999999807],19,0,19,0,1
,,,,,,,6100276b976b46d8b1c77a7c,,,,,,6100276b976b46d8b1c77a7c,Kobieta,22,2021-09-06_18h49.42.656,rantool2,2021.1.4,Win32,62.05398697,6135e006383e6ea6c3d06a28,61364655e4798dbe44d83463,"[""period""]",0,[0.6625000000000227],20,0,20,0,1
,,,,,,,6100276b976b46d8b1c77a7c,,,,,,6100276b976b46d8b1c77a7c,Kobieta,22,2021-09-06_18h49.42.656,rantool2,2021.1.4,Win32,62.05398697,6135e006383e6ea6c3d06a28,61364655e4798dbe44d83463,"[""period""]",0,[0.48070000004770463],21,0,21,0,1
,,,,,,,6100276b976b46d8b1c77a7c,,,,,,6100276b976b46d8b1c77a7c,Kobieta,22,2021-09-06_18h49.42.656,rantool2,2021.1.4,Win32,62.05398697,6135e006383e6ea6c3d06a28,61364655e4798dbe44d83463,"[""comma""]",0,[0.44719999992850035],22,0,22,0,1
,,,,,,,6100276b976b46d8b1c77a7c,,,,,,6100276b976b46d8b1c77a7c,Kobieta,22,2021-09-06_18h49.42.656,rantool2,2021.1.4,Win32,62.05398697,6135e006383e6ea6c3d06a28,61364655e4798dbe44d83463,"[""comma""]",0,[0.29520000004765734],23,0,23,0,1
,,,,,,,6100276b976b46d8b1c77a7c,,,,,,6100276b976b46d8b1c77a7c,Kobieta,22,2021-09-06_18h49.42.656,rantool2,2021.1.4,Win32,62.05398697,6135e006383e6ea6c3d06a28,61364655e4798dbe44d83463,"[""period""]",0,[0.6180999999046435],24,0,24,0,1
,,,,,,,6100276b976b46d8b1c77a7c,,,,,,6100276b976b46d8b1c77a7c,Kobieta,22,2021-09-06_18h49.42.656,rantool2,2021.1.4,Win32,62.05398697,6135e006383e6ea6c3d06a28,61364655e4798dbe44d83463,"[""period""]",0,[0.638600000023871],25,0,25,0,1
,,,,,,,6100276b976b46d8b1c77a7c,,,,,,6100276b976b46d8b1c77a7c,Kobieta,22,2021-09-06_18h49.42.656,rantool2,2021.1.4,Win32,62.05398697,6135e006383e6ea6c3d06a28,61364655e4798dbe44d83463,"[""comma""]",0,[0.3851999999284885],26,0,26,0,1
,,,,,,,6100276b976b46d8b1c77a7c,,,,,,6100276b976b46d8b1c77a7c,Kobieta,22,2021-09-06_18h49.42.656,rantool2,2021.1.4,Win32,62.05398697,6135e006383e6ea6c3d06a28,61364655e4798dbe44d83463,"[""period""]",0,[0.5800000000000409],27,0,27,0,1
,,,,,,,6100276b976b46d8b1c77a7c,,,,,,6100276b976b46d8b1c77a7c,Kobieta,22,2021-09-06_18h49.42.656,rantool2,2021.1.4,Win32,62.05398697,6135e006383e6ea6c3d06a28,61364655e4798dbe44d83463,"[""comma""]",0,[0.38889999997616087],28,0,28,0,1
,,,,,,,6100276b976b46d8b1c77a7c,,,,,,6100276b976b46d8b1c77a7c,Kobieta,22,2021-09-06_18h49.42.656,rantool2,2021.1.4,Win32,62.05398697,6135e006383e6ea6c3d06a28,61364655e4798dbe44d83463,"[""comma""]",0,[0.42570000004764097],29,0,29,0,1
,,,,,,,6100276b976b46d8b1c77a7c,,,,,,6100276b976b46d8b1c77a7c,Kobieta,22,2021-09-06_18h49.42.656,rantool2,2021.1.4,Win32,62.05398697,6135e006383e6ea6c3d06a28,61364655e4798dbe44d83463,"[""comma""]",0,[0.36549999999999727],30,0,30,0,1
,,,,,,,6100276b976b46d8b1c77a7c,,,,,,6100276b976b46d8b1c77a7c,Kobieta,22,2021-09-06_18h49.42.656,rantool2,2021.1.4,Win32,62.05398697,6135e006383e6ea6c3d06a28,61364655e4798dbe44d83463,"[""comma""]",0,[0.5349000000953765],31,0,31,0,1
,,,,,,,6100276b976b46d8b1c77a7c,,,,,,6100276b976b46d8b1c77a7c,Kobieta,22,2021-09-06_18h49.42.656,rantool2,2021.1.4,Win32,62.05398697,6135e006383e6ea6c3d06a28,61364655e4798dbe44d83463,"[""period""]",0,[0.4562000000476587],32,0,32,0,1
,,,,,,,6100276b976b46d8b1c77a7c,,,,,,6100276b976b46d8b1c77a7c,Kobieta,22,2021-09-06_18h49.42.656,rantool2,2021.1.4,Win32,62.05398697,6135e006383e6ea6c3d06a28,61364655e4798dbe44d83463,"[""period""]",0,[0.6030999999046571],33,0,33,0,1
,,,,,,,6100276b976b46d8b1c77a7c,,,,,,6100276b976b46d8b1c77a7c,Kobieta,22,2021-09-06_18h49.42.656,rantool2,2021.1.4,Win32,62.05398697,6135e006383e6ea6c3d06a28,61364655e4798dbe44d83463,"[""comma""]",0,[0.6922000000476487],34,0,34,0,1
,,,,,,,6100276b976b46d8b1c77a7c,,,,,,6100276b976b46d8b1c77a7c,Kobieta,22,2021-09-06_18h49.42.656,rantool2,2021.1.4,Win32,62.05398697,6135e006383e6ea6c3d06a28,61364655e4798dbe44d83463,"[""comma""]",0,[1.2872999999523245],35,0,35,0,1
,,,,,,,6100276b976b46d8b1c77a7c,,,,,,6100276b976b46d8b1c77a7c,Kobieta,22,2021-09-06_18h49.42.656,rantool2,2021.1.4,Win32,62.05398697,6135e006383e6ea6c3d06a28,61364655e4798dbe44d83463,"[""period""]",0,[1.0400000000000205],36,0,36,0,1
,,,,,,,6100276b976b46d8b1c77a7c,,,,,,6100276b976b46d8b1c77a7c,Kobieta,22,2021-09-06_18h49.42.656,rantool2,2021.1.4,Win32,62.05398697,6135e006383e6ea6c3d06a28,61364655e4798dbe44d83463,"[""period""]",0,[0.621600000023875],37,0,37,0,1
,,,,,,,6100276b976b46d8b1c77a7c,,,,,,6100276b976b46d8b1c77a7c,Kobieta,22,2021-09-06_18h49.42.656,rantool2,2021.1.4,Win32,62.05398697,6135e006383e6ea6c3d06a28,61364655e4798dbe44d83463,"[""comma""]",0,[0.3272999999522881],38,0,38,0,1
,,,,,,,6100276b976b46d8b1c77a7c,,,,,,6100276b976b46d8b1c77a7c,Kobieta,22,2021-09-06_18h49.42.656,rantool2,2021.1.4,Win32,62.05398697,6135e006383e6ea6c3d06a28,61364655e4798dbe44d83463,"[""comma""]",0,[0.2933999999761454],39,0,39,0,1
,,,,,,,6100276b976b46d8b1c77a7c,,,,,,6100276b976b46d8b1c77a7c,Kobieta,22,2021-09-06_18h49.42.656,rantool2,2021.1.4,Win32,62.05398697,6135e006383e6ea6c3d06a28,61364655e4798dbe44d83463,"[""period""]",0,[0.2357000000477001],40,0,40,0,1
,,,,,,,6100276b976b46d8b1c77a7c,,,,,,6100276b976b46d8b1c77a7c,Kobieta,22,2021-09-06_18h49.42.656,rantool2,2021.1.4,Win32,62.05398697,6135e006383e6ea6c3d06a28,61364655e4798dbe44d83463,"[""period""]",0,[0.4194999999999709],41,0,41,0,1
,,,,,,,6100276b976b46d8b1c77a7c,,,,,,6100276b976b46d8b1c77a7c,Kobieta,22,2021-09-06_18h49.42.656,rantool2,2021.1.4,Win32,62.05398697,6135e006383e6ea6c3d06a28,61364655e4798dbe44d83463,"[""period""]",0,[0.6644999999999754],42,0,42,0,1
,,,,,,,6100276b976b46d8b1c77a7c,,,,,,6100276b976b46d8b1c77a7c,Kobieta,22,2021-09-06_18h49.42.656,rantool2,2021.1.4,Win32,62.05398697,6135e006383e6ea6c3d06a28,61364655e4798dbe44d83463,0,0,,43,0,43,0,1
,,,,,,,6100276b976b46d8b1c77a7c,,,,,,6100276b976b46d8b1c77a7c,Kobieta,22,2021-09-06_18h49.42.656,rantool2,2021.1.4,Win32,62.05398697,6135e006383e6ea6c3d06a28,61364655e4798dbe44d83463,"[""period""]",0,[0.2567000000477151],44,0,44,0,1
,,,,,,,6100276b976b46d8b1c77a7c,,,,,,6100276b976b46d8b1c77a7c,Kobieta,22,2021-09-06_18h49.42.656,rantool2,2021.1.4,Win32,62.05398697,6135e006383e6ea6c3d06a28,61364655e4798dbe44d83463,0,0,,45,0,45,0,1
,,,,,,,6100276b976b46d8b1c77a7c,,,,,,6100276b976b46d8b1c77a7c,Kobieta,22,2021-09-06_18h49.42.656,rantool2,2021.1.4,Win32,62.05398697,6135e006383e6ea6c3d06a28,61364655e4798dbe44d83463,"[""period""]",0,[0.5573999999761554],46,0,46,0,1
,,,,,,,6100276b976b46d8b1c77a7c,,,,,,6100276b976b46d8b1c77a7c,Kobieta,22,2021-09-06_18h49.42.656,rantool2,2021.1.4,Win32,62.05398697,6135e006383e6ea6c3d06a28,61364655e4798dbe44d83463,"[""comma""]",0,[0.3966999999285008],47,0,47,0,1
,,,,,,,6100276b976b46d8b1c77a7c,,,,,,6100276b976b46d8b1c77a7c,Kobieta,22,2021-09-06_18h49.42.656,rantool2,2021.1.4,Win32,62.05398697,6135e006383e6ea6c3d06a28,61364655e4798dbe44d83463,"[""comma""]",0,[0.4947999999523063],48,0,48,0,1
,,,,,,,6100276b976b46d8b1c77a7c,,,,,,6100276b976b46d8b1c77a7c,Kobieta,22,2021-09-06_18h49.42.656,rantool2,2021.1.4,Win32,62.05398697,6135e006383e6ea6c3d06a28,61364655e4798dbe44d83463,"[""period""]",0,[0.8330999999046185],49,0,49,0,1
,,,,,,,6100276b976b46d8b1c77a7c,,,,,,6100276b976b46d8b1c77a7c,Kobieta,22,2021-09-06_18h49.42.656,rantool2,2021.1.4,Win32,62.05398697,6135e006383e6ea6c3d06a28,61364655e4798dbe44d83463,"[""period""]",0,[0.7069999999999936],50,0,50,0,1
,,,,,,,6100276b976b46d8b1c77a7c,,,,,,6100276b976b46d8b1c77a7c,Kobieta,22,2021-09-06_18h49.42.656,rantool2,2021.1.4,Win32,62.05398697,6135e006383e6ea6c3d06a28,61364655e4798dbe44d83463,"[""period""]",0,[1.1295000000000073],51,0,51,0,1
,,,,,,,6100276b976b46d8b1c77a7c,,,,,,6100276b976b46d8b1c77a7c,Kobieta,22,2021-09-06_18h49.42.656,rantool2,2021.1.4,Win32,62.05398697,6135e006383e6ea6c3d06a28,61364655e4798dbe44d83463,"[""comma""]",0,[0.7684999999999604],52,0,52,0,1
,,,,,,,6100276b976b46d8b1c77a7c,,,,,,6100276b976b46d8b1c77a7c,Kobieta,22,2021-09-06_18h49.42.656,rantool2,2021.1.4,Win32,62.05398697,6135e006383e6ea6c3d06a28,61364655e4798dbe44d83463,"[""comma""]",0,[0.855699999928504],53,0,53,0,1
,,,,,,,6100276b976b46d8b1c77a7c,,,,,,6100276b976b46d8b1c77a7c,Kobieta,22,2021-09-06_18h49.42.656,rantool2,2021.1.4,Win32,62.05398697,6135e006383e6ea6c3d06a28,61364655e4798dbe44d83463,"[""comma""]",0,[1.068200000047682],54,0,54,0,1
,,,,,,,6100276b976b46d8b1c77a7c,,,,,,6100276b976b46d8b1c77a7c,Kobieta,22,2021-09-06_18h49.42.656,rantool2,2021.1.4,Win32,62.05398697,6135e006383e6ea6c3d06a28,61364655e4798dbe44d83463,"[""period""]",0,[0.6413000000715101],55,0,55,0,1
,,,,,,,6100276b976b46d8b1c77a7c,,,,,,6100276b976b46d8b1c77a7c,Kobieta,22,2021-09-06_18h49.42.656,rantool2,2021.1.4,Win32,62.05398697,6135e006383e6ea6c3d06a28,61364655e4798dbe44d83463,"[""period""]",0,[0.4449999999999932],56,0,56,0,1
,,,,,,,6100276b976b46d8b1c77a7c,,,,,,6100276b976b46d8b1c77a7c,Kobieta,22,2021-09-06_18h49.42.656,rantool2,2021.1.4,Win32,62.05398697,6135e006383e6ea6c3d06a28,61364655e4798dbe44d83463,"[""period""]",0,[0.40540000009536925],57,0,57,0,1
,,,,,,,6100276b976b46d8b1c77a7c,,,,,,6100276b976b46d8b1c77a7c,Kobieta,22,2021-09-06_18h49.42.656,rantool2,2021.1.4,Win32,62.05398697,6135e006383e6ea6c3d06a28,61364655e4798dbe44d83463,"[""comma""]",0,[0.34550000000001546],58,0,58,0,1
,,,,,,,6100276b976b46d8b1c77a7c,,,,,,6100276b976b46d8b1c77a7c,Kobieta,22,2021-09-06_18h49.42.656,rantool2,2021.1.4,Win32,62.05398697,6135e006383e6ea6c3d06a28,61364655e4798dbe44d83463,"[""comma""]",0,[0.33579999995231447],59,0,59,0,1
,,,,,,,6100276b976b46d8b1c77a7c,,,,,,6100276b976b46d8b1c77a7c,Kobieta,22,2021-09-06_18h49.42.656,rantool2,2021.1.4,Win32,62.05398697,6135e006383e6ea6c3d06a28,61364655e4798dbe44d83463,"[""period""]",0,[0.2962999999522822],60,0,60,0,1
,,,,,,,6100276b976b46d8b1c77a7c,,,,,,6100276b976b46d8b1c77a7c,Kobieta,22,2021-09-06_18h49.42.656,rantool2,2021.1.4,Win32,62.05398697,6135e006383e6ea6c3d06a28,61364655e4798dbe44d83463,"[""period""]",0,[0.33060000002387824],61,0,61,0,1
,,,,,,,6100276b976b46d8b1c77a7c,,,,,,6100276b976b46d8b1c77a7c,Kobieta,22,2021-09-06_18h49.42.656,rantool2,2021.1.4,Win32,62.05398697,6135e006383e6ea6c3d06a28,61364655e4798dbe44d83463,"[""period"",""period""]",0,"[0.02490000009538562,1.8577000000476573]",62,0,62,0,1
,,,,,,,6100276b976b46d8b1c77a7c,,,,,,6100276b976b46d8b1c77a7c,Kobieta,22,2021-09-06_18h49.42.656,rantool2,2021.1.4,Win32,62.05398697,6135e006383e6ea6c3d06a28,61364655e4798dbe44d83463,0,0,,63,0,63,0,1
,,,,,,,6100276b976b46d8b1c77a7c,,,,,,6100276b976b46d8b1c77a7c,Kobieta,22,2021-09-06_18h49.42.656,rantool2,2021.1.4,Win32,62.05398697,6135e006383e6ea6c3d06a28,61364655e4798dbe44d83463,"[""period""]",0,[0.117999999999995],64,0,64,0,1
,,,,,,,6100276b976b46d8b1c77a7c,,,,,,6100276b976b46d8b1c77a7c,Kobieta,22,2021-09-06_18h49.42.656,rantool2,2021.1.4,Win32,62.05398697,6135e006383e6ea6c3d06a28,61364655e4798dbe44d83463,"[""period""]",0,[0.8397999999523336],65,0,65,0,1
,,,,,,,6100276b976b46d8b1c77a7c,,,,,,6100276b976b46d8b1c77a7c,Kobieta,22,2021-09-06_18h49.42.656,rantool2,2021.1.4,Win32,62.05398697,6135e006383e6ea6c3d06a28,61364655e4798dbe44d83463,"[""period""]",0,[1.4307000000476933],66,0,66,0,1
,,,,,,,6100276b976b46d8b1c77a7c,,,,,,6100276b976b46d8b1c77a7c,Kobieta,22,2021-09-06_18h49.42.656,rantool2,2021.1.4,Win32,62.05398697,6135e006383e6ea6c3d06a28,61364655e4798dbe44d83463,0,0,,67,0,67,0,1
,,,,,,,6100276b976b46d8b1c77a7c,,,,,,6100276b976b46d8b1c77a7c,Kobieta,22,2021-09-06_18h49.42.656,rantool2,2021.1.4,Win32,62.05398697,6135e006383e6ea6c3d06a28,61364655e4798dbe44d83463,0,0,,68,0,68,0,1
,,,,,,,6100276b976b46d8b1c77a7c,,,,,,6100276b976b46d8b1c77a7c,Kobieta,22,2021-09-06_18h49.42.656,rantool2,2021.1.4,Win32,62.05398697,6135e006383e6ea6c3d06a28,61364655e4798dbe44d83463,"[""comma"",""period""]",0,"[0.04630000007153967,1.9180000000000064]",69,0,69,0,1
,,,,,,,6100276b976b46d8b1c77a7c,,,,,,6100276b976b46d8b1c77a7c,Kobieta,22,2021-09-06_18h49.42.656,rantool2,2021.1.4,Win32,62.05398697,6135e006383e6ea6c3d06a28,61364655e4798dbe44d83463,"[""period""]",0,[0.7826000000238196],70,0,70,0,1
,,,,,,,6100276b976b46d8b1c77a7c,,,,,,6100276b976b46d8b1c77a7c,Kobieta,22,2021-09-06_18h49.42.656,rantool2,2021.1.4,Win32,62.05398697,6135e006383e6ea6c3d06a28,61364655e4798dbe44d83463,"[""period""]",0,[1.685199999928443],71,0,71,0,1
,,,,,,,6100276b976b46d8b1c77a7c,,,,,,6100276b976b46d8b1c77a7c,Kobieta,22,2021-09-06_18h49.42.656,rantool2,2021.1.4,Win32,62.05398697,6135e006383e6ea6c3d06a28,61364655e4798dbe44d83463,0,0,,72,0,72,0,1
,,,,,,,6100276b976b46d8b1c77a7c,,,,,,6100276b976b46d8b1c77a7c,Kobieta,22,2021-09-06_18h49.42.656,rantool2,2021.1.4,Win32,62.05398697,6135e006383e6ea6c3d06a28,61364655e4798dbe44d83463,"[""period""]",0,[0.6619000000953861],73,0,73,0,1
,,,,,,,6100276b976b46d8b1c77a7c,,,,,,6100276b976b46d8b1c77a7c,Kobieta,22,2021-09-06_18h49.42.656,rantool2,2021.1.4,Win32,62.05398697,6135e006383e6ea6c3d06a28,61364655e4798dbe44d83463,"[""comma""]",0,[0.9660000000000082],74,0,74,0,1
,,,,,,,6100276b976b46d8b1c77a7c,,,,,,6100276b976b46d8b1c77a7c,Kobieta,22,2021-09-06_18h49.42.656,rantool2,2021.1.4,Win32,62.05398697,6135e006383e6ea6c3d06a28,61364655e4798dbe44d83463,"[""comma""]",0,[0.9528999999761822],75,0,75,0,1
,,,,,,,6100276b976b46d8b1c77a7c,,,,,,6100276b976b46d8b1c77a7c,Kobieta,22,2021-09-06_18h49.42.656,rantool2,2021.1.4,Win32,62.05398697,6135e006383e6ea6c3d06a28,61364655e4798dbe44d83463,0,0,,76,0,76,0,1
,,,,,,,6100276b976b46d8b1c77a7c,,,,,,6100276b976b46d8b1c77a7c,Kobieta,22,2021-09-06_18h49.42.656,rantool2,2021.1.4,Win32,62.05398697,6135e006383e6ea6c3d06a28,61364655e4798dbe44d83463,0,0,,77,0,77,0,1
,,,,,,,6100276b976b46d8b1c77a7c,,,,,,6100276b976b46d8b1c77a7c,Kobieta,22,2021-09-06_18h49.42.656,rantool2,2021.1.4,Win32,62.05398697,6135e006383e6ea6c3d06a28,61364655e4798dbe44d83463,"[""period""]",0,[0.23450000000002547],78,0,78,0,1
,,,,,,,6100276b976b46d8b1c77a7c,,,,,,6100276b976b46d8b1c77a7c,Kobieta,22,2021-09-06_18h49.42.656,rantool2,2021.1.4,Win32,62.05398697,6135e006383e6ea6c3d06a28,61364655e4798dbe44d83463,0,0,,79,0,79,0,1
,,,,,,,6100276b976b46d8b1c77a7c,,,,,,6100276b976b46d8b1c77a7c,Kobieta,22,2021-09-06_18h49.42.656,rantool2,2021.1.4,Win32,62.05398697,6135e006383e6ea6c3d06a28,61364655e4798dbe44d83463,"[""period""]",0,[0.17639999997612676],80,0,80,0,1
,,,,,,,6100276b976b46d8b1c77a7c,,,,,,6100276b976b46d8b1c77a7c,Kobieta,22,2021-09-06_18h49.42.656,rantool2,2021.1.4,Win32,62.05398697,6135e006383e6ea6c3d06a28,61364655e4798dbe44d83463,"[""period""]",0,[0.8044000000953702],81,0,81,0,1
,,,,,,,6100276b976b46d8b1c77a7c,,,,,,6100276b976b46d8b1c77a7c,Kobieta,22,2021-09-06_18h49.42.656,rantool2,2021.1.4,Win32,62.05398697,6135e006383e6ea6c3d06a28,61364655e4798dbe44d83463,"[""period""]",0,[1.8793000000715097],82,0,82,0,1
,,,,,,,6100276b976b46d8b1c77a7c,,,,,,6100276b976b46d8b1c77a7c,Kobieta,22,2021-09-06_18h49.42.656,rantool2,2021.1.4,Win32,62.05398697,6135e006383e6ea6c3d06a28,61364655e4798dbe44d83463,"[""period""]",0,[0.8076999999285022],83,0,83,0,1
,,,,,,,6100276b976b46d8b1c77a7c,,,,,,6100276b976b46d8b1c77a7c,Kobieta,22,2021-09-06_18h49.42.656,rantool2,2021.1.4,Win32,62.05398697,6135e006383e6ea6c3d06a28,61364655e4798dbe44d83463,"[""comma"",""period""]",0,"[0.8382999999523122,0.8623999999761622]",84,0,84,0,1
,,,,,,,6100276b976b46d8b1c77a7c,,,,,,6100276b976b46d8b1c77a7c,Kobieta,22,2021-09-06_18h49.42.656,rantool2,2021.1.4,Win32,62.05398697,6135e006383e6ea6c3d06a28,61364655e4798dbe44d83463,0,0,,85,0,85,0,1
,,,,,,,6100276b976b46d8b1c77a7c,,,,,,6100276b976b46d8b1c77a7c,Kobieta,22,2021-09-06_18h49.42.656,rantool2,2021.1.4,Win32,62.05398697,6135e006383e6ea6c3d06a28,61364655e4798dbe44d83463,0,0,,86,0,86,0,1
,,,,,,,6100276b976b46d8b1c77a7c,,,,,,6100276b976b46d8b1c77a7c,Kobieta,22,2021-09-06_18h49.42.656,rantool2,2021.1.4,Win32,62.05398697,6135e006383e6ea6c3d06a28,61364655e4798dbe44d83463,"[""period""]",0,[1.0009999999999764],87,0,87,0,1
,,,,,,,6100276b976b46d8b1c77a7c,,,,,,6100276b976b46d8b1c77a7c,Kobieta,22,2021-09-06_18h49.42.656,rantool2,2021.1.4,Win32,62.05398697,6135e006383e6ea6c3d06a28,61364655e4798dbe44d83463,0,0,,88,0,88,0,1
,,,,,,,6100276b976b46d8b1c77a7c,,,,,,6100276b976b46d8b1c77a7c,Kobieta,22,2021-09-06_18h49.42.656,rantool2,2021.1.4,Win32,62.05398697,6135e006383e6ea6c3d06a28,61364655e4798dbe44d83463,"[""period"",""period""]",0,"[0.22540000009536243,1.7056000000238782]",89,0,89,0,1
,,,,,,,6100276b976b46d8b1c77a7c,,,,,,6100276b976b46d8b1c77a7c,Kobieta,22,2021-09-06_18h49.42.656,rantool2,2021.1.4,Win32,62.05398697,6135e006383e6ea6c3d06a28,61364655e4798dbe44d83463,"[""period""]",0,[0.7652999999522763],90,0,90,0,1
,,,,,,,6100276b976b46d8b1c77a7c,,,,,,6100276b976b46d8b1c77a7c,Kobieta,22,2021-09-06_18h49.42.656,rantool2,2021.1.4,Win32,62.05398697,6135e006383e6ea6c3d06a28,61364655e4798dbe44d83463,"[""period"",""period""]",0,"[0.2621000000238496,1.4417000000477174]",91,0,91,0,1
,,,,,,,6100276b976b46d8b1c77a7c,,,,,,6100276b976b46d8b1c77a7c,Kobieta,22,2021-09-06_18h49.42.656,rantool2,2021.1.4,Win32,62.05398697,6135e006383e6ea6c3d06a28,61364655e4798dbe44d83463,"[""period""]",0,[0.4098999999761759],92,0,92,0,1
,,,,,,,6100276b976b46d8b1c77a7c,,,,,,6100276b976b46d8b1c77a7c,Kobieta,22,2021-09-06_18h49.42.656,rantool2,2021.1.4,Win32,62.05398697,6135e006383e6ea6c3d06a28,61364655e4798dbe44d83463,"[""period""]",0,[0.7326999999284567],93,0,93,0,1
,,,,,,,6100276b976b46d8b1c77a7c,,,,,,6100276b976b46d8b1c77a7c,Kobieta,22,2021-09-06_18h49.42.656,rantool2,2021.1.4,Win32,62.05398697,6135e006383e6ea6c3d06a28,61364655e4798dbe44d83463,"[""comma""]",0,[0.4001000000238264],94,0,94,0,1
,,,,,,,6100276b976b46d8b1c77a7c,,,,,,6100276b976b46d8b1c77a7c,Kobieta,22,2021-09-06_18h49.42.656,rantool2,2021.1.4,Win32,62.05398697,6135e006383e6ea6c3d06a28,61364655e4798dbe44d83463,0,0,,95,0,95,0,1
,,,,,,,6100276b976b46d8b1c77a7c,,,,,,6100276b976b46d8b1c77a7c,Kobieta,22,2021-09-06_18h49.42.656,rantool2,2021.1.4,Win32,62.05398697,6135e006383e6ea6c3d06a28,61364655e4798dbe44d83463,0,0,,96,0,96,0,1
,,,,,,,6100276b976b46d8b1c77a7c,,,,,,6100276b976b46d8b1c77a7c,Kobieta,22,2021-09-06_18h49.42.656,rantool2,2021.1.4,Win32,62.05398697,6135e006383e6ea6c3d06a28,61364655e4798dbe44d83463,"[""period""]",0,[1.3146999999285072],97,0,97,0,1
,,,,,,,6100276b976b46d8b1c77a7c,,,,,,6100276b976b46d8b1c77a7c,Kobieta,22,2021-09-06_18h49.42.656,rantool2,2021.1.4,Win32,62.05398697,6135e006383e6ea6c3d06a28,61364655e4798dbe44d83463,"[""period""]",0,[0.2796000000238337],98,0,98,0,1
,,,,,,,6100276b976b46d8b1c77a7c,,,,,,6100276b976b46d8b1c77a7c,Kobieta,22,2021-09-06_18h49.42.656,rantool2,2021.1.4,Win32,62.05398697,6135e006383e6ea6c3d06a28,61364655e4798dbe44d83463,"[""period""]",0,[0.7295999999046217],99,0,99,0,1
,,,,,,,6100276b976b46d8b1c77a7c,,,,,,6100276b976b46d8b1c77a7c,Kobieta,22,2021-09-06_18h49.42.656,rantool2,2021.1.4,Win32,62.05398697,6135e006383e6ea6c3d06a28,61364655e4798dbe44d83463,0,0,,100,0,100,0,1
,,,,,,,6100276b976b46d8b1c77a7c,,,,,,6100276b976b46d8b1c77a7c,Kobieta,22,2021-09-06_18h49.42.656,rantool2,2021.1.4,Win32,62.05398697,6135e006383e6ea6c3d06a28,61364655e4798dbe44d83463,"[""period""]",0,[1.2066000000238546],101,0,101,0,1
,,,,,,,6100276b976b46d8b1c77a7c,,,,,,6100276b976b46d8b1c77a7c,Kobieta,22,2021-09-06_18h49.42.656,rantool2,2021.1.4,Win32,62.05398697,6135e006383e6ea6c3d06a28,61364655e4798dbe44d83463,"[""period""]",0,[0.4362999999523254],102,0,102,0,1
,,,,,,,6100276b976b46d8b1c77a7c,,,,,,6100276b976b46d8b1c77a7c,Kobieta,22,2021-09-06_18h49.42.656,rantool2,2021.1.4,Win32,62.05398697,6135e006383e6ea6c3d06a28,61364655e4798dbe44d83463,0,0,,103,0,103,0,1
,,,,,,,6100276b976b46d8b1c77a7c,,,,,,6100276b976b46d8b1c77a7c,Kobieta,22,2021-09-06_18h49.42.656,rantool2,2021.1.4,Win32,62.05398697,6135e006383e6ea6c3d06a28,61364655e4798dbe44d83463,"[""comma""]",0,[0.32489999997619634],104,0,104,0,1
,,,,,,,6100276b976b46d8b1c77a7c,,,,,,6100276b976b46d8b1c77a7c,Kobieta,22,2021-09-06_18h49.42.656,rantool2,2021.1.4,Win32,62.05398697,6135e006383e6ea6c3d06a28,61364655e4798dbe44d83463,"[""period""]",0,[0.18549999999999045],105,0,105,0,1
,,,,,,,6100276b976b46d8b1c77a7c,,,,,,6100276b976b46d8b1c77a7c,Kobieta,22,2021-09-06_18h49.42.656,rantool2,2021.1.4,Win32,62.05398697,6135e006383e6ea6c3d06a28,61364655e4798dbe44d83463,"[""period""]",0,[1.9436999999284694],106,0,106,0,1
,,,,,,,6100276b976b46d8b1c77a7c,,,,,,6100276b976b46d8b1c77a7c,Kobieta,22,2021-09-06_18h49.42.656,rantool2,2021.1.4,Win32,62.05398697,6135e006383e6ea6c3d06a28,61364655e4798dbe44d83463,0,0,,107,0,107,0,1
,,,,,,,6100276b976b46d8b1c77a7c,,,,,,6100276b976b46d8b1c77a7c,Kobieta,22,2021-09-06_18h49.42.656,rantool2,2021.1.4,Win32,62.05398697,6135e006383e6ea6c3d06a28,61364655e4798dbe44d83463,0,0,,108,0,108,0,1
,,,,,,,6100276b976b46d8b1c77a7c,,,,,,6100276b976b46d8b1c77a7c,Kobieta,22,2021-09-06_18h49.42.656,rantool2,2021.1.4,Win32,62.05398697,6135e006383e6ea6c3d06a28,61364655e4798dbe44d83463,0,0,,109,0,109,0,1
,,,,,,,6100276b976b46d8b1c77a7c,,,,,,6100276b976b46d8b1c77a7c,Kobieta,22,2021-09-06_18h49.42.656,rantool2,2021.1.4,Win32,62.05398697,6135e006383e6ea6c3d06a28,61364655e4798dbe44d83463,0,0,,110,0,110,0,1
,,,,,,,6100276b976b46d8b1c77a7c,,,,,,6100276b976b46d8b1c77a7c,Kobieta,22,2021-09-06_18h49.42.656,rantool2,2021.1.4,Win32,62.05398697,6135e006383e6ea6c3d06a28,61364655e4798dbe44d83463,"[""period""]",0,[0.9048999999761236],111,0,111,0,1
,,,,,,,6100276b976b46d8b1c77a7c,,,,,,6100276b976b46d8b1c77a7c,Kobieta,22,2021-09-06_18h49.42.656,rantool2,2021.1.4,Win32,62.05398697,6135e006383e6ea6c3d06a28,61364655e4798dbe44d83463,"[""period""]",0,[1.6057999999522963],112,0,112,0,1
,,,,,,,6100276b976b46d8b1c77a7c,,,,,,6100276b976b46d8b1c77a7c,Kobieta,22,2021-09-06_18h49.42.656,rantool2,2021.1.4,Win32,62.05398697,6135e006383e6ea6c3d06a28,61364655e4798dbe44d83463,"[""period"",""period""]",0,"[0.40699999999998226,1.1358000000715265]",113,0,113,0,1
,,,,,,,6100276b976b46d8b1c77a7c,,,,,,6100276b976b46d8b1c77a7c,Kobieta,22,2021-09-06_18h49.42.656,rantool2,2021.1.4,Win32,62.05398697,6135e006383e6ea6c3d06a28,61364655e4798dbe44d83463,0,0,,114,0,114,0,1
,,,,,,,6100276b976b46d8b1c77a7c,,,,,,6100276b976b46d8b1c77a7c,Kobieta,22,2021-09-06_18h49.42.656,rantool2,2021.1.4,Win32,62.05398697,6135e006383e6ea6c3d06a28,61364655e4798dbe44d83463,0,0,,115,0,115,0,1
,,,,,,,6100276b976b46d8b1c77a7c,,,,,,6100276b976b46d8b1c77a7c,Kobieta,22,2021-09-06_18h49.42.656,rantool2,2021.1.4,Win32,62.05398697,6135e006383e6ea6c3d06a28,61364655e4798dbe44d83463,"[""period""]",0,[0.42210000002381776],116,0,116,0,1
,,,,,,,6100276b976b46d8b1c77a7c,,,,,,6100276b976b46d8b1c77a7c,Kobieta,22,2021-09-06_18h49.42.656,rantool2,2021.1.4,Win32,62.05398697,6135e006383e6ea6c3d06a28,61364655e4798dbe44d83463,0,0,,117,0,117,0,1
,,,,,,,6100276b976b46d8b1c77a7c,,,,,,6100276b976b46d8b1c77a7c,Kobieta,22,2021-09-06_18h49.42.656,rantool2,2021.1.4,Win32,62.05398697,6135e006383e6ea6c3d06a28,61364655e4798dbe44d83463,0,0,,118,0,118,0,1
,,,,,,,6100276b976b46d8b1c77a7c,,,,,,6100276b976b46d8b1c77a7c,Kobieta,22,2021-09-06_18h49.42.656,rantool2,2021.1.4,Win32,62.05398697,6135e006383e6ea6c3d06a28,61364655e4798dbe44d83463,"[""period""]",0,[1.1873999999762077],119,0,119,0,1
