key_resp_5.keys,key_resp_5.corr,key_resp_5.rt,trials.thisRepN,trials.thisTrialN,trials.thisN,trials.thisIndex,trials.ran,id*,Płeć*,Wiek*,date,expName,psychopyVersion,OS,frameRate,id,STUDY_ID,SESSION_ID,key_resp_7.keys,key_resp_7.rt,trials_2.thisRepN,trials_2.thisTrialN,trials_2.thisN,trials_2.thisIndex,trials_2.ran,series_0,series_1,acss_0,acss_1,comparison
"[""comma""]",0,[0.7620000000000005],0,0,0,0,1,5ee9c99d4b37e300082613e6,Mężczyzna,22,2021-07-13_21h55.19.460,rantool2,2021.1.4,Win32,60.0240096,5ee9c99d4b37e300082613e6,60d9d14f4a8a35a482e0d9bf,60edef3e6268e2997aa02a06,,,,,,,,,,,,
"[""period""]",0,[0.5019999999999953],1,0,1,0,1,5ee9c99d4b37e300082613e6,Mężczyzna,22,2021-07-13_21h55.19.460,rantool2,2021.1.4,Win32,60.0240096,5ee9c99d4b37e300082613e6,60d9d14f4a8a35a482e0d9bf,60edef3e6268e2997aa02a06,,,,,,,,,,,,
"[""comma""]",0,[0.26899999999999125],2,0,2,0,1,5ee9c99d4b37e300082613e6,Mężczyzna,22,2021-07-13_21h55.19.460,rantool2,2021.1.4,Win32,60.0240096,5ee9c99d4b37e300082613e6,60d9d14f4a8a35a482e0d9bf,60edef3e6268e2997aa02a06,,,,,,,,,,,,
"[""period"",""comma""]",0,"[0.2849999999999966,1.7710000000000008]",3,0,3,0,1,5ee9c99d4b37e300082613e6,Mężczyzna,22,2021-07-13_21h55.19.460,rantool2,2021.1.4,Win32,60.0240096,5ee9c99d4b37e300082613e6,60d9d14f4a8a35a482e0d9bf,60edef3e6268e2997aa02a06,,,,,,,,,,,,
0,0,,4,0,4,0,1,5ee9c99d4b37e300082613e6,Mężczyzna,22,2021-07-13_21h55.19.460,rantool2,2021.1.4,Win32,60.0240096,5ee9c99d4b37e300082613e6,60d9d14f4a8a35a482e0d9bf,60edef3e6268e2997aa02a06,,,,,,,,,,,,
"[""period""]",0,[0.26799999999998647],5,0,5,0,1,5ee9c99d4b37e300082613e6,Mężczyzna,22,2021-07-13_21h55.19.460,rantool2,2021.1.4,Win32,60.0240096,5ee9c99d4b37e300082613e6,60d9d14f4a8a35a482e0d9bf,60edef3e6268e2997aa02a06,,,,,,,,,,,,
"[""comma""]",0,[0.3359999999999985],6,0,6,0,1,5ee9c99d4b37e300082613e6,Mężczyzna,22,2021-07-13_21h55.19.460,rantool2,2021.1.4,Win32,60.0240096,5ee9c99d4b37e300082613e6,60d9d14f4a8a35a482e0d9bf,60edef3e6268e2997aa02a06,,,,,,,,,,,,
"[""period""]",0,[0.3019999999999925],7,0,7,0,1,5ee9c99d4b37e300082613e6,Mężczyzna,22,2021-07-13_21h55.19.460,rantool2,2021.1.4,Win32,60.0240096,5ee9c99d4b37e300082613e6,60d9d14f4a8a35a482e0d9bf,60edef3e6268e2997aa02a06,,,,,,,,,,,,
"[""comma""]",0,[0.32399999999999807],8,0,8,0,1,5ee9c99d4b37e300082613e6,Mężczyzna,22,2021-07-13_21h55.19.460,rantool2,2021.1.4,Win32,60.0240096,5ee9c99d4b37e300082613e6,60d9d14f4a8a35a482e0d9bf,60edef3e6268e2997aa02a06,,,,,,,,,,,,
"[""comma""]",0,[0.2839999999999918],9,0,9,0,1,5ee9c99d4b37e300082613e6,Mężczyzna,22,2021-07-13_21h55.19.460,rantool2,2021.1.4,Win32,60.0240096,5ee9c99d4b37e300082613e6,60d9d14f4a8a35a482e0d9bf,60edef3e6268e2997aa02a06,,,,,,,,,,,,
"[""period""]",0,[0.3359999999999985],10,0,10,0,1,5ee9c99d4b37e300082613e6,Mężczyzna,22,2021-07-13_21h55.19.460,rantool2,2021.1.4,Win32,60.0240096,5ee9c99d4b37e300082613e6,60d9d14f4a8a35a482e0d9bf,60edef3e6268e2997aa02a06,,,,,,,,,,,,
"[""period""]",0,[0.2669999999999959],11,0,11,0,1,5ee9c99d4b37e300082613e6,Mężczyzna,22,2021-07-13_21h55.19.460,rantool2,2021.1.4,Win32,60.0240096,5ee9c99d4b37e300082613e6,60d9d14f4a8a35a482e0d9bf,60edef3e6268e2997aa02a06,,,,,,,,,,,,
"[""comma""]",0,[0.2839999999999918],12,0,12,0,1,5ee9c99d4b37e300082613e6,Mężczyzna,22,2021-07-13_21h55.19.460,rantool2,2021.1.4,Win32,60.0240096,5ee9c99d4b37e300082613e6,60d9d14f4a8a35a482e0d9bf,60edef3e6268e2997aa02a06,,,,,,,,,,,,
"[""period""]",0,[0.269999999999996],13,0,13,0,1,5ee9c99d4b37e300082613e6,Mężczyzna,22,2021-07-13_21h55.19.460,rantool2,2021.1.4,Win32,60.0240096,5ee9c99d4b37e300082613e6,60d9d14f4a8a35a482e0d9bf,60edef3e6268e2997aa02a06,,,,,,,,,,,,
"[""comma""]",0,[0.2849999999999966],14,0,14,0,1,5ee9c99d4b37e300082613e6,Mężczyzna,22,2021-07-13_21h55.19.460,rantool2,2021.1.4,Win32,60.0240096,5ee9c99d4b37e300082613e6,60d9d14f4a8a35a482e0d9bf,60edef3e6268e2997aa02a06,,,,,,,,,,,,
"[""period""]",0,[0.30400000000000205],15,0,15,0,1,5ee9c99d4b37e300082613e6,Mężczyzna,22,2021-07-13_21h55.19.460,rantool2,2021.1.4,Win32,60.0240096,5ee9c99d4b37e300082613e6,60d9d14f4a8a35a482e0d9bf,60edef3e6268e2997aa02a06,,,,,,,,,,,,
"[""comma""]",0,[0.3019999999999925],16,0,16,0,1,5ee9c99d4b37e300082613e6,Mężczyzna,22,2021-07-13_21h55.19.460,rantool2,2021.1.4,Win32,60.0240096,5ee9c99d4b37e300082613e6,60d9d14f4a8a35a482e0d9bf,60edef3e6268e2997aa02a06,,,,,,,,,,,,
"[""comma""]",0,[0.25],17,0,17,0,1,5ee9c99d4b37e300082613e6,Mężczyzna,22,2021-07-13_21h55.19.460,rantool2,2021.1.4,Win32,60.0240096,5ee9c99d4b37e300082613e6,60d9d14f4a8a35a482e0d9bf,60edef3e6268e2997aa02a06,,,,,,,,,,,,
"[""comma""]",0,[0.26900000000000546],18,0,18,0,1,5ee9c99d4b37e300082613e6,Mężczyzna,22,2021-07-13_21h55.19.460,rantool2,2021.1.4,Win32,60.0240096,5ee9c99d4b37e300082613e6,60d9d14f4a8a35a482e0d9bf,60edef3e6268e2997aa02a06,,,,,,,,,,,,
"[""period""]",0,[0.08500000000000796],19,0,19,0,1,5ee9c99d4b37e300082613e6,Mężczyzna,22,2021-07-13_21h55.19.460,rantool2,2021.1.4,Win32,60.0240096,5ee9c99d4b37e300082613e6,60d9d14f4a8a35a482e0d9bf,60edef3e6268e2997aa02a06,,,,,,,,,,,,
"[""period""]",0,[0.3020000000000209],20,0,20,0,1,5ee9c99d4b37e300082613e6,Mężczyzna,22,2021-07-13_21h55.19.460,rantool2,2021.1.4,Win32,60.0240096,5ee9c99d4b37e300082613e6,60d9d14f4a8a35a482e0d9bf,60edef3e6268e2997aa02a06,,,,,,,,,,,,
"[""comma""]",0,[0.29100000000002524],21,0,21,0,1,5ee9c99d4b37e300082613e6,Mężczyzna,22,2021-07-13_21h55.19.460,rantool2,2021.1.4,Win32,60.0240096,5ee9c99d4b37e300082613e6,60d9d14f4a8a35a482e0d9bf,60edef3e6268e2997aa02a06,,,,,,,,,,,,
"[""period""]",0,[0.3410000000000082],22,0,22,0,1,5ee9c99d4b37e300082613e6,Mężczyzna,22,2021-07-13_21h55.19.460,rantool2,2021.1.4,Win32,60.0240096,5ee9c99d4b37e300082613e6,60d9d14f4a8a35a482e0d9bf,60edef3e6268e2997aa02a06,,,,,,,,,,,,
"[""period""]",0,[0.2740000000000009],23,0,23,0,1,5ee9c99d4b37e300082613e6,Mężczyzna,22,2021-07-13_21h55.19.460,rantool2,2021.1.4,Win32,60.0240096,5ee9c99d4b37e300082613e6,60d9d14f4a8a35a482e0d9bf,60edef3e6268e2997aa02a06,,,,,,,,,,,,
"[""period""]",0,[0.28600000000000136],24,0,24,0,1,5ee9c99d4b37e300082613e6,Mężczyzna,22,2021-07-13_21h55.19.460,rantool2,2021.1.4,Win32,60.0240096,5ee9c99d4b37e300082613e6,60d9d14f4a8a35a482e0d9bf,60edef3e6268e2997aa02a06,,,,,,,,,,,,
"[""comma""]",0,[0.3089999999999975],25,0,25,0,1,5ee9c99d4b37e300082613e6,Mężczyzna,22,2021-07-13_21h55.19.460,rantool2,2021.1.4,Win32,60.0240096,5ee9c99d4b37e300082613e6,60d9d14f4a8a35a482e0d9bf,60edef3e6268e2997aa02a06,,,,,,,,,,,,
"[""period""]",0,[0.2879999999999825],26,0,26,0,1,5ee9c99d4b37e300082613e6,Mężczyzna,22,2021-07-13_21h55.19.460,rantool2,2021.1.4,Win32,60.0240096,5ee9c99d4b37e300082613e6,60d9d14f4a8a35a482e0d9bf,60edef3e6268e2997aa02a06,,,,,,,,,,,,
"[""comma""]",0,[0.3199999999999932],27,0,27,0,1,5ee9c99d4b37e300082613e6,Mężczyzna,22,2021-07-13_21h55.19.460,rantool2,2021.1.4,Win32,60.0240096,5ee9c99d4b37e300082613e6,60d9d14f4a8a35a482e0d9bf,60edef3e6268e2997aa02a06,,,,,,,,,,,,
"[""period""]",0,[0.46999999999999886],28,0,28,0,1,5ee9c99d4b37e300082613e6,Mężczyzna,22,2021-07-13_21h55.19.460,rantool2,2021.1.4,Win32,60.0240096,5ee9c99d4b37e300082613e6,60d9d14f4a8a35a482e0d9bf,60edef3e6268e2997aa02a06,,,,,,,,,,,,
"[""comma""]",0,[0.6670000000000016],29,0,29,0,1,5ee9c99d4b37e300082613e6,Mężczyzna,22,2021-07-13_21h55.19.460,rantool2,2021.1.4,Win32,60.0240096,5ee9c99d4b37e300082613e6,60d9d14f4a8a35a482e0d9bf,60edef3e6268e2997aa02a06,,,,,,,,,,,,
"[""period""]",0,[0.339999999999975],30,0,30,0,1,5ee9c99d4b37e300082613e6,Mężczyzna,22,2021-07-13_21h55.19.460,rantool2,2021.1.4,Win32,60.0240096,5ee9c99d4b37e300082613e6,60d9d14f4a8a35a482e0d9bf,60edef3e6268e2997aa02a06,,,,,,,,,,,,
"[""comma""]",0,[0.3849999999999909],31,0,31,0,1,5ee9c99d4b37e300082613e6,Mężczyzna,22,2021-07-13_21h55.19.460,rantool2,2021.1.4,Win32,60.0240096,5ee9c99d4b37e300082613e6,60d9d14f4a8a35a482e0d9bf,60edef3e6268e2997aa02a06,,,,,,,,,,,,
"[""period""]",0,[0.48699999999999477],32,0,32,0,1,5ee9c99d4b37e300082613e6,Mężczyzna,22,2021-07-13_21h55.19.460,rantool2,2021.1.4,Win32,60.0240096,5ee9c99d4b37e300082613e6,60d9d14f4a8a35a482e0d9bf,60edef3e6268e2997aa02a06,,,,,,,,,,,,
"[""comma""]",0,[0.4230000000000018],33,0,33,0,1,5ee9c99d4b37e300082613e6,Mężczyzna,22,2021-07-13_21h55.19.460,rantool2,2021.1.4,Win32,60.0240096,5ee9c99d4b37e300082613e6,60d9d14f4a8a35a482e0d9bf,60edef3e6268e2997aa02a06,,,,,,,,,,,,
"[""period""]",0,[0.3019999999999925],34,0,34,0,1,5ee9c99d4b37e300082613e6,Mężczyzna,22,2021-07-13_21h55.19.460,rantool2,2021.1.4,Win32,60.0240096,5ee9c99d4b37e300082613e6,60d9d14f4a8a35a482e0d9bf,60edef3e6268e2997aa02a06,,,,,,,,,,,,
"[""comma""]",0,[0.5039999999999907],35,0,35,0,1,5ee9c99d4b37e300082613e6,Mężczyzna,22,2021-07-13_21h55.19.460,rantool2,2021.1.4,Win32,60.0240096,5ee9c99d4b37e300082613e6,60d9d14f4a8a35a482e0d9bf,60edef3e6268e2997aa02a06,,,,,,,,,,,,
"[""period""]",0,[0.40200000000001523],36,0,36,0,1,5ee9c99d4b37e300082613e6,Mężczyzna,22,2021-07-13_21h55.19.460,rantool2,2021.1.4,Win32,60.0240096,5ee9c99d4b37e300082613e6,60d9d14f4a8a35a482e0d9bf,60edef3e6268e2997aa02a06,,,,,,,,,,,,
"[""comma""]",0,[0.40500000000000114],37,0,37,0,1,5ee9c99d4b37e300082613e6,Mężczyzna,22,2021-07-13_21h55.19.460,rantool2,2021.1.4,Win32,60.0240096,5ee9c99d4b37e300082613e6,60d9d14f4a8a35a482e0d9bf,60edef3e6268e2997aa02a06,,,,,,,,,,,,
"[""period""]",0,[0.3710000000000093],38,0,38,0,1,5ee9c99d4b37e300082613e6,Mężczyzna,22,2021-07-13_21h55.19.460,rantool2,2021.1.4,Win32,60.0240096,5ee9c99d4b37e300082613e6,60d9d14f4a8a35a482e0d9bf,60edef3e6268e2997aa02a06,,,,,,,,,,,,
"[""period""]",0,[0.26900000000000546],39,0,39,0,1,5ee9c99d4b37e300082613e6,Mężczyzna,22,2021-07-13_21h55.19.460,rantool2,2021.1.4,Win32,60.0240096,5ee9c99d4b37e300082613e6,60d9d14f4a8a35a482e0d9bf,60edef3e6268e2997aa02a06,,,,,,,,,,,,
"[""comma""]",0,[0.40399999999999636],40,0,40,0,1,5ee9c99d4b37e300082613e6,Mężczyzna,22,2021-07-13_21h55.19.460,rantool2,2021.1.4,Win32,60.0240096,5ee9c99d4b37e300082613e6,60d9d14f4a8a35a482e0d9bf,60edef3e6268e2997aa02a06,,,,,,,,,,,,
"[""comma""]",0,[0.3369999999999891],41,0,41,0,1,5ee9c99d4b37e300082613e6,Mężczyzna,22,2021-07-13_21h55.19.460,rantool2,2021.1.4,Win32,60.0240096,5ee9c99d4b37e300082613e6,60d9d14f4a8a35a482e0d9bf,60edef3e6268e2997aa02a06,,,,,,,,,,,,
"[""period""]",0,[0.49100000000001387],42,0,42,0,1,5ee9c99d4b37e300082613e6,Mężczyzna,22,2021-07-13_21h55.19.460,rantool2,2021.1.4,Win32,60.0240096,5ee9c99d4b37e300082613e6,60d9d14f4a8a35a482e0d9bf,60edef3e6268e2997aa02a06,,,,,,,,,,,,
"[""comma"",""period""]",0,"[0.7849999999999966,0.8170000000000073]",43,0,43,0,1,5ee9c99d4b37e300082613e6,Mężczyzna,22,2021-07-13_21h55.19.460,rantool2,2021.1.4,Win32,60.0240096,5ee9c99d4b37e300082613e6,60d9d14f4a8a35a482e0d9bf,60edef3e6268e2997aa02a06,,,,,,,,,,,,
"[""comma""]",0,[0.5699999999999932],44,0,44,0,1,5ee9c99d4b37e300082613e6,Mężczyzna,22,2021-07-13_21h55.19.460,rantool2,2021.1.4,Win32,60.0240096,5ee9c99d4b37e300082613e6,60d9d14f4a8a35a482e0d9bf,60edef3e6268e2997aa02a06,,,,,,,,,,,,
"[""period""]",0,[0.5190000000000055],45,0,45,0,1,5ee9c99d4b37e300082613e6,Mężczyzna,22,2021-07-13_21h55.19.460,rantool2,2021.1.4,Win32,60.0240096,5ee9c99d4b37e300082613e6,60d9d14f4a8a35a482e0d9bf,60edef3e6268e2997aa02a06,,,,,,,,,,,,
"[""comma""]",0,[0.41800000000000637],46,0,46,0,1,5ee9c99d4b37e300082613e6,Mężczyzna,22,2021-07-13_21h55.19.460,rantool2,2021.1.4,Win32,60.0240096,5ee9c99d4b37e300082613e6,60d9d14f4a8a35a482e0d9bf,60edef3e6268e2997aa02a06,,,,,,,,,,,,
"[""period""]",0,[0.3190000000000168],47,0,47,0,1,5ee9c99d4b37e300082613e6,Mężczyzna,22,2021-07-13_21h55.19.460,rantool2,2021.1.4,Win32,60.0240096,5ee9c99d4b37e300082613e6,60d9d14f4a8a35a482e0d9bf,60edef3e6268e2997aa02a06,,,,,,,,,,,,
"[""comma""]",0,[0.31800000000001205],48,0,48,0,1,5ee9c99d4b37e300082613e6,Mężczyzna,22,2021-07-13_21h55.19.460,rantool2,2021.1.4,Win32,60.0240096,5ee9c99d4b37e300082613e6,60d9d14f4a8a35a482e0d9bf,60edef3e6268e2997aa02a06,,,,,,,,,,,,
"[""period""]",0,[0.804000000000002],49,0,49,0,1,5ee9c99d4b37e300082613e6,Mężczyzna,22,2021-07-13_21h55.19.460,rantool2,2021.1.4,Win32,60.0240096,5ee9c99d4b37e300082613e6,60d9d14f4a8a35a482e0d9bf,60edef3e6268e2997aa02a06,,,,,,,,,,,,
0,0,,50,0,50,0,1,5ee9c99d4b37e300082613e6,Mężczyzna,22,2021-07-13_21h55.19.460,rantool2,2021.1.4,Win32,60.0240096,5ee9c99d4b37e300082613e6,60d9d14f4a8a35a482e0d9bf,60edef3e6268e2997aa02a06,,,,,,,,,,,,
"[""period""]",0,[0.3850000000000193],51,0,51,0,1,5ee9c99d4b37e300082613e6,Mężczyzna,22,2021-07-13_21h55.19.460,rantool2,2021.1.4,Win32,60.0240096,5ee9c99d4b37e300082613e6,60d9d14f4a8a35a482e0d9bf,60edef3e6268e2997aa02a06,,,,,,,,,,,,
"[""period""]",0,[0.6029999999999802],52,0,52,0,1,5ee9c99d4b37e300082613e6,Mężczyzna,22,2021-07-13_21h55.19.460,rantool2,2021.1.4,Win32,60.0240096,5ee9c99d4b37e300082613e6,60d9d14f4a8a35a482e0d9bf,60edef3e6268e2997aa02a06,,,,,,,,,,,,
"[""comma""]",0,[0.6910000000000025],53,0,53,0,1,5ee9c99d4b37e300082613e6,Mężczyzna,22,2021-07-13_21h55.19.460,rantool2,2021.1.4,Win32,60.0240096,5ee9c99d4b37e300082613e6,60d9d14f4a8a35a482e0d9bf,60edef3e6268e2997aa02a06,,,,,,,,,,,,
"[""period""]",0,[0.9059999999999775],54,0,54,0,1,5ee9c99d4b37e300082613e6,Mężczyzna,22,2021-07-13_21h55.19.460,rantool2,2021.1.4,Win32,60.0240096,5ee9c99d4b37e300082613e6,60d9d14f4a8a35a482e0d9bf,60edef3e6268e2997aa02a06,,,,,,,,,,,,
"[""comma""]",0,[0.3529999999999802],55,0,55,0,1,5ee9c99d4b37e300082613e6,Mężczyzna,22,2021-07-13_21h55.19.460,rantool2,2021.1.4,Win32,60.0240096,5ee9c99d4b37e300082613e6,60d9d14f4a8a35a482e0d9bf,60edef3e6268e2997aa02a06,,,,,,,,,,,,
"[""comma""]",0,[0.48599999999999],56,0,56,0,1,5ee9c99d4b37e300082613e6,Mężczyzna,22,2021-07-13_21h55.19.460,rantool2,2021.1.4,Win32,60.0240096,5ee9c99d4b37e300082613e6,60d9d14f4a8a35a482e0d9bf,60edef3e6268e2997aa02a06,,,,,,,,,,,,
"[""period""]",0,[1.0889999999999986],57,0,57,0,1,5ee9c99d4b37e300082613e6,Mężczyzna,22,2021-07-13_21h55.19.460,rantool2,2021.1.4,Win32,60.0240096,5ee9c99d4b37e300082613e6,60d9d14f4a8a35a482e0d9bf,60edef3e6268e2997aa02a06,,,,,,,,,,,,
"[""period""]",0,[0.4519999999999982],58,0,58,0,1,5ee9c99d4b37e300082613e6,Mężczyzna,22,2021-07-13_21h55.19.460,rantool2,2021.1.4,Win32,60.0240096,5ee9c99d4b37e300082613e6,60d9d14f4a8a35a482e0d9bf,60edef3e6268e2997aa02a06,,,,,,,,,,,,
"[""comma""]",0,[0.2849999999999966],59,0,59,0,1,5ee9c99d4b37e300082613e6,Mężczyzna,22,2021-07-13_21h55.19.460,rantool2,2021.1.4,Win32,60.0240096,5ee9c99d4b37e300082613e6,60d9d14f4a8a35a482e0d9bf,60edef3e6268e2997aa02a06,,,,,,,,,,,,
0,0,,60,0,60,0,1,5ee9c99d4b37e300082613e6,Mężczyzna,22,2021-07-13_21h55.19.460,rantool2,2021.1.4,Win32,60.0240096,5ee9c99d4b37e300082613e6,60d9d14f4a8a35a482e0d9bf,60edef3e6268e2997aa02a06,,,,,,,,,,,,
"[""period""]",0,[0.7199999999999989],61,0,61,0,1,5ee9c99d4b37e300082613e6,Mężczyzna,22,2021-07-13_21h55.19.460,rantool2,2021.1.4,Win32,60.0240096,5ee9c99d4b37e300082613e6,60d9d14f4a8a35a482e0d9bf,60edef3e6268e2997aa02a06,,,,,,,,,,,,
"[""comma""]",0,[0.3019999999999925],62,0,62,0,1,5ee9c99d4b37e300082613e6,Mężczyzna,22,2021-07-13_21h55.19.460,rantool2,2021.1.4,Win32,60.0240096,5ee9c99d4b37e300082613e6,60d9d14f4a8a35a482e0d9bf,60edef3e6268e2997aa02a06,,,,,,,,,,,,
"[""period""]",0,[0.2740000000000009],63,0,63,0,1,5ee9c99d4b37e300082613e6,Mężczyzna,22,2021-07-13_21h55.19.460,rantool2,2021.1.4,Win32,60.0240096,5ee9c99d4b37e300082613e6,60d9d14f4a8a35a482e0d9bf,60edef3e6268e2997aa02a06,,,,,,,,,,,,
"[""comma""]",0,[0.2680000000000007],64,0,64,0,1,5ee9c99d4b37e300082613e6,Mężczyzna,22,2021-07-13_21h55.19.460,rantool2,2021.1.4,Win32,60.0240096,5ee9c99d4b37e300082613e6,60d9d14f4a8a35a482e0d9bf,60edef3e6268e2997aa02a06,,,,,,,,,,,,
0,0,,65,0,65,0,1,5ee9c99d4b37e300082613e6,Mężczyzna,22,2021-07-13_21h55.19.460,rantool2,2021.1.4,Win32,60.0240096,5ee9c99d4b37e300082613e6,60d9d14f4a8a35a482e0d9bf,60edef3e6268e2997aa02a06,,,,,,,,,,,,
0,0,,66,0,66,0,1,5ee9c99d4b37e300082613e6,Mężczyzna,22,2021-07-13_21h55.19.460,rantool2,2021.1.4,Win32,60.0240096,5ee9c99d4b37e300082613e6,60d9d14f4a8a35a482e0d9bf,60edef3e6268e2997aa02a06,,,,,,,,,,,,
0,0,,67,0,67,0,1,5ee9c99d4b37e300082613e6,Mężczyzna,22,2021-07-13_21h55.19.460,rantool2,2021.1.4,Win32,60.0240096,5ee9c99d4b37e300082613e6,60d9d14f4a8a35a482e0d9bf,60edef3e6268e2997aa02a06,,,,,,,,,,,,
"[""period""]",0,[0.5570000000000164],68,0,68,0,1,5ee9c99d4b37e300082613e6,Mężczyzna,22,2021-07-13_21h55.19.460,rantool2,2021.1.4,Win32,60.0240096,5ee9c99d4b37e300082613e6,60d9d14f4a8a35a482e0d9bf,60edef3e6268e2997aa02a06,,,,,,,,,,,,
"[""comma""]",0,[0.3190000000000168],69,0,69,0,1,5ee9c99d4b37e300082613e6,Mężczyzna,22,2021-07-13_21h55.19.460,rantool2,2021.1.4,Win32,60.0240096,5ee9c99d4b37e300082613e6,60d9d14f4a8a35a482e0d9bf,60edef3e6268e2997aa02a06,,,,,,,,,,,,
"[""period""]",0,[0.48500000000001364],70,0,70,0,1,5ee9c99d4b37e300082613e6,Mężczyzna,22,2021-07-13_21h55.19.460,rantool2,2021.1.4,Win32,60.0240096,5ee9c99d4b37e300082613e6,60d9d14f4a8a35a482e0d9bf,60edef3e6268e2997aa02a06,,,,,,,,,,,,
"[""comma""]",0,[0.43899999999999295],71,0,71,0,1,5ee9c99d4b37e300082613e6,Mężczyzna,22,2021-07-13_21h55.19.460,rantool2,2021.1.4,Win32,60.0240096,5ee9c99d4b37e300082613e6,60d9d14f4a8a35a482e0d9bf,60edef3e6268e2997aa02a06,,,,,,,,,,,,
"[""period""]",0,[0.3540000000000134],72,0,72,0,1,5ee9c99d4b37e300082613e6,Mężczyzna,22,2021-07-13_21h55.19.460,rantool2,2021.1.4,Win32,60.0240096,5ee9c99d4b37e300082613e6,60d9d14f4a8a35a482e0d9bf,60edef3e6268e2997aa02a06,,,,,,,,,,,,
"[""comma"",""period""]",0,"[0.23500000000001364,1.953000000000003]",73,0,73,0,1,5ee9c99d4b37e300082613e6,Mężczyzna,22,2021-07-13_21h55.19.460,rantool2,2021.1.4,Win32,60.0240096,5ee9c99d4b37e300082613e6,60d9d14f4a8a35a482e0d9bf,60edef3e6268e2997aa02a06,,,,,,,,,,,,
0,0,,74,0,74,0,1,5ee9c99d4b37e300082613e6,Mężczyzna,22,2021-07-13_21h55.19.460,rantool2,2021.1.4,Win32,60.0240096,5ee9c99d4b37e300082613e6,60d9d14f4a8a35a482e0d9bf,60edef3e6268e2997aa02a06,,,,,,,,,,,,
"[""comma""]",0,[0.29000000000002046],75,0,75,0,1,5ee9c99d4b37e300082613e6,Mężczyzna,22,2021-07-13_21h55.19.460,rantool2,2021.1.4,Win32,60.0240096,5ee9c99d4b37e300082613e6,60d9d14f4a8a35a482e0d9bf,60edef3e6268e2997aa02a06,,,,,,,,,,,,
"[""period""]",0,[0.7680000000000007],76,0,76,0,1,5ee9c99d4b37e300082613e6,Mężczyzna,22,2021-07-13_21h55.19.460,rantool2,2021.1.4,Win32,60.0240096,5ee9c99d4b37e300082613e6,60d9d14f4a8a35a482e0d9bf,60edef3e6268e2997aa02a06,,,,,,,,,,,,
"[""comma""]",0,[0.2400000000000091],77,0,77,0,1,5ee9c99d4b37e300082613e6,Mężczyzna,22,2021-07-13_21h55.19.460,rantool2,2021.1.4,Win32,60.0240096,5ee9c99d4b37e300082613e6,60d9d14f4a8a35a482e0d9bf,60edef3e6268e2997aa02a06,,,,,,,,,,,,
"[""period""]",0,[0.25200000000000955],78,0,78,0,1,5ee9c99d4b37e300082613e6,Mężczyzna,22,2021-07-13_21h55.19.460,rantool2,2021.1.4,Win32,60.0240096,5ee9c99d4b37e300082613e6,60d9d14f4a8a35a482e0d9bf,60edef3e6268e2997aa02a06,,,,,,,,,,,,
"[""comma""]",0,[0.48599999999999],79,0,79,0,1,5ee9c99d4b37e300082613e6,Mężczyzna,22,2021-07-13_21h55.19.460,rantool2,2021.1.4,Win32,60.0240096,5ee9c99d4b37e300082613e6,60d9d14f4a8a35a482e0d9bf,60edef3e6268e2997aa02a06,,,,,,,,,,,,
"[""period""]",0,[0.8240000000000123],80,0,80,0,1,5ee9c99d4b37e300082613e6,Mężczyzna,22,2021-07-13_21h55.19.460,rantool2,2021.1.4,Win32,60.0240096,5ee9c99d4b37e300082613e6,60d9d14f4a8a35a482e0d9bf,60edef3e6268e2997aa02a06,,,,,,,,,,,,
"[""comma""]",0,[0.45699999999999363],81,0,81,0,1,5ee9c99d4b37e300082613e6,Mężczyzna,22,2021-07-13_21h55.19.460,rantool2,2021.1.4,Win32,60.0240096,5ee9c99d4b37e300082613e6,60d9d14f4a8a35a482e0d9bf,60edef3e6268e2997aa02a06,,,,,,,,,,,,
0,0,,82,0,82,0,1,5ee9c99d4b37e300082613e6,Mężczyzna,22,2021-07-13_21h55.19.460,rantool2,2021.1.4,Win32,60.0240096,5ee9c99d4b37e300082613e6,60d9d14f4a8a35a482e0d9bf,60edef3e6268e2997aa02a06,,,,,,,,,,,,
"[""period""]",0,[0.785000000000025],83,0,83,0,1,5ee9c99d4b37e300082613e6,Mężczyzna,22,2021-07-13_21h55.19.460,rantool2,2021.1.4,Win32,60.0240096,5ee9c99d4b37e300082613e6,60d9d14f4a8a35a482e0d9bf,60edef3e6268e2997aa02a06,,,,,,,,,,,,
0,0,,84,0,84,0,1,5ee9c99d4b37e300082613e6,Mężczyzna,22,2021-07-13_21h55.19.460,rantool2,2021.1.4,Win32,60.0240096,5ee9c99d4b37e300082613e6,60d9d14f4a8a35a482e0d9bf,60edef3e6268e2997aa02a06,,,,,,,,,,,,
"[""period"",""comma""]",0,"[0.38700000000000045,1.886000000000024]",85,0,85,0,1,5ee9c99d4b37e300082613e6,Mężczyzna,22,2021-07-13_21h55.19.460,rantool2,2021.1.4,Win32,60.0240096,5ee9c99d4b37e300082613e6,60d9d14f4a8a35a482e0d9bf,60edef3e6268e2997aa02a06,,,,,,,,,,,,
0,0,,86,0,86,0,1,5ee9c99d4b37e300082613e6,Mężczyzna,22,2021-07-13_21h55.19.460,rantool2,2021.1.4,Win32,60.0240096,5ee9c99d4b37e300082613e6,60d9d14f4a8a35a482e0d9bf,60edef3e6268e2997aa02a06,,,,,,,,,,,,
"[""comma""]",0,[1.4870000000000232],87,0,87,0,1,5ee9c99d4b37e300082613e6,Mężczyzna,22,2021-07-13_21h55.19.460,rantool2,2021.1.4,Win32,60.0240096,5ee9c99d4b37e300082613e6,60d9d14f4a8a35a482e0d9bf,60edef3e6268e2997aa02a06,,,,,,,,,,,,
"[""period""]",0,[0.4189999999999827],88,0,88,0,1,5ee9c99d4b37e300082613e6,Mężczyzna,22,2021-07-13_21h55.19.460,rantool2,2021.1.4,Win32,60.0240096,5ee9c99d4b37e300082613e6,60d9d14f4a8a35a482e0d9bf,60edef3e6268e2997aa02a06,,,,,,,,,,,,
"[""comma""]",0,[0.35199999999997544],89,0,89,0,1,5ee9c99d4b37e300082613e6,Mężczyzna,22,2021-07-13_21h55.19.460,rantool2,2021.1.4,Win32,60.0240096,5ee9c99d4b37e300082613e6,60d9d14f4a8a35a482e0d9bf,60edef3e6268e2997aa02a06,,,,,,,,,,,,
"[""period""]",0,[0.48500000000001364],90,0,90,0,1,5ee9c99d4b37e300082613e6,Mężczyzna,22,2021-07-13_21h55.19.460,rantool2,2021.1.4,Win32,60.0240096,5ee9c99d4b37e300082613e6,60d9d14f4a8a35a482e0d9bf,60edef3e6268e2997aa02a06,,,,,,,,,,,,
0,0,,91,0,91,0,1,5ee9c99d4b37e300082613e6,Mężczyzna,22,2021-07-13_21h55.19.460,rantool2,2021.1.4,Win32,60.0240096,5ee9c99d4b37e300082613e6,60d9d14f4a8a35a482e0d9bf,60edef3e6268e2997aa02a06,,,,,,,,,,,,
"[""comma""]",0,[0.7350000000000136],92,0,92,0,1,5ee9c99d4b37e300082613e6,Mężczyzna,22,2021-07-13_21h55.19.460,rantool2,2021.1.4,Win32,60.0240096,5ee9c99d4b37e300082613e6,60d9d14f4a8a35a482e0d9bf,60edef3e6268e2997aa02a06,,,,,,,,,,,,
"[""period""]",0,[0.41800000000000637],93,0,93,0,1,5ee9c99d4b37e300082613e6,Mężczyzna,22,2021-07-13_21h55.19.460,rantool2,2021.1.4,Win32,60.0240096,5ee9c99d4b37e300082613e6,60d9d14f4a8a35a482e0d9bf,60edef3e6268e2997aa02a06,,,,,,,,,,,,
"[""period""]",0,[0.5720000000000027],94,0,94,0,1,5ee9c99d4b37e300082613e6,Mężczyzna,22,2021-07-13_21h55.19.460,rantool2,2021.1.4,Win32,60.0240096,5ee9c99d4b37e300082613e6,60d9d14f4a8a35a482e0d9bf,60edef3e6268e2997aa02a06,,,,,,,,,,,,
"[""comma""]",0,[0.5670000000000073],95,0,95,0,1,5ee9c99d4b37e300082613e6,Mężczyzna,22,2021-07-13_21h55.19.460,rantool2,2021.1.4,Win32,60.0240096,5ee9c99d4b37e300082613e6,60d9d14f4a8a35a482e0d9bf,60edef3e6268e2997aa02a06,,,,,,,,,,,,
"[""period""]",0,[0.285000000000025],96,0,96,0,1,5ee9c99d4b37e300082613e6,Mężczyzna,22,2021-07-13_21h55.19.460,rantool2,2021.1.4,Win32,60.0240096,5ee9c99d4b37e300082613e6,60d9d14f4a8a35a482e0d9bf,60edef3e6268e2997aa02a06,,,,,,,,,,,,
"[""comma""]",0,[0.3190000000000168],97,0,97,0,1,5ee9c99d4b37e300082613e6,Mężczyzna,22,2021-07-13_21h55.19.460,rantool2,2021.1.4,Win32,60.0240096,5ee9c99d4b37e300082613e6,60d9d14f4a8a35a482e0d9bf,60edef3e6268e2997aa02a06,,,,,,,,,,,,
"[""period""]",0,[0.15399999999999636],98,0,98,0,1,5ee9c99d4b37e300082613e6,Mężczyzna,22,2021-07-13_21h55.19.460,rantool2,2021.1.4,Win32,60.0240096,5ee9c99d4b37e300082613e6,60d9d14f4a8a35a482e0d9bf,60edef3e6268e2997aa02a06,,,,,,,,,,,,
"[""period""]",0,[0.33499999999997954],99,0,99,0,1,5ee9c99d4b37e300082613e6,Mężczyzna,22,2021-07-13_21h55.19.460,rantool2,2021.1.4,Win32,60.0240096,5ee9c99d4b37e300082613e6,60d9d14f4a8a35a482e0d9bf,60edef3e6268e2997aa02a06,,,,,,,,,,,,
"[""comma""]",0,[0.45299999999997453],100,0,100,0,1,5ee9c99d4b37e300082613e6,Mężczyzna,22,2021-07-13_21h55.19.460,rantool2,2021.1.4,Win32,60.0240096,5ee9c99d4b37e300082613e6,60d9d14f4a8a35a482e0d9bf,60edef3e6268e2997aa02a06,,,,,,,,,,,,
"[""period""]",0,[1.787999999999954],101,0,101,0,1,5ee9c99d4b37e300082613e6,Mężczyzna,22,2021-07-13_21h55.19.460,rantool2,2021.1.4,Win32,60.0240096,5ee9c99d4b37e300082613e6,60d9d14f4a8a35a482e0d9bf,60edef3e6268e2997aa02a06,,,,,,,,,,,,
"[""period""]",0,[0.28499999999996817],102,0,102,0,1,5ee9c99d4b37e300082613e6,Mężczyzna,22,2021-07-13_21h55.19.460,rantool2,2021.1.4,Win32,60.0240096,5ee9c99d4b37e300082613e6,60d9d14f4a8a35a482e0d9bf,60edef3e6268e2997aa02a06,,,,,,,,,,,,
"[""comma""]",0,[0.28600000000000136],103,0,103,0,1,5ee9c99d4b37e300082613e6,Mężczyzna,22,2021-07-13_21h55.19.460,rantool2,2021.1.4,Win32,60.0240096,5ee9c99d4b37e300082613e6,60d9d14f4a8a35a482e0d9bf,60edef3e6268e2997aa02a06,,,,,,,,,,,,
"[""comma""]",0,[0.7350000000000136],104,0,104,0,1,5ee9c99d4b37e300082613e6,Mężczyzna,22,2021-07-13_21h55.19.460,rantool2,2021.1.4,Win32,60.0240096,5ee9c99d4b37e300082613e6,60d9d14f4a8a35a482e0d9bf,60edef3e6268e2997aa02a06,,,,,,,,,,,,
"[""period""]",0,[0.3720000000000141],105,0,105,0,1,5ee9c99d4b37e300082613e6,Mężczyzna,22,2021-07-13_21h55.19.460,rantool2,2021.1.4,Win32,60.0240096,5ee9c99d4b37e300082613e6,60d9d14f4a8a35a482e0d9bf,60edef3e6268e2997aa02a06,,,,,,,,,,,,
"[""comma""]",0,[0.3079999999999927],106,0,106,0,1,5ee9c99d4b37e300082613e6,Mężczyzna,22,2021-07-13_21h55.19.460,rantool2,2021.1.4,Win32,60.0240096,5ee9c99d4b37e300082613e6,60d9d14f4a8a35a482e0d9bf,60edef3e6268e2997aa02a06,,,,,,,,,,,,
"[""period"",""period""]",0,"[0.30299999999999727,1.8530000000000086]",107,0,107,0,1,5ee9c99d4b37e300082613e6,Mężczyzna,22,2021-07-13_21h55.19.460,rantool2,2021.1.4,Win32,60.0240096,5ee9c99d4b37e300082613e6,60d9d14f4a8a35a482e0d9bf,60edef3e6268e2997aa02a06,,,,,,,,,,,,
"[""period""]",0,[0.33499999999997954],108,0,108,0,1,5ee9c99d4b37e300082613e6,Mężczyzna,22,2021-07-13_21h55.19.460,rantool2,2021.1.4,Win32,60.0240096,5ee9c99d4b37e300082613e6,60d9d14f4a8a35a482e0d9bf,60edef3e6268e2997aa02a06,,,,,,,,,,,,
"[""comma""]",0,[0.3019999999999641],109,0,109,0,1,5ee9c99d4b37e300082613e6,Mężczyzna,22,2021-07-13_21h55.19.460,rantool2,2021.1.4,Win32,60.0240096,5ee9c99d4b37e300082613e6,60d9d14f4a8a35a482e0d9bf,60edef3e6268e2997aa02a06,,,,,,,,,,,,
"[""comma""]",0,[0.6580000000000155],110,0,110,0,1,5ee9c99d4b37e300082613e6,Mężczyzna,22,2021-07-13_21h55.19.460,rantool2,2021.1.4,Win32,60.0240096,5ee9c99d4b37e300082613e6,60d9d14f4a8a35a482e0d9bf,60edef3e6268e2997aa02a06,,,,,,,,,,,,
"[""period""]",0,[0.5020000000000095],111,0,111,0,1,5ee9c99d4b37e300082613e6,Mężczyzna,22,2021-07-13_21h55.19.460,rantool2,2021.1.4,Win32,60.0240096,5ee9c99d4b37e300082613e6,60d9d14f4a8a35a482e0d9bf,60edef3e6268e2997aa02a06,,,,,,,,,,,,
"[""comma""]",0,[0.29000000000002046],112,0,112,0,1,5ee9c99d4b37e300082613e6,Mężczyzna,22,2021-07-13_21h55.19.460,rantool2,2021.1.4,Win32,60.0240096,5ee9c99d4b37e300082613e6,60d9d14f4a8a35a482e0d9bf,60edef3e6268e2997aa02a06,,,,,,,,,,,,
"[""period""]",0,[0.30400000000003047],113,0,113,0,1,5ee9c99d4b37e300082613e6,Mężczyzna,22,2021-07-13_21h55.19.460,rantool2,2021.1.4,Win32,60.0240096,5ee9c99d4b37e300082613e6,60d9d14f4a8a35a482e0d9bf,60edef3e6268e2997aa02a06,,,,,,,,,,,,
"[""comma""]",0,[0.5999999999999659],114,0,114,0,1,5ee9c99d4b37e300082613e6,Mężczyzna,22,2021-07-13_21h55.19.460,rantool2,2021.1.4,Win32,60.0240096,5ee9c99d4b37e300082613e6,60d9d14f4a8a35a482e0d9bf,60edef3e6268e2997aa02a06,,,,,,,,,,,,
"[""period""]",0,[0.4019999999999868],115,0,115,0,1,5ee9c99d4b37e300082613e6,Mężczyzna,22,2021-07-13_21h55.19.460,rantool2,2021.1.4,Win32,60.0240096,5ee9c99d4b37e300082613e6,60d9d14f4a8a35a482e0d9bf,60edef3e6268e2997aa02a06,,,,,,,,,,,,
"[""comma""]",0,[1.6200000000000045],116,0,116,0,1,5ee9c99d4b37e300082613e6,Mężczyzna,22,2021-07-13_21h55.19.460,rantool2,2021.1.4,Win32,60.0240096,5ee9c99d4b37e300082613e6,60d9d14f4a8a35a482e0d9bf,60edef3e6268e2997aa02a06,,,,,,,,,,,,
"[""period""]",0,[0.4359999999999786],117,0,117,0,1,5ee9c99d4b37e300082613e6,Mężczyzna,22,2021-07-13_21h55.19.460,rantool2,2021.1.4,Win32,60.0240096,5ee9c99d4b37e300082613e6,60d9d14f4a8a35a482e0d9bf,60edef3e6268e2997aa02a06,,,,,,,,,,,,
"[""comma""]",0,[0.3190000000000168],118,0,118,0,1,5ee9c99d4b37e300082613e6,Mężczyzna,22,2021-07-13_21h55.19.460,rantool2,2021.1.4,Win32,60.0240096,5ee9c99d4b37e300082613e6,60d9d14f4a8a35a482e0d9bf,60edef3e6268e2997aa02a06,,,,,,,,,,,,
"[""period""]",0,[0.1349999999999909],119,0,119,0,1,5ee9c99d4b37e300082613e6,Mężczyzna,22,2021-07-13_21h55.19.460,rantool2,2021.1.4,Win32,60.0240096,5ee9c99d4b37e300082613e6,60d9d14f4a8a35a482e0d9bf,60edef3e6268e2997aa02a06,,,,,,,,,,,,
,,,,,,,,5ee9c99d4b37e300082613e6,Mężczyzna,22,2021-07-13_21h55.19.460,rantool2,2021.1.4,Win32,60.0240096,5ee9c99d4b37e300082613e6,60d9d14f4a8a35a482e0d9bf,60edef3e6268e2997aa02a06,j,2.061,0,0,0,55,1,RRORRRO,RRORRRR,21.56657303,21.21223021,series_0
,,,,,,,,5ee9c99d4b37e300082613e6,Mężczyzna,22,2021-07-13_21h55.19.460,rantool2,2021.1.4,Win32,60.0240096,5ee9c99d4b37e300082613e6,60d9d14f4a8a35a482e0d9bf,60edef3e6268e2997aa02a06,j,1.517,0,1,1,44,1,RORROOO,RORROOR,21.66733484,22.02566557,series_1
,,,,,,,,5ee9c99d4b37e300082613e6,Mężczyzna,22,2021-07-13_21h55.19.460,rantool2,2021.1.4,Win32,60.0240096,5ee9c99d4b37e300082613e6,60d9d14f4a8a35a482e0d9bf,60edef3e6268e2997aa02a06,j,1.329,0,2,2,34,1,ROOOROO,ROOOROR,21.03750787,21.24781509,series_1
,,,,,,,,5ee9c99d4b37e300082613e6,Mężczyzna,22,2021-07-13_21h55.19.460,rantool2,2021.1.4,Win32,60.0240096,5ee9c99d4b37e300082613e6,60d9d14f4a8a35a482e0d9bf,60edef3e6268e2997aa02a06,f,1.034,0,3,3,48,1,RROOOOO,RROOOOR,20.90986523,22.15934078,series_1
,,,,,,,,5ee9c99d4b37e300082613e6,Mężczyzna,22,2021-07-13_21h55.19.460,rantool2,2021.1.4,Win32,60.0240096,5ee9c99d4b37e300082613e6,60d9d14f4a8a35a482e0d9bf,60edef3e6268e2997aa02a06,f,0.985,0,4,4,57,1,RRROORO,RRROORR,21.82425538,22.07102821,series_1
,,,,,,,,5ee9c99d4b37e300082613e6,Mężczyzna,22,2021-07-13_21h55.19.460,rantool2,2021.1.4,Win32,60.0240096,5ee9c99d4b37e300082613e6,60d9d14f4a8a35a482e0d9bf,60edef3e6268e2997aa02a06,j,1.405,0,5,5,10,1,OOROROO,OOROROR,21.31236711,21.07490964,series_0
,,,,,,,,5ee9c99d4b37e300082613e6,Mężczyzna,22,2021-07-13_21h55.19.460,rantool2,2021.1.4,Win32,60.0240096,5ee9c99d4b37e300082613e6,60d9d14f4a8a35a482e0d9bf,60edef3e6268e2997aa02a06,f,1.72,0,6,6,52,1,RROROOO,RROROOR,22.18365867,22.11097995,series_0
,,,,,,,,5ee9c99d4b37e300082613e6,Mężczyzna,22,2021-07-13_21h55.19.460,rantool2,2021.1.4,Win32,60.0240096,5ee9c99d4b37e300082613e6,60d9d14f4a8a35a482e0d9bf,60edef3e6268e2997aa02a06,j,1.433,0,7,7,27,1,ORRORRO,ORRORRR,21.55250791,22.2428857,series_1
,,,,,,,,5ee9c99d4b37e300082613e6,Mężczyzna,22,2021-07-13_21h55.19.460,rantool2,2021.1.4,Win32,60.0240096,5ee9c99d4b37e300082613e6,60d9d14f4a8a35a482e0d9bf,60edef3e6268e2997aa02a06,j,2.773,0,8,8,14,1,OORRROO,OORRROR,22.24142883,22.16977179,series_0
,,,,,,,,5ee9c99d4b37e300082613e6,Mężczyzna,22,2021-07-13_21h55.19.460,rantool2,2021.1.4,Win32,60.0240096,5ee9c99d4b37e300082613e6,60d9d14f4a8a35a482e0d9bf,60edef3e6268e2997aa02a06,j,1.766,0,9,9,59,1,RRRORRO,RRRORRR,21.56657303,20.89823192,series_0
,,,,,,,,5ee9c99d4b37e300082613e6,Mężczyzna,22,2021-07-13_21h55.19.460,rantool2,2021.1.4,Win32,60.0240096,5ee9c99d4b37e300082613e6,60d9d14f4a8a35a482e0d9bf,60edef3e6268e2997aa02a06,f,1.75,0,10,10,54,1,RRORROO,RRORROR,21.55250791,20.9984461,series_0
,,,,,,,,5ee9c99d4b37e300082613e6,Mężczyzna,22,2021-07-13_21h55.19.460,rantool2,2021.1.4,Win32,60.0240096,5ee9c99d4b37e300082613e6,60d9d14f4a8a35a482e0d9bf,60edef3e6268e2997aa02a06,f,1.783,0,11,11,58,1,RRROROO,RRROROR,22.1285618,21.37121559,series_0
,,,,,,,,5ee9c99d4b37e300082613e6,Mężczyzna,22,2021-07-13_21h55.19.460,rantool2,2021.1.4,Win32,60.0240096,5ee9c99d4b37e300082613e6,60d9d14f4a8a35a482e0d9bf,60edef3e6268e2997aa02a06,f,1.802,0,12,12,17,1,OROOORO,OROOORR,21.03750787,22.12173012,series_1
,,,,,,,,5ee9c99d4b37e300082613e6,Mężczyzna,22,2021-07-13_21h55.19.460,rantool2,2021.1.4,Win32,60.0240096,5ee9c99d4b37e300082613e6,60d9d14f4a8a35a482e0d9bf,60edef3e6268e2997aa02a06,j,1.72,0,13,13,31,1,ORRRRRO,ORRRRRR,22.16413392,20.74050628,series_0
,,,,,,,,5ee9c99d4b37e300082613e6,Mężczyzna,22,2021-07-13_21h55.19.460,rantool2,2021.1.4,Win32,60.0240096,5ee9c99d4b37e300082613e6,60d9d14f4a8a35a482e0d9bf,60edef3e6268e2997aa02a06,j,1.353,0,14,14,4,1,OOOROOO,OOOROOR,19.91402015,21.21223021,series_1
,,,,,,,,5ee9c99d4b37e300082613e6,Mężczyzna,22,2021-07-13_21h55.19.460,rantool2,2021.1.4,Win32,60.0240096,5ee9c99d4b37e300082613e6,60d9d14f4a8a35a482e0d9bf,60edef3e6268e2997aa02a06,f,1.503,0,15,15,6,1,OOORROO,OOORROR,21.12383932,21.38562617,series_1
,,,,,,,,5ee9c99d4b37e300082613e6,Mężczyzna,22,2021-07-13_21h55.19.460,rantool2,2021.1.4,Win32,60.0240096,5ee9c99d4b37e300082613e6,60d9d14f4a8a35a482e0d9bf,60edef3e6268e2997aa02a06,j,1.251,0,16,16,12,1,OORROOO,OORROOR,21.30250474,22.02786418,series_1
,,,,,,,,5ee9c99d4b37e300082613e6,Mężczyzna,22,2021-07-13_21h55.19.460,rantool2,2021.1.4,Win32,60.0240096,5ee9c99d4b37e300082613e6,60d9d14f4a8a35a482e0d9bf,60edef3e6268e2997aa02a06,f,2.399,0,17,17,15,1,OORRRRO,OORRRRR,22.10108823,21.74922619,series_0
,,,,,,,,5ee9c99d4b37e300082613e6,Mężczyzna,22,2021-07-13_21h55.19.460,rantool2,2021.1.4,Win32,60.0240096,5ee9c99d4b37e300082613e6,60d9d14f4a8a35a482e0d9bf,60edef3e6268e2997aa02a06,j,1.969,0,18,18,63,1,RRRRRRO,RRRRRRR,21.35278725,19.62521613,series_0
,,,,,,,,5ee9c99d4b37e300082613e6,Mężczyzna,22,2021-07-13_21h55.19.460,rantool2,2021.1.4,Win32,60.0240096,5ee9c99d4b37e300082613e6,60d9d14f4a8a35a482e0d9bf,60edef3e6268e2997aa02a06,f,1.372,0,19,19,60,1,RRRROOO,RRRROOR,22.10108823,22.15934078,series_1
,,,,,,,,5ee9c99d4b37e300082613e6,Mężczyzna,22,2021-07-13_21h55.19.460,rantool2,2021.1.4,Win32,60.0240096,5ee9c99d4b37e300082613e6,60d9d14f4a8a35a482e0d9bf,60edef3e6268e2997aa02a06,j,1.168,0,20,20,24,1,ORROOOO,ORROOOR,21.12383932,22.07102821,series_1
,,,,,,,,5ee9c99d4b37e300082613e6,Mężczyzna,22,2021-07-13_21h55.19.460,rantool2,2021.1.4,Win32,60.0240096,5ee9c99d4b37e300082613e6,60d9d14f4a8a35a482e0d9bf,60edef3e6268e2997aa02a06,f,0.835,0,21,21,61,1,RRRRORO,RRRRORR,21.81333602,21.17347734,series_0
,,,,,,,,5ee9c99d4b37e300082613e6,Mężczyzna,22,2021-07-13_21h55.19.460,rantool2,2021.1.4,Win32,60.0240096,5ee9c99d4b37e300082613e6,60d9d14f4a8a35a482e0d9bf,60edef3e6268e2997aa02a06,j,1.189,0,22,22,7,1,OOORRRO,OOORRRR,21.6194508,21.899017,series_1
,,,,,,,,5ee9c99d4b37e300082613e6,Mężczyzna,22,2021-07-13_21h55.19.460,rantool2,2021.1.4,Win32,60.0240096,5ee9c99d4b37e300082613e6,60d9d14f4a8a35a482e0d9bf,60edef3e6268e2997aa02a06,f,1.019,0,23,23,38,1,ROORROO,ROORROR,21.79500819,21.36812781,series_0
,,,,,,,,5ee9c99d4b37e300082613e6,Mężczyzna,22,2021-07-13_21h55.19.460,rantool2,2021.1.4,Win32,60.0240096,5ee9c99d4b37e300082613e6,60d9d14f4a8a35a482e0d9bf,60edef3e6268e2997aa02a06,f,0.902,0,24,24,39,1,ROORRRO,ROORRRR,21.82425538,21.38562617,series_0
,,,,,,,,5ee9c99d4b37e300082613e6,Mężczyzna,22,2021-07-13_21h55.19.460,rantool2,2021.1.4,Win32,60.0240096,5ee9c99d4b37e300082613e6,60d9d14f4a8a35a482e0d9bf,60edef3e6268e2997aa02a06,j,0.855,0,25,25,1,1,OOOOORO,OOOOORR,19.92253567,20.74050628,series_1
,,,,,,,,5ee9c99d4b37e300082613e6,Mężczyzna,22,2021-07-13_21h55.19.460,rantool2,2021.1.4,Win32,60.0240096,5ee9c99d4b37e300082613e6,60d9d14f4a8a35a482e0d9bf,60edef3e6268e2997aa02a06,f,1.253,0,26,26,13,1,OORRORO,OORRORR,21.66733484,22.11181017,series_1
,,,,,,,,5ee9c99d4b37e300082613e6,Mężczyzna,22,2021-07-13_21h55.19.460,rantool2,2021.1.4,Win32,60.0240096,5ee9c99d4b37e300082613e6,60d9d14f4a8a35a482e0d9bf,60edef3e6268e2997aa02a06,f,3.501,0,27,27,50,1,RROOROO,RROOROR,21.73568164,22.02566557,series_1
,,,,,,,,5ee9c99d4b37e300082613e6,Mężczyzna,22,2021-07-13_21h55.19.460,rantool2,2021.1.4,Win32,60.0240096,5ee9c99d4b37e300082613e6,60d9d14f4a8a35a482e0d9bf,60edef3e6268e2997aa02a06,f,1.52,0,28,28,41,1,ROROORO,ROROORR,20.42602454,21.71443381,series_1
,,,,,,,,5ee9c99d4b37e300082613e6,Mężczyzna,22,2021-07-13_21h55.19.460,rantool2,2021.1.4,Win32,60.0240096,5ee9c99d4b37e300082613e6,60d9d14f4a8a35a482e0d9bf,60edef3e6268e2997aa02a06,j,1.401,0,29,29,11,1,OORORRO,OORORRR,22.18365867,22.6797523,series_1
,,,,,,,,5ee9c99d4b37e300082613e6,Mężczyzna,22,2021-07-13_21h55.19.460,rantool2,2021.1.4,Win32,60.0240096,5ee9c99d4b37e300082613e6,60d9d14f4a8a35a482e0d9bf,60edef3e6268e2997aa02a06,f,1.051,0,30,30,51,1,RROORRO,RROORRR,21.89852628,22.02786418,series_1
,,,,,,,,5ee9c99d4b37e300082613e6,Mężczyzna,22,2021-07-13_21h55.19.460,rantool2,2021.1.4,Win32,60.0240096,5ee9c99d4b37e300082613e6,60d9d14f4a8a35a482e0d9bf,60edef3e6268e2997aa02a06,j,0.991,0,31,31,62,1,RRRRROO,RRRRROR,22.16413392,21.27974287,series_0
,,,,,,,,5ee9c99d4b37e300082613e6,Mężczyzna,22,2021-07-13_21h55.19.460,rantool2,2021.1.4,Win32,60.0240096,5ee9c99d4b37e300082613e6,60d9d14f4a8a35a482e0d9bf,60edef3e6268e2997aa02a06,j,1.668,0,32,32,32,1,ROOOOOO,ROOOOOR,19.92253567,21.27974287,series_1
,,,,,,,,5ee9c99d4b37e300082613e6,Mężczyzna,22,2021-07-13_21h55.19.460,rantool2,2021.1.4,Win32,60.0240096,5ee9c99d4b37e300082613e6,60d9d14f4a8a35a482e0d9bf,60edef3e6268e2997aa02a06,f,1.833,0,33,33,20,1,OROROOO,OROROOR,21.31236711,21.90565814,series_1
,,,,,,,,5ee9c99d4b37e300082613e6,Mężczyzna,22,2021-07-13_21h55.19.460,rantool2,2021.1.4,Win32,60.0240096,5ee9c99d4b37e300082613e6,60d9d14f4a8a35a482e0d9bf,60edef3e6268e2997aa02a06,j,1.307,0,34,34,2,1,OOOOROO,OOOOROR,20.43051175,21.02936224,series_1
,,,,,,,,5ee9c99d4b37e300082613e6,Mężczyzna,22,2021-07-13_21h55.19.460,rantool2,2021.1.4,Win32,60.0240096,5ee9c99d4b37e300082613e6,60d9d14f4a8a35a482e0d9bf,60edef3e6268e2997aa02a06,f,1.921,0,35,35,30,1,ORRRROO,ORRRROR,22.46748491,22.03072203,series_0
,,,,,,,,5ee9c99d4b37e300082613e6,Mężczyzna,22,2021-07-13_21h55.19.460,rantool2,2021.1.4,Win32,60.0240096,5ee9c99d4b37e300082613e6,60d9d14f4a8a35a482e0d9bf,60edef3e6268e2997aa02a06,f,1.802,0,36,36,43,1,RORORRO,RORORRR,20.71309134,21.07490964,series_1
,,,,,,,,5ee9c99d4b37e300082613e6,Mężczyzna,22,2021-07-13_21h55.19.460,rantool2,2021.1.4,Win32,60.0240096,5ee9c99d4b37e300082613e6,60d9d14f4a8a35a482e0d9bf,60edef3e6268e2997aa02a06,f,1.605,0,37,37,37,1,ROORORO,ROORORR,20.42602454,21.57657071,series_1
,,,,,,,,5ee9c99d4b37e300082613e6,Mężczyzna,22,2021-07-13_21h55.19.460,rantool2,2021.1.4,Win32,60.0240096,5ee9c99d4b37e300082613e6,60d9d14f4a8a35a482e0d9bf,60edef3e6268e2997aa02a06,f,0.952,0,38,38,46,1,RORRROO,RORRROR,22.00300695,21.24781509,series_0
,,,,,,,,5ee9c99d4b37e300082613e6,Mężczyzna,22,2021-07-13_21h55.19.460,rantool2,2021.1.4,Win32,60.0240096,5ee9c99d4b37e300082613e6,60d9d14f4a8a35a482e0d9bf,60edef3e6268e2997aa02a06,j,1.584,0,39,39,47,1,RORRRRO,RORRRRR,21.81333602,21.02936224,series_0
,,,,,,,,5ee9c99d4b37e300082613e6,Mężczyzna,22,2021-07-13_21h55.19.460,rantool2,2021.1.4,Win32,60.0240096,5ee9c99d4b37e300082613e6,60d9d14f4a8a35a482e0d9bf,60edef3e6268e2997aa02a06,j,2.383,0,40,40,29,1,ORRRORO,ORRRORR,22.00300695,22.12173012,series_1
,,,,,,,,5ee9c99d4b37e300082613e6,Mężczyzna,22,2021-07-13_21h55.19.460,rantool2,2021.1.4,Win32,60.0240096,5ee9c99d4b37e300082613e6,60d9d14f4a8a35a482e0d9bf,60edef3e6268e2997aa02a06,f,1.384,0,41,41,8,1,OOROOOO,OOROOOR,19.91402015,20.89823192,series_1
,,,,,,,,5ee9c99d4b37e300082613e6,Mężczyzna,22,2021-07-13_21h55.19.460,rantool2,2021.1.4,Win32,60.0240096,5ee9c99d4b37e300082613e6,60d9d14f4a8a35a482e0d9bf,60edef3e6268e2997aa02a06,f,1.102,0,42,42,3,1,OOOORRO,OOOORRR,20.90986523,21.74922619,series_1
,,,,,,,,5ee9c99d4b37e300082613e6,Mężczyzna,22,2021-07-13_21h55.19.460,rantool2,2021.1.4,Win32,60.0240096,5ee9c99d4b37e300082613e6,60d9d14f4a8a35a482e0d9bf,60edef3e6268e2997aa02a06,f,1.554,0,43,43,22,1,ORORROO,ORORROR,22.02732763,21.57657071,series_0
,,,,,,,,5ee9c99d4b37e300082613e6,Mężczyzna,22,2021-07-13_21h55.19.460,rantool2,2021.1.4,Win32,60.0240096,5ee9c99d4b37e300082613e6,60d9d14f4a8a35a482e0d9bf,60edef3e6268e2997aa02a06,j,2.351,0,44,44,26,1,ORROROO,ORROROR,22.02732763,21.71443381,series_0
,,,,,,,,5ee9c99d4b37e300082613e6,Mężczyzna,22,2021-07-13_21h55.19.460,rantool2,2021.1.4,Win32,60.0240096,5ee9c99d4b37e300082613e6,60d9d14f4a8a35a482e0d9bf,60edef3e6268e2997aa02a06,j,1.222,0,45,45,35,1,ROOORRO,ROOORRR,21.76276513,22.16977179,series_1
,,,,,,,,5ee9c99d4b37e300082613e6,Mężczyzna,22,2021-07-13_21h55.19.460,rantool2,2021.1.4,Win32,60.0240096,5ee9c99d4b37e300082613e6,60d9d14f4a8a35a482e0d9bf,60edef3e6268e2997aa02a06,f,1.038,0,46,46,56,1,RRROOOO,RRROOOR,21.6194508,22.31681875,series_1
,,,,,,,,5ee9c99d4b37e300082613e6,Mężczyzna,22,2021-07-13_21h55.19.460,rantool2,2021.1.4,Win32,60.0240096,5ee9c99d4b37e300082613e6,60d9d14f4a8a35a482e0d9bf,60edef3e6268e2997aa02a06,j,0.919,0,47,47,33,1,ROOOORO,ROOOORR,20.83779602,22.03072203,series_1
,,,,,,,,5ee9c99d4b37e300082613e6,Mężczyzna,22,2021-07-13_21h55.19.460,rantool2,2021.1.4,Win32,60.0240096,5ee9c99d4b37e300082613e6,60d9d14f4a8a35a482e0d9bf,60edef3e6268e2997aa02a06,f,1.185,0,48,48,53,1,RRORORO,RRORORR,20.71309134,21.90565814,series_1
,,,,,,,,5ee9c99d4b37e300082613e6,Mężczyzna,22,2021-07-13_21h55.19.460,rantool2,2021.1.4,Win32,60.0240096,5ee9c99d4b37e300082613e6,60d9d14f4a8a35a482e0d9bf,60edef3e6268e2997aa02a06,f,0.888,0,49,49,40,1,ROROOOO,ROROOOR,20.87963819,21.37121559,series_1
,,,,,,,,5ee9c99d4b37e300082613e6,Mężczyzna,22,2021-07-13_21h55.19.460,rantool2,2021.1.4,Win32,60.0240096,5ee9c99d4b37e300082613e6,60d9d14f4a8a35a482e0d9bf,60edef3e6268e2997aa02a06,j,1.29,0,50,50,5,1,OOORORO,OOORORR,20.87963819,21.9921709,series_1
,,,,,,,,5ee9c99d4b37e300082613e6,Mężczyzna,22,2021-07-13_21h55.19.460,rantool2,2021.1.4,Win32,60.0240096,5ee9c99d4b37e300082613e6,60d9d14f4a8a35a482e0d9bf,60edef3e6268e2997aa02a06,f,1.22,0,51,51,0,1,OOOOOOO,OOOOOOR,18.52739004,19.62521613,series_1
,,,,,,,,5ee9c99d4b37e300082613e6,Mężczyzna,22,2021-07-13_21h55.19.460,rantool2,2021.1.4,Win32,60.0240096,5ee9c99d4b37e300082613e6,60d9d14f4a8a35a482e0d9bf,60edef3e6268e2997aa02a06,j,1.885,0,52,52,21,1,ORORORO,ORORORR,20.39515459,22.06781359,series_1
,,,,,,,,5ee9c99d4b37e300082613e6,Mężczyzna,22,2021-07-13_21h55.19.460,rantool2,2021.1.4,Win32,60.0240096,5ee9c99d4b37e300082613e6,60d9d14f4a8a35a482e0d9bf,60edef3e6268e2997aa02a06,f,0.669,0,53,53,23,1,ORORRRO,ORORRRR,22.1285618,21.9921709,series_0
,,,,,,,,5ee9c99d4b37e300082613e6,Mężczyzna,22,2021-07-13_21h55.19.460,rantool2,2021.1.4,Win32,60.0240096,5ee9c99d4b37e300082613e6,60d9d14f4a8a35a482e0d9bf,60edef3e6268e2997aa02a06,j,0.32,0,54,54,36,1,ROOROOO,ROOROOR,21.07991943,20.9984461,series_0
,,,,,,,,5ee9c99d4b37e300082613e6,Mężczyzna,22,2021-07-13_21h55.19.460,rantool2,2021.1.4,Win32,60.0240096,5ee9c99d4b37e300082613e6,60d9d14f4a8a35a482e0d9bf,60edef3e6268e2997aa02a06,f,0.519,0,55,55,25,1,ORROORO,ORROORR,21.79500819,22.61624387,series_1
,,,,,,,,5ee9c99d4b37e300082613e6,Mężczyzna,22,2021-07-13_21h55.19.460,rantool2,2021.1.4,Win32,60.0240096,5ee9c99d4b37e300082613e6,60d9d14f4a8a35a482e0d9bf,60edef3e6268e2997aa02a06,f,2.081,0,56,56,9,1,OOROORO,OOROORR,21.07991943,22.2428857,series_1
,,,,,,,,5ee9c99d4b37e300082613e6,Mężczyzna,22,2021-07-13_21h55.19.460,rantool2,2021.1.4,Win32,60.0240096,5ee9c99d4b37e300082613e6,60d9d14f4a8a35a482e0d9bf,60edef3e6268e2997aa02a06,f,1.202,0,57,57,16,1,OROOOOO,OROOOOR,20.43051175,21.17347734,series_1
,,,,,,,,5ee9c99d4b37e300082613e6,Mężczyzna,22,2021-07-13_21h55.19.460,rantool2,2021.1.4,Win32,60.0240096,5ee9c99d4b37e300082613e6,60d9d14f4a8a35a482e0d9bf,60edef3e6268e2997aa02a06,j,0.784,0,58,58,19,1,OROORRO,OROORRR,21.73568164,22.11181017,series_1
,,,,,,,,5ee9c99d4b37e300082613e6,Mężczyzna,22,2021-07-13_21h55.19.460,rantool2,2021.1.4,Win32,60.0240096,5ee9c99d4b37e300082613e6,60d9d14f4a8a35a482e0d9bf,60edef3e6268e2997aa02a06,j,1.219,0,59,59,45,1,RORRORO,RORRORR,20.78182524,21.22513037,series_1
,,,,,,,,5ee9c99d4b37e300082613e6,Mężczyzna,22,2021-07-13_21h55.19.460,rantool2,2021.1.4,Win32,60.0240096,5ee9c99d4b37e300082613e6,60d9d14f4a8a35a482e0d9bf,60edef3e6268e2997aa02a06,f,0.775,0,60,60,28,1,ORRROOO,ORRROOR,22.24142883,22.53364006,series_1
,,,,,,,,5ee9c99d4b37e300082613e6,Mężczyzna,22,2021-07-13_21h55.19.460,rantool2,2021.1.4,Win32,60.0240096,5ee9c99d4b37e300082613e6,60d9d14f4a8a35a482e0d9bf,60edef3e6268e2997aa02a06,f,1.102,0,61,61,49,1,RROOORO,RROOORR,21.76276513,22.53364006,series_1
,,,,,,,,5ee9c99d4b37e300082613e6,Mężczyzna,22,2021-07-13_21h55.19.460,rantool2,2021.1.4,Win32,60.0240096,5ee9c99d4b37e300082613e6,60d9d14f4a8a35a482e0d9bf,60edef3e6268e2997aa02a06,f,0.869,0,62,62,18,1,OROOROO,OROOROR,20.84860893,21.22513037,series_1
,,,,,,,,5ee9c99d4b37e300082613e6,Mężczyzna,22,2021-07-13_21h55.19.460,rantool2,2021.1.4,Win32,60.0240096,5ee9c99d4b37e300082613e6,60d9d14f4a8a35a482e0d9bf,60edef3e6268e2997aa02a06,j,0.867,0,63,63,42,1,ROROROO,ROROROR,20.39515459,19.8361834,series_0
