key_resp_5.keys,key_resp_5.corr,key_resp_5.rt,trials.thisRepN,trials.thisTrialN,trials.thisN,trials.thisIndex,trials.ran,id*,Płeć*,Wiek*,date,expName,psychopyVersion,OS,frameRate,id,STUDY_ID,SESSION_ID,key_resp_7.keys,key_resp_7.rt,trials_2.thisRepN,trials_2.thisTrialN,trials_2.thisN,trials_2.thisIndex,trials_2.ran,series_0,series_1,acss_0,acss_1,comparison
"[""comma""]",0,[0.8345200000002819],0,0,0,0,1,60eabc911fae7b77f861eaf5,Mężczyzna,45,2021-07-13_21h49.39.701,rantool2,2021.1.4,Win32,59.90534955,60eabc911fae7b77f861eaf5,60d9d14f4a8a35a482e0d9bf,60edee2d1bfcc7bf17907589,,,,,,,,,,,,
"[""period""]",0,[0.6546049999997763],1,0,1,0,1,60eabc911fae7b77f861eaf5,Mężczyzna,45,2021-07-13_21h49.39.701,rantool2,2021.1.4,Win32,59.90534955,60eabc911fae7b77f861eaf5,60d9d14f4a8a35a482e0d9bf,60edee2d1bfcc7bf17907589,,,,,,,,,,,,
"[""period""]",0,[0.3671500000000094],2,0,2,0,1,60eabc911fae7b77f861eaf5,Mężczyzna,45,2021-07-13_21h49.39.701,rantool2,2021.1.4,Win32,59.90534955,60eabc911fae7b77f861eaf5,60d9d14f4a8a35a482e0d9bf,60edee2d1bfcc7bf17907589,,,,,,,,,,,,
"[""period""]",0,[0.24282000000133053],3,0,3,0,1,60eabc911fae7b77f861eaf5,Mężczyzna,45,2021-07-13_21h49.39.701,rantool2,2021.1.4,Win32,59.90534955,60eabc911fae7b77f861eaf5,60d9d14f4a8a35a482e0d9bf,60edee2d1bfcc7bf17907589,,,,,,,,,,,,
"[""comma""]",0,[0.04245499999893809],4,0,4,0,1,60eabc911fae7b77f861eaf5,Mężczyzna,45,2021-07-13_21h49.39.701,rantool2,2021.1.4,Win32,59.90534955,60eabc911fae7b77f861eaf5,60d9d14f4a8a35a482e0d9bf,60edee2d1bfcc7bf17907589,,,,,,,,,,,,
"[""period""]",0,[0.20702999999960525],5,0,5,0,1,60eabc911fae7b77f861eaf5,Mężczyzna,45,2021-07-13_21h49.39.701,rantool2,2021.1.4,Win32,59.90534955,60eabc911fae7b77f861eaf5,60d9d14f4a8a35a482e0d9bf,60edee2d1bfcc7bf17907589,,,,,,,,,,,,
"[""period""]",0,[0.36779999999998836],6,0,6,0,1,60eabc911fae7b77f861eaf5,Mężczyzna,45,2021-07-13_21h49.39.701,rantool2,2021.1.4,Win32,59.90534955,60eabc911fae7b77f861eaf5,60d9d14f4a8a35a482e0d9bf,60edee2d1bfcc7bf17907589,,,,,,,,,,,,
"[""period""]",0,[0.35257500000079744],7,0,7,0,1,60eabc911fae7b77f861eaf5,Mężczyzna,45,2021-07-13_21h49.39.701,rantool2,2021.1.4,Win32,59.90534955,60eabc911fae7b77f861eaf5,60d9d14f4a8a35a482e0d9bf,60edee2d1bfcc7bf17907589,,,,,,,,,,,,
"[""comma""]",0,[0.08389499999975669],8,0,8,0,1,60eabc911fae7b77f861eaf5,Mężczyzna,45,2021-07-13_21h49.39.701,rantool2,2021.1.4,Win32,59.90534955,60eabc911fae7b77f861eaf5,60d9d14f4a8a35a482e0d9bf,60edee2d1bfcc7bf17907589,,,,,,,,,,,,
"[""comma""]",0,[0.3063899999997659],9,0,9,0,1,60eabc911fae7b77f861eaf5,Mężczyzna,45,2021-07-13_21h49.39.701,rantool2,2021.1.4,Win32,59.90534955,60eabc911fae7b77f861eaf5,60d9d14f4a8a35a482e0d9bf,60edee2d1bfcc7bf17907589,,,,,,,,,,,,
"[""comma""]",0,[0.29200500000112584],10,0,10,0,1,60eabc911fae7b77f861eaf5,Mężczyzna,45,2021-07-13_21h49.39.701,rantool2,2021.1.4,Win32,59.90534955,60eabc911fae7b77f861eaf5,60d9d14f4a8a35a482e0d9bf,60edee2d1bfcc7bf17907589,,,,,,,,,,,,
"[""comma"",""period""]",0,"[0.05026499999988232,1.9676450000006867]",11,0,11,0,1,60eabc911fae7b77f861eaf5,Mężczyzna,45,2021-07-13_21h49.39.701,rantool2,2021.1.4,Win32,59.90534955,60eabc911fae7b77f861eaf5,60d9d14f4a8a35a482e0d9bf,60edee2d1bfcc7bf17907589,,,,,,,,,,,,
"[""period""]",0,[1.967155000000247],12,0,12,0,1,60eabc911fae7b77f861eaf5,Mężczyzna,45,2021-07-13_21h49.39.701,rantool2,2021.1.4,Win32,59.90534955,60eabc911fae7b77f861eaf5,60d9d14f4a8a35a482e0d9bf,60edee2d1bfcc7bf17907589,,,,,,,,,,,,
0,0,,13,0,13,0,1,60eabc911fae7b77f861eaf5,Mężczyzna,45,2021-07-13_21h49.39.701,rantool2,2021.1.4,Win32,59.90534955,60eabc911fae7b77f861eaf5,60d9d14f4a8a35a482e0d9bf,60edee2d1bfcc7bf17907589,,,,,,,,,,,,
"[""period""]",0,[0.1836349999994411],14,0,14,0,1,60eabc911fae7b77f861eaf5,Mężczyzna,45,2021-07-13_21h49.39.701,rantool2,2021.1.4,Win32,59.90534955,60eabc911fae7b77f861eaf5,60d9d14f4a8a35a482e0d9bf,60edee2d1bfcc7bf17907589,,,,,,,,,,,,
"[""comma""]",0,[0.23748499999962291],15,0,15,0,1,60eabc911fae7b77f861eaf5,Mężczyzna,45,2021-07-13_21h49.39.701,rantool2,2021.1.4,Win32,59.90534955,60eabc911fae7b77f861eaf5,60d9d14f4a8a35a482e0d9bf,60edee2d1bfcc7bf17907589,,,,,,,,,,,,
"[""period""]",0,[-0.010519999999758056],16,0,16,0,1,60eabc911fae7b77f861eaf5,Mężczyzna,45,2021-07-13_21h49.39.701,rantool2,2021.1.4,Win32,59.90534955,60eabc911fae7b77f861eaf5,60d9d14f4a8a35a482e0d9bf,60edee2d1bfcc7bf17907589,,,,,,,,,,,,
"[""comma""]",0,[0.22544000000013398],17,0,17,0,1,60eabc911fae7b77f861eaf5,Mężczyzna,45,2021-07-13_21h49.39.701,rantool2,2021.1.4,Win32,59.90534955,60eabc911fae7b77f861eaf5,60d9d14f4a8a35a482e0d9bf,60edee2d1bfcc7bf17907589,,,,,,,,,,,,
"[""comma""]",0,[0.257380000000893],18,0,18,0,1,60eabc911fae7b77f861eaf5,Mężczyzna,45,2021-07-13_21h49.39.701,rantool2,2021.1.4,Win32,59.90534955,60eabc911fae7b77f861eaf5,60d9d14f4a8a35a482e0d9bf,60edee2d1bfcc7bf17907589,,,,,,,,,,,,
"[""comma""]",0,[0.33532500000001164],19,0,19,0,1,60eabc911fae7b77f861eaf5,Mężczyzna,45,2021-07-13_21h49.39.701,rantool2,2021.1.4,Win32,59.90534955,60eabc911fae7b77f861eaf5,60d9d14f4a8a35a482e0d9bf,60edee2d1bfcc7bf17907589,,,,,,,,,,,,
"[""period""]",0,[0.22538500000149497],20,0,20,0,1,60eabc911fae7b77f861eaf5,Mężczyzna,45,2021-07-13_21h49.39.701,rantool2,2021.1.4,Win32,59.90534955,60eabc911fae7b77f861eaf5,60d9d14f4a8a35a482e0d9bf,60edee2d1bfcc7bf17907589,,,,,,,,,,,,
"[""period""]",0,[0.2816800000000512],21,0,21,0,1,60eabc911fae7b77f861eaf5,Mężczyzna,45,2021-07-13_21h49.39.701,rantool2,2021.1.4,Win32,59.90534955,60eabc911fae7b77f861eaf5,60d9d14f4a8a35a482e0d9bf,60edee2d1bfcc7bf17907589,,,,,,,,,,,,
"[""comma""]",0,[0.20342999999959943],22,0,22,0,1,60eabc911fae7b77f861eaf5,Mężczyzna,45,2021-07-13_21h49.39.701,rantool2,2021.1.4,Win32,59.90534955,60eabc911fae7b77f861eaf5,60d9d14f4a8a35a482e0d9bf,60edee2d1bfcc7bf17907589,,,,,,,,,,,,
"[""period""]",0,[0.20930000000041105],23,0,23,0,1,60eabc911fae7b77f861eaf5,Mężczyzna,45,2021-07-13_21h49.39.701,rantool2,2021.1.4,Win32,59.90534955,60eabc911fae7b77f861eaf5,60d9d14f4a8a35a482e0d9bf,60edee2d1bfcc7bf17907589,,,,,,,,,,,,
"[""period"",""period""]",0,"[0.09215499999845633,0.23810999999841442]",24,0,24,0,1,60eabc911fae7b77f861eaf5,Mężczyzna,45,2021-07-13_21h49.39.701,rantool2,2021.1.4,Win32,59.90534955,60eabc911fae7b77f861eaf5,60d9d14f4a8a35a482e0d9bf,60edee2d1bfcc7bf17907589,,,,,,,,,,,,
"[""comma""]",0,[0.22229500000136682],25,0,25,0,1,60eabc911fae7b77f861eaf5,Mężczyzna,45,2021-07-13_21h49.39.701,rantool2,2021.1.4,Win32,59.90534955,60eabc911fae7b77f861eaf5,60d9d14f4a8a35a482e0d9bf,60edee2d1bfcc7bf17907589,,,,,,,,,,,,
0,0,,26,0,26,0,1,60eabc911fae7b77f861eaf5,Mężczyzna,45,2021-07-13_21h49.39.701,rantool2,2021.1.4,Win32,59.90534955,60eabc911fae7b77f861eaf5,60d9d14f4a8a35a482e0d9bf,60edee2d1bfcc7bf17907589,,,,,,,,,,,,
"[""period"",""period""]",0,"[0.18550500000128523,0.2511900000008893]",27,0,27,0,1,60eabc911fae7b77f861eaf5,Mężczyzna,45,2021-07-13_21h49.39.701,rantool2,2021.1.4,Win32,59.90534955,60eabc911fae7b77f861eaf5,60d9d14f4a8a35a482e0d9bf,60edee2d1bfcc7bf17907589,,,,,,,,,,,,
"[""period""]",0,[0.2618549999988602],28,0,28,0,1,60eabc911fae7b77f861eaf5,Mężczyzna,45,2021-07-13_21h49.39.701,rantool2,2021.1.4,Win32,59.90534955,60eabc911fae7b77f861eaf5,60d9d14f4a8a35a482e0d9bf,60edee2d1bfcc7bf17907589,,,,,,,,,,,,
"[""period""]",0,[0.40888500000068007],29,0,29,0,1,60eabc911fae7b77f861eaf5,Mężczyzna,45,2021-07-13_21h49.39.701,rantool2,2021.1.4,Win32,59.90534955,60eabc911fae7b77f861eaf5,60d9d14f4a8a35a482e0d9bf,60edee2d1bfcc7bf17907589,,,,,,,,,,,,
"[""comma""]",0,[0.24094999999942956],30,0,30,0,1,60eabc911fae7b77f861eaf5,Mężczyzna,45,2021-07-13_21h49.39.701,rantool2,2021.1.4,Win32,59.90534955,60eabc911fae7b77f861eaf5,60d9d14f4a8a35a482e0d9bf,60edee2d1bfcc7bf17907589,,,,,,,,,,,,
"[""comma""]",0,[0.2339800000008836],31,0,31,0,1,60eabc911fae7b77f861eaf5,Mężczyzna,45,2021-07-13_21h49.39.701,rantool2,2021.1.4,Win32,59.90534955,60eabc911fae7b77f861eaf5,60d9d14f4a8a35a482e0d9bf,60edee2d1bfcc7bf17907589,,,,,,,,,,,,
"[""comma""]",0,[0.3900200000007601],32,0,32,0,1,60eabc911fae7b77f861eaf5,Mężczyzna,45,2021-07-13_21h49.39.701,rantool2,2021.1.4,Win32,59.90534955,60eabc911fae7b77f861eaf5,60d9d14f4a8a35a482e0d9bf,60edee2d1bfcc7bf17907589,,,,,,,,,,,,
"[""comma""]",0,[0.4836649999997462],33,0,33,0,1,60eabc911fae7b77f861eaf5,Mężczyzna,45,2021-07-13_21h49.39.701,rantool2,2021.1.4,Win32,59.90534955,60eabc911fae7b77f861eaf5,60d9d14f4a8a35a482e0d9bf,60edee2d1bfcc7bf17907589,,,,,,,,,,,,
"[""comma""]",0,[0.5672350000004656],34,0,34,0,1,60eabc911fae7b77f861eaf5,Mężczyzna,45,2021-07-13_21h49.39.701,rantool2,2021.1.4,Win32,59.90534955,60eabc911fae7b77f861eaf5,60d9d14f4a8a35a482e0d9bf,60edee2d1bfcc7bf17907589,,,,,,,,,,,,
"[""period""]",0,[0.7337950000001001],35,0,35,0,1,60eabc911fae7b77f861eaf5,Mężczyzna,45,2021-07-13_21h49.39.701,rantool2,2021.1.4,Win32,59.90534955,60eabc911fae7b77f861eaf5,60d9d14f4a8a35a482e0d9bf,60edee2d1bfcc7bf17907589,,,,,,,,,,,,
"[""period""]",0,[0.5046999999994739],36,0,36,0,1,60eabc911fae7b77f861eaf5,Mężczyzna,45,2021-07-13_21h49.39.701,rantool2,2021.1.4,Win32,59.90534955,60eabc911fae7b77f861eaf5,60d9d14f4a8a35a482e0d9bf,60edee2d1bfcc7bf17907589,,,,,,,,,,,,
"[""period"",""period""]",0,"[1.033609999998589,1.8928949999990152]",37,0,37,0,1,60eabc911fae7b77f861eaf5,Mężczyzna,45,2021-07-13_21h49.39.701,rantool2,2021.1.4,Win32,59.90534955,60eabc911fae7b77f861eaf5,60d9d14f4a8a35a482e0d9bf,60edee2d1bfcc7bf17907589,,,,,,,,,,,,
0,0,,38,0,38,0,1,60eabc911fae7b77f861eaf5,Mężczyzna,45,2021-07-13_21h49.39.701,rantool2,2021.1.4,Win32,59.90534955,60eabc911fae7b77f861eaf5,60d9d14f4a8a35a482e0d9bf,60edee2d1bfcc7bf17907589,,,,,,,,,,,,
"[""comma""]",0,[0.2221150000004286],39,0,39,0,1,60eabc911fae7b77f861eaf5,Mężczyzna,45,2021-07-13_21h49.39.701,rantool2,2021.1.4,Win32,59.90534955,60eabc911fae7b77f861eaf5,60d9d14f4a8a35a482e0d9bf,60edee2d1bfcc7bf17907589,,,,,,,,,,,,
"[""comma""]",0,[0.5180749999999534],40,0,40,0,1,60eabc911fae7b77f861eaf5,Mężczyzna,45,2021-07-13_21h49.39.701,rantool2,2021.1.4,Win32,59.90534955,60eabc911fae7b77f861eaf5,60d9d14f4a8a35a482e0d9bf,60edee2d1bfcc7bf17907589,,,,,,,,,,,,
"[""comma""]",0,[0.6500500000001352],41,0,41,0,1,60eabc911fae7b77f861eaf5,Mężczyzna,45,2021-07-13_21h49.39.701,rantool2,2021.1.4,Win32,59.90534955,60eabc911fae7b77f861eaf5,60d9d14f4a8a35a482e0d9bf,60edee2d1bfcc7bf17907589,,,,,,,,,,,,
"[""comma""]",0,[0.5507749999997031],42,0,42,0,1,60eabc911fae7b77f861eaf5,Mężczyzna,45,2021-07-13_21h49.39.701,rantool2,2021.1.4,Win32,59.90534955,60eabc911fae7b77f861eaf5,60d9d14f4a8a35a482e0d9bf,60edee2d1bfcc7bf17907589,,,,,,,,,,,,
"[""period""]",0,[0.2865849999998602],43,0,43,0,1,60eabc911fae7b77f861eaf5,Mężczyzna,45,2021-07-13_21h49.39.701,rantool2,2021.1.4,Win32,59.90534955,60eabc911fae7b77f861eaf5,60d9d14f4a8a35a482e0d9bf,60edee2d1bfcc7bf17907589,,,,,,,,,,,,
"[""period""]",0,[0.3018599999995786],44,0,44,0,1,60eabc911fae7b77f861eaf5,Mężczyzna,45,2021-07-13_21h49.39.701,rantool2,2021.1.4,Win32,59.90534955,60eabc911fae7b77f861eaf5,60d9d14f4a8a35a482e0d9bf,60edee2d1bfcc7bf17907589,,,,,,,,,,,,
"[""period""]",0,[0.23430499999992094],45,0,45,0,1,60eabc911fae7b77f861eaf5,Mężczyzna,45,2021-07-13_21h49.39.701,rantool2,2021.1.4,Win32,59.90534955,60eabc911fae7b77f861eaf5,60d9d14f4a8a35a482e0d9bf,60edee2d1bfcc7bf17907589,,,,,,,,,,,,
"[""comma""]",0,[0.2673949999989418],46,0,46,0,1,60eabc911fae7b77f861eaf5,Mężczyzna,45,2021-07-13_21h49.39.701,rantool2,2021.1.4,Win32,59.90534955,60eabc911fae7b77f861eaf5,60d9d14f4a8a35a482e0d9bf,60edee2d1bfcc7bf17907589,,,,,,,,,,,,
"[""period""]",0,[0.033770000000032496],47,0,47,0,1,60eabc911fae7b77f861eaf5,Mężczyzna,45,2021-07-13_21h49.39.701,rantool2,2021.1.4,Win32,59.90534955,60eabc911fae7b77f861eaf5,60d9d14f4a8a35a482e0d9bf,60edee2d1bfcc7bf17907589,,,,,,,,,,,,
"[""comma""]",0,[0.06709000000051901],48,0,48,0,1,60eabc911fae7b77f861eaf5,Mężczyzna,45,2021-07-13_21h49.39.701,rantool2,2021.1.4,Win32,59.90534955,60eabc911fae7b77f861eaf5,60d9d14f4a8a35a482e0d9bf,60edee2d1bfcc7bf17907589,,,,,,,,,,,,
"[""comma""]",0,[0.14157499999961942],49,0,49,0,1,60eabc911fae7b77f861eaf5,Mężczyzna,45,2021-07-13_21h49.39.701,rantool2,2021.1.4,Win32,59.90534955,60eabc911fae7b77f861eaf5,60d9d14f4a8a35a482e0d9bf,60edee2d1bfcc7bf17907589,,,,,,,,,,,,
"[""period""]",0,[0.18830999999954656],50,0,50,0,1,60eabc911fae7b77f861eaf5,Mężczyzna,45,2021-07-13_21h49.39.701,rantool2,2021.1.4,Win32,59.90534955,60eabc911fae7b77f861eaf5,60d9d14f4a8a35a482e0d9bf,60edee2d1bfcc7bf17907589,,,,,,,,,,,,
"[""period""]",0,[0.12523999999939406],51,0,51,0,1,60eabc911fae7b77f861eaf5,Mężczyzna,45,2021-07-13_21h49.39.701,rantool2,2021.1.4,Win32,59.90534955,60eabc911fae7b77f861eaf5,60d9d14f4a8a35a482e0d9bf,60edee2d1bfcc7bf17907589,,,,,,,,,,,,
"[""period""]",0,[-0.025714999999763677],52,0,52,0,1,60eabc911fae7b77f861eaf5,Mężczyzna,45,2021-07-13_21h49.39.701,rantool2,2021.1.4,Win32,59.90534955,60eabc911fae7b77f861eaf5,60d9d14f4a8a35a482e0d9bf,60edee2d1bfcc7bf17907589,,,,,,,,,,,,
"[""comma""]",0,[0.033844999999928405],53,0,53,0,1,60eabc911fae7b77f861eaf5,Mężczyzna,45,2021-07-13_21h49.39.701,rantool2,2021.1.4,Win32,59.90534955,60eabc911fae7b77f861eaf5,60d9d14f4a8a35a482e0d9bf,60edee2d1bfcc7bf17907589,,,,,,,,,,,,
"[""comma""]",0,[0.14620499999909953],54,0,54,0,1,60eabc911fae7b77f861eaf5,Mężczyzna,45,2021-07-13_21h49.39.701,rantool2,2021.1.4,Win32,59.90534955,60eabc911fae7b77f861eaf5,60d9d14f4a8a35a482e0d9bf,60edee2d1bfcc7bf17907589,,,,,,,,,,,,
"[""period""]",0,[0.2540049999988696],55,0,55,0,1,60eabc911fae7b77f861eaf5,Mężczyzna,45,2021-07-13_21h49.39.701,rantool2,2021.1.4,Win32,59.90534955,60eabc911fae7b77f861eaf5,60d9d14f4a8a35a482e0d9bf,60edee2d1bfcc7bf17907589,,,,,,,,,,,,
"[""period""]",0,[0.2868299999990995],56,0,56,0,1,60eabc911fae7b77f861eaf5,Mężczyzna,45,2021-07-13_21h49.39.701,rantool2,2021.1.4,Win32,59.90534955,60eabc911fae7b77f861eaf5,60d9d14f4a8a35a482e0d9bf,60edee2d1bfcc7bf17907589,,,,,,,,,,,,
"[""period""]",0,[0.2503899999992427],57,0,57,0,1,60eabc911fae7b77f861eaf5,Mężczyzna,45,2021-07-13_21h49.39.701,rantool2,2021.1.4,Win32,59.90534955,60eabc911fae7b77f861eaf5,60d9d14f4a8a35a482e0d9bf,60edee2d1bfcc7bf17907589,,,,,,,,,,,,
"[""period""]",0,[0.2810849999987113],58,0,58,0,1,60eabc911fae7b77f861eaf5,Mężczyzna,45,2021-07-13_21h49.39.701,rantool2,2021.1.4,Win32,59.90534955,60eabc911fae7b77f861eaf5,60d9d14f4a8a35a482e0d9bf,60edee2d1bfcc7bf17907589,,,,,,,,,,,,
"[""comma""]",0,[0.2573400000001129],59,0,59,0,1,60eabc911fae7b77f861eaf5,Mężczyzna,45,2021-07-13_21h49.39.701,rantool2,2021.1.4,Win32,59.90534955,60eabc911fae7b77f861eaf5,60d9d14f4a8a35a482e0d9bf,60edee2d1bfcc7bf17907589,,,,,,,,,,,,
"[""period""]",0,[0.23699000000124215],60,0,60,0,1,60eabc911fae7b77f861eaf5,Mężczyzna,45,2021-07-13_21h49.39.701,rantool2,2021.1.4,Win32,59.90534955,60eabc911fae7b77f861eaf5,60d9d14f4a8a35a482e0d9bf,60edee2d1bfcc7bf17907589,,,,,,,,,,,,
"[""comma""]",0,[0.2670699999998192],61,0,61,0,1,60eabc911fae7b77f861eaf5,Mężczyzna,45,2021-07-13_21h49.39.701,rantool2,2021.1.4,Win32,59.90534955,60eabc911fae7b77f861eaf5,60d9d14f4a8a35a482e0d9bf,60edee2d1bfcc7bf17907589,,,,,,,,,,,,
"[""period""]",0,[0.06352000000157432],62,0,62,0,1,60eabc911fae7b77f861eaf5,Mężczyzna,45,2021-07-13_21h49.39.701,rantool2,2021.1.4,Win32,59.90534955,60eabc911fae7b77f861eaf5,60d9d14f4a8a35a482e0d9bf,60edee2d1bfcc7bf17907589,,,,,,,,,,,,
0,0,,63,0,63,0,1,60eabc911fae7b77f861eaf5,Mężczyzna,45,2021-07-13_21h49.39.701,rantool2,2021.1.4,Win32,59.90534955,60eabc911fae7b77f861eaf5,60d9d14f4a8a35a482e0d9bf,60edee2d1bfcc7bf17907589,,,,,,,,,,,,
0,0,,64,0,64,0,1,60eabc911fae7b77f861eaf5,Mężczyzna,45,2021-07-13_21h49.39.701,rantool2,2021.1.4,Win32,59.90534955,60eabc911fae7b77f861eaf5,60d9d14f4a8a35a482e0d9bf,60edee2d1bfcc7bf17907589,,,,,,,,,,,,
"[""comma""]",0,[0.3254699999997115],65,0,65,0,1,60eabc911fae7b77f861eaf5,Mężczyzna,45,2021-07-13_21h49.39.701,rantool2,2021.1.4,Win32,59.90534955,60eabc911fae7b77f861eaf5,60d9d14f4a8a35a482e0d9bf,60edee2d1bfcc7bf17907589,,,,,,,,,,,,
"[""period""]",0,[0.25209499999982654],66,0,66,0,1,60eabc911fae7b77f861eaf5,Mężczyzna,45,2021-07-13_21h49.39.701,rantool2,2021.1.4,Win32,59.90534955,60eabc911fae7b77f861eaf5,60d9d14f4a8a35a482e0d9bf,60edee2d1bfcc7bf17907589,,,,,,,,,,,,
"[""period""]",0,[0.22521499999857042],67,0,67,0,1,60eabc911fae7b77f861eaf5,Mężczyzna,45,2021-07-13_21h49.39.701,rantool2,2021.1.4,Win32,59.90534955,60eabc911fae7b77f861eaf5,60d9d14f4a8a35a482e0d9bf,60edee2d1bfcc7bf17907589,,,,,,,,,,,,
"[""comma""]",0,[0.24100499999985914],68,0,68,0,1,60eabc911fae7b77f861eaf5,Mężczyzna,45,2021-07-13_21h49.39.701,rantool2,2021.1.4,Win32,59.90534955,60eabc911fae7b77f861eaf5,60d9d14f4a8a35a482e0d9bf,60edee2d1bfcc7bf17907589,,,,,,,,,,,,
"[""period""]",0,[0.17481000000043423],69,0,69,0,1,60eabc911fae7b77f861eaf5,Mężczyzna,45,2021-07-13_21h49.39.701,rantool2,2021.1.4,Win32,59.90534955,60eabc911fae7b77f861eaf5,60d9d14f4a8a35a482e0d9bf,60edee2d1bfcc7bf17907589,,,,,,,,,,,,
"[""comma""]",0,[0.27316500000051747],70,0,70,0,1,60eabc911fae7b77f861eaf5,Mężczyzna,45,2021-07-13_21h49.39.701,rantool2,2021.1.4,Win32,59.90534955,60eabc911fae7b77f861eaf5,60d9d14f4a8a35a482e0d9bf,60edee2d1bfcc7bf17907589,,,,,,,,,,,,
"[""period""]",0,[0.30492000000054986],71,0,71,0,1,60eabc911fae7b77f861eaf5,Mężczyzna,45,2021-07-13_21h49.39.701,rantool2,2021.1.4,Win32,59.90534955,60eabc911fae7b77f861eaf5,60d9d14f4a8a35a482e0d9bf,60edee2d1bfcc7bf17907589,,,,,,,,,,,,
"[""period""]",0,[0.4002199999995355],72,0,72,0,1,60eabc911fae7b77f861eaf5,Mężczyzna,45,2021-07-13_21h49.39.701,rantool2,2021.1.4,Win32,59.90534955,60eabc911fae7b77f861eaf5,60d9d14f4a8a35a482e0d9bf,60edee2d1bfcc7bf17907589,,,,,,,,,,,,
"[""period""]",0,[0.34143500000027416],73,0,73,0,1,60eabc911fae7b77f861eaf5,Mężczyzna,45,2021-07-13_21h49.39.701,rantool2,2021.1.4,Win32,59.90534955,60eabc911fae7b77f861eaf5,60d9d14f4a8a35a482e0d9bf,60edee2d1bfcc7bf17907589,,,,,,,,,,,,
"[""period""]",0,[0.32545500000014727],74,0,74,0,1,60eabc911fae7b77f861eaf5,Mężczyzna,45,2021-07-13_21h49.39.701,rantool2,2021.1.4,Win32,59.90534955,60eabc911fae7b77f861eaf5,60d9d14f4a8a35a482e0d9bf,60edee2d1bfcc7bf17907589,,,,,,,,,,,,
"[""period""]",0,[0.2748649999994086],75,0,75,0,1,60eabc911fae7b77f861eaf5,Mężczyzna,45,2021-07-13_21h49.39.701,rantool2,2021.1.4,Win32,59.90534955,60eabc911fae7b77f861eaf5,60d9d14f4a8a35a482e0d9bf,60edee2d1bfcc7bf17907589,,,,,,,,,,,,
"[""comma""]",0,[0.2529299999987984],76,0,76,0,1,60eabc911fae7b77f861eaf5,Mężczyzna,45,2021-07-13_21h49.39.701,rantool2,2021.1.4,Win32,59.90534955,60eabc911fae7b77f861eaf5,60d9d14f4a8a35a482e0d9bf,60edee2d1bfcc7bf17907589,,,,,,,,,,,,
"[""period""]",0,[0.2989550000002055],77,0,77,0,1,60eabc911fae7b77f861eaf5,Mężczyzna,45,2021-07-13_21h49.39.701,rantool2,2021.1.4,Win32,59.90534955,60eabc911fae7b77f861eaf5,60d9d14f4a8a35a482e0d9bf,60edee2d1bfcc7bf17907589,,,,,,,,,,,,
"[""comma""]",0,[0.24017500000081782],78,0,78,0,1,60eabc911fae7b77f861eaf5,Mężczyzna,45,2021-07-13_21h49.39.701,rantool2,2021.1.4,Win32,59.90534955,60eabc911fae7b77f861eaf5,60d9d14f4a8a35a482e0d9bf,60edee2d1bfcc7bf17907589,,,,,,,,,,,,
"[""comma""]",0,[0.3408399999989342],79,0,79,0,1,60eabc911fae7b77f861eaf5,Mężczyzna,45,2021-07-13_21h49.39.701,rantool2,2021.1.4,Win32,59.90534955,60eabc911fae7b77f861eaf5,60d9d14f4a8a35a482e0d9bf,60edee2d1bfcc7bf17907589,,,,,,,,,,,,
"[""comma""]",0,[0.25790000000051805],80,0,80,0,1,60eabc911fae7b77f861eaf5,Mężczyzna,45,2021-07-13_21h49.39.701,rantool2,2021.1.4,Win32,59.90534955,60eabc911fae7b77f861eaf5,60d9d14f4a8a35a482e0d9bf,60edee2d1bfcc7bf17907589,,,,,,,,,,,,
"[""comma""]",0,[0.2889450000003535],81,0,81,0,1,60eabc911fae7b77f861eaf5,Mężczyzna,45,2021-07-13_21h49.39.701,rantool2,2021.1.4,Win32,59.90534955,60eabc911fae7b77f861eaf5,60d9d14f4a8a35a482e0d9bf,60edee2d1bfcc7bf17907589,,,,,,,,,,,,
"[""comma""]",0,[0.33576499999981024],82,0,82,0,1,60eabc911fae7b77f861eaf5,Mężczyzna,45,2021-07-13_21h49.39.701,rantool2,2021.1.4,Win32,59.90534955,60eabc911fae7b77f861eaf5,60d9d14f4a8a35a482e0d9bf,60edee2d1bfcc7bf17907589,,,,,,,,,,,,
"[""period""]",0,[0.22389499999917462],83,0,83,0,1,60eabc911fae7b77f861eaf5,Mężczyzna,45,2021-07-13_21h49.39.701,rantool2,2021.1.4,Win32,59.90534955,60eabc911fae7b77f861eaf5,60d9d14f4a8a35a482e0d9bf,60edee2d1bfcc7bf17907589,,,,,,,,,,,,
"[""period""]",0,[0.2320849999996426],84,0,84,0,1,60eabc911fae7b77f861eaf5,Mężczyzna,45,2021-07-13_21h49.39.701,rantool2,2021.1.4,Win32,59.90534955,60eabc911fae7b77f861eaf5,60d9d14f4a8a35a482e0d9bf,60edee2d1bfcc7bf17907589,,,,,,,,,,,,
"[""comma""]",0,[0.25121500000022934],85,0,85,0,1,60eabc911fae7b77f861eaf5,Mężczyzna,45,2021-07-13_21h49.39.701,rantool2,2021.1.4,Win32,59.90534955,60eabc911fae7b77f861eaf5,60d9d14f4a8a35a482e0d9bf,60edee2d1bfcc7bf17907589,,,,,,,,,,,,
"[""period""]",0,[0.12482000000096605],86,0,86,0,1,60eabc911fae7b77f861eaf5,Mężczyzna,45,2021-07-13_21h49.39.701,rantool2,2021.1.4,Win32,59.90534955,60eabc911fae7b77f861eaf5,60d9d14f4a8a35a482e0d9bf,60edee2d1bfcc7bf17907589,,,,,,,,,,,,
"[""period""]",0,[0.2604800000008254],87,0,87,0,1,60eabc911fae7b77f861eaf5,Mężczyzna,45,2021-07-13_21h49.39.701,rantool2,2021.1.4,Win32,59.90534955,60eabc911fae7b77f861eaf5,60d9d14f4a8a35a482e0d9bf,60edee2d1bfcc7bf17907589,,,,,,,,,,,,
"[""period""]",0,[0.2751700000007986],88,0,88,0,1,60eabc911fae7b77f861eaf5,Mężczyzna,45,2021-07-13_21h49.39.701,rantool2,2021.1.4,Win32,59.90534955,60eabc911fae7b77f861eaf5,60d9d14f4a8a35a482e0d9bf,60edee2d1bfcc7bf17907589,,,,,,,,,,,,
"[""period""]",0,[0.3336699999999837],89,0,89,0,1,60eabc911fae7b77f861eaf5,Mężczyzna,45,2021-07-13_21h49.39.701,rantool2,2021.1.4,Win32,59.90534955,60eabc911fae7b77f861eaf5,60d9d14f4a8a35a482e0d9bf,60edee2d1bfcc7bf17907589,,,,,,,,,,,,
"[""comma""]",0,[0.25370499999922913],90,0,90,0,1,60eabc911fae7b77f861eaf5,Mężczyzna,45,2021-07-13_21h49.39.701,rantool2,2021.1.4,Win32,59.90534955,60eabc911fae7b77f861eaf5,60d9d14f4a8a35a482e0d9bf,60edee2d1bfcc7bf17907589,,,,,,,,,,,,
"[""comma""]",0,[0.2673349999985817],91,0,91,0,1,60eabc911fae7b77f861eaf5,Mężczyzna,45,2021-07-13_21h49.39.701,rantool2,2021.1.4,Win32,59.90534955,60eabc911fae7b77f861eaf5,60d9d14f4a8a35a482e0d9bf,60edee2d1bfcc7bf17907589,,,,,,,,,,,,
"[""comma""]",0,[0.45398500000010245],92,0,92,0,1,60eabc911fae7b77f861eaf5,Mężczyzna,45,2021-07-13_21h49.39.701,rantool2,2021.1.4,Win32,59.90534955,60eabc911fae7b77f861eaf5,60d9d14f4a8a35a482e0d9bf,60edee2d1bfcc7bf17907589,,,,,,,,,,,,
"[""period""]",0,[0.3012099999996849],93,0,93,0,1,60eabc911fae7b77f861eaf5,Mężczyzna,45,2021-07-13_21h49.39.701,rantool2,2021.1.4,Win32,59.90534955,60eabc911fae7b77f861eaf5,60d9d14f4a8a35a482e0d9bf,60edee2d1bfcc7bf17907589,,,,,,,,,,,,
"[""period""]",0,[0.25920500000023594],94,0,94,0,1,60eabc911fae7b77f861eaf5,Mężczyzna,45,2021-07-13_21h49.39.701,rantool2,2021.1.4,Win32,59.90534955,60eabc911fae7b77f861eaf5,60d9d14f4a8a35a482e0d9bf,60edee2d1bfcc7bf17907589,,,,,,,,,,,,
"[""period""]",0,[0.300520000000688],95,0,95,0,1,60eabc911fae7b77f861eaf5,Mężczyzna,45,2021-07-13_21h49.39.701,rantool2,2021.1.4,Win32,59.90534955,60eabc911fae7b77f861eaf5,60d9d14f4a8a35a482e0d9bf,60edee2d1bfcc7bf17907589,,,,,,,,,,,,
"[""period""]",0,[0.23783499999990454],96,0,96,0,1,60eabc911fae7b77f861eaf5,Mężczyzna,45,2021-07-13_21h49.39.701,rantool2,2021.1.4,Win32,59.90534955,60eabc911fae7b77f861eaf5,60d9d14f4a8a35a482e0d9bf,60edee2d1bfcc7bf17907589,,,,,,,,,,,,
"[""comma""]",0,[0.0380299999997078],97,0,97,0,1,60eabc911fae7b77f861eaf5,Mężczyzna,45,2021-07-13_21h49.39.701,rantool2,2021.1.4,Win32,59.90534955,60eabc911fae7b77f861eaf5,60d9d14f4a8a35a482e0d9bf,60edee2d1bfcc7bf17907589,,,,,,,,,,,,
"[""comma""]",0,[0.30544000000008964],98,0,98,0,1,60eabc911fae7b77f861eaf5,Mężczyzna,45,2021-07-13_21h49.39.701,rantool2,2021.1.4,Win32,59.90534955,60eabc911fae7b77f861eaf5,60d9d14f4a8a35a482e0d9bf,60edee2d1bfcc7bf17907589,,,,,,,,,,,,
"[""period""]",0,[0.2503699999998048],99,0,99,0,1,60eabc911fae7b77f861eaf5,Mężczyzna,45,2021-07-13_21h49.39.701,rantool2,2021.1.4,Win32,59.90534955,60eabc911fae7b77f861eaf5,60d9d14f4a8a35a482e0d9bf,60edee2d1bfcc7bf17907589,,,,,,,,,,,,
"[""comma""]",0,[0.20991999999932887],100,0,100,0,1,60eabc911fae7b77f861eaf5,Mężczyzna,45,2021-07-13_21h49.39.701,rantool2,2021.1.4,Win32,59.90534955,60eabc911fae7b77f861eaf5,60d9d14f4a8a35a482e0d9bf,60edee2d1bfcc7bf17907589,,,,,,,,,,,,
"[""period""]",0,[0.26413000000144393],101,0,101,0,1,60eabc911fae7b77f861eaf5,Mężczyzna,45,2021-07-13_21h49.39.701,rantool2,2021.1.4,Win32,59.90534955,60eabc911fae7b77f861eaf5,60d9d14f4a8a35a482e0d9bf,60edee2d1bfcc7bf17907589,,,,,,,,,,,,
"[""period""]",0,[0.2728999999999928],102,0,102,0,1,60eabc911fae7b77f861eaf5,Mężczyzna,45,2021-07-13_21h49.39.701,rantool2,2021.1.4,Win32,59.90534955,60eabc911fae7b77f861eaf5,60d9d14f4a8a35a482e0d9bf,60edee2d1bfcc7bf17907589,,,,,,,,,,,,
"[""period""]",0,[0.3378049999992072],103,0,103,0,1,60eabc911fae7b77f861eaf5,Mężczyzna,45,2021-07-13_21h49.39.701,rantool2,2021.1.4,Win32,59.90534955,60eabc911fae7b77f861eaf5,60d9d14f4a8a35a482e0d9bf,60edee2d1bfcc7bf17907589,,,,,,,,,,,,
"[""comma""]",0,[0.31414000000040687],104,0,104,0,1,60eabc911fae7b77f861eaf5,Mężczyzna,45,2021-07-13_21h49.39.701,rantool2,2021.1.4,Win32,59.90534955,60eabc911fae7b77f861eaf5,60d9d14f4a8a35a482e0d9bf,60edee2d1bfcc7bf17907589,,,,,,,,,,,,
"[""comma""]",0,[0.22569499999917753],105,0,105,0,1,60eabc911fae7b77f861eaf5,Mężczyzna,45,2021-07-13_21h49.39.701,rantool2,2021.1.4,Win32,59.90534955,60eabc911fae7b77f861eaf5,60d9d14f4a8a35a482e0d9bf,60edee2d1bfcc7bf17907589,,,,,,,,,,,,
"[""comma""]",0,[0.32512499999944566],106,0,106,0,1,60eabc911fae7b77f861eaf5,Mężczyzna,45,2021-07-13_21h49.39.701,rantool2,2021.1.4,Win32,59.90534955,60eabc911fae7b77f861eaf5,60d9d14f4a8a35a482e0d9bf,60edee2d1bfcc7bf17907589,,,,,,,,,,,,
"[""period""]",0,[0.29477499999842394],107,0,107,0,1,60eabc911fae7b77f861eaf5,Mężczyzna,45,2021-07-13_21h49.39.701,rantool2,2021.1.4,Win32,59.90534955,60eabc911fae7b77f861eaf5,60d9d14f4a8a35a482e0d9bf,60edee2d1bfcc7bf17907589,,,,,,,,,,,,
"[""comma""]",0,[0.2669999999997117],108,0,108,0,1,60eabc911fae7b77f861eaf5,Mężczyzna,45,2021-07-13_21h49.39.701,rantool2,2021.1.4,Win32,59.90534955,60eabc911fae7b77f861eaf5,60d9d14f4a8a35a482e0d9bf,60edee2d1bfcc7bf17907589,,,,,,,,,,,,
"[""comma""]",0,[0.5006149999990726],109,0,109,0,1,60eabc911fae7b77f861eaf5,Mężczyzna,45,2021-07-13_21h49.39.701,rantool2,2021.1.4,Win32,59.90534955,60eabc911fae7b77f861eaf5,60d9d14f4a8a35a482e0d9bf,60edee2d1bfcc7bf17907589,,,,,,,,,,,,
"[""period""]",0,[0.7351100000015549],110,0,110,0,1,60eabc911fae7b77f861eaf5,Mężczyzna,45,2021-07-13_21h49.39.701,rantool2,2021.1.4,Win32,59.90534955,60eabc911fae7b77f861eaf5,60d9d14f4a8a35a482e0d9bf,60edee2d1bfcc7bf17907589,,,,,,,,,,,,
"[""period""]",0,[0.6029500000004191],111,0,111,0,1,60eabc911fae7b77f861eaf5,Mężczyzna,45,2021-07-13_21h49.39.701,rantool2,2021.1.4,Win32,59.90534955,60eabc911fae7b77f861eaf5,60d9d14f4a8a35a482e0d9bf,60edee2d1bfcc7bf17907589,,,,,,,,,,,,
"[""period""]",0,[0.6684199999999691],112,0,112,0,1,60eabc911fae7b77f861eaf5,Mężczyzna,45,2021-07-13_21h49.39.701,rantool2,2021.1.4,Win32,59.90534955,60eabc911fae7b77f861eaf5,60d9d14f4a8a35a482e0d9bf,60edee2d1bfcc7bf17907589,,,,,,,,,,,,
"[""period""]",0,[0.651319999999032],113,0,113,0,1,60eabc911fae7b77f861eaf5,Mężczyzna,45,2021-07-13_21h49.39.701,rantool2,2021.1.4,Win32,59.90534955,60eabc911fae7b77f861eaf5,60d9d14f4a8a35a482e0d9bf,60edee2d1bfcc7bf17907589,,,,,,,,,,,,
"[""comma""]",0,[0.3003399999997214],114,0,114,0,1,60eabc911fae7b77f861eaf5,Mężczyzna,45,2021-07-13_21h49.39.701,rantool2,2021.1.4,Win32,59.90534955,60eabc911fae7b77f861eaf5,60d9d14f4a8a35a482e0d9bf,60edee2d1bfcc7bf17907589,,,,,,,,,,,,
"[""comma""]",0,[0.26671500000151127],115,0,115,0,1,60eabc911fae7b77f861eaf5,Mężczyzna,45,2021-07-13_21h49.39.701,rantool2,2021.1.4,Win32,59.90534955,60eabc911fae7b77f861eaf5,60d9d14f4a8a35a482e0d9bf,60edee2d1bfcc7bf17907589,,,,,,,,,,,,
"[""comma""]",0,[0.5168450000000462],116,0,116,0,1,60eabc911fae7b77f861eaf5,Mężczyzna,45,2021-07-13_21h49.39.701,rantool2,2021.1.4,Win32,59.90534955,60eabc911fae7b77f861eaf5,60d9d14f4a8a35a482e0d9bf,60edee2d1bfcc7bf17907589,,,,,,,,,,,,
"[""comma""]",0,[0.5576250000012806],117,0,117,0,1,60eabc911fae7b77f861eaf5,Mężczyzna,45,2021-07-13_21h49.39.701,rantool2,2021.1.4,Win32,59.90534955,60eabc911fae7b77f861eaf5,60d9d14f4a8a35a482e0d9bf,60edee2d1bfcc7bf17907589,,,,,,,,,,,,
"[""period""]",0,[1.3044199999985153],118,0,118,0,1,60eabc911fae7b77f861eaf5,Mężczyzna,45,2021-07-13_21h49.39.701,rantool2,2021.1.4,Win32,59.90534955,60eabc911fae7b77f861eaf5,60d9d14f4a8a35a482e0d9bf,60edee2d1bfcc7bf17907589,,,,,,,,,,,,
"[""period""]",0,[0.7602200000001176],119,0,119,0,1,60eabc911fae7b77f861eaf5,Mężczyzna,45,2021-07-13_21h49.39.701,rantool2,2021.1.4,Win32,59.90534955,60eabc911fae7b77f861eaf5,60d9d14f4a8a35a482e0d9bf,60edee2d1bfcc7bf17907589,,,,,,,,,,,,
,,,,,,,,60eabc911fae7b77f861eaf5,Mężczyzna,45,2021-07-13_21h49.39.701,rantool2,2021.1.4,Win32,59.90534955,60eabc911fae7b77f861eaf5,60d9d14f4a8a35a482e0d9bf,60edee2d1bfcc7bf17907589,j,1.44014,0,0,0,46,1,RORRROO,RORRROR,22.00300695,21.24781509,series_0
,,,,,,,,60eabc911fae7b77f861eaf5,Mężczyzna,45,2021-07-13_21h49.39.701,rantool2,2021.1.4,Win32,59.90534955,60eabc911fae7b77f861eaf5,60d9d14f4a8a35a482e0d9bf,60edee2d1bfcc7bf17907589,j,0.92294,0,1,1,59,1,RRRORRO,RRRORRR,21.56657303,20.89823192,series_0
,,,,,,,,60eabc911fae7b77f861eaf5,Mężczyzna,45,2021-07-13_21h49.39.701,rantool2,2021.1.4,Win32,59.90534955,60eabc911fae7b77f861eaf5,60d9d14f4a8a35a482e0d9bf,60edee2d1bfcc7bf17907589,f,0.651225,0,2,2,63,1,RRRRRRO,RRRRRRR,21.35278725,19.62521613,series_0
,,,,,,,,60eabc911fae7b77f861eaf5,Mężczyzna,45,2021-07-13_21h49.39.701,rantool2,2021.1.4,Win32,59.90534955,60eabc911fae7b77f861eaf5,60d9d14f4a8a35a482e0d9bf,60edee2d1bfcc7bf17907589,j,0.67469,0,3,3,3,1,OOOORRO,OOOORRR,20.90986523,21.74922619,series_1
,,,,,,,,60eabc911fae7b77f861eaf5,Mężczyzna,45,2021-07-13_21h49.39.701,rantool2,2021.1.4,Win32,59.90534955,60eabc911fae7b77f861eaf5,60d9d14f4a8a35a482e0d9bf,60edee2d1bfcc7bf17907589,f,0.747495,0,4,4,47,1,RORRRRO,RORRRRR,21.81333602,21.02936224,series_0
,,,,,,,,60eabc911fae7b77f861eaf5,Mężczyzna,45,2021-07-13_21h49.39.701,rantool2,2021.1.4,Win32,59.90534955,60eabc911fae7b77f861eaf5,60d9d14f4a8a35a482e0d9bf,60edee2d1bfcc7bf17907589,j,0.634255,0,5,5,31,1,ORRRRRO,ORRRRRR,22.16413392,20.74050628,series_0
,,,,,,,,60eabc911fae7b77f861eaf5,Mężczyzna,45,2021-07-13_21h49.39.701,rantool2,2021.1.4,Win32,59.90534955,60eabc911fae7b77f861eaf5,60d9d14f4a8a35a482e0d9bf,60edee2d1bfcc7bf17907589,f,0.591335,0,6,6,32,1,ROOOOOO,ROOOOOR,19.92253567,21.27974287,series_1
,,,,,,,,60eabc911fae7b77f861eaf5,Mężczyzna,45,2021-07-13_21h49.39.701,rantool2,2021.1.4,Win32,59.90534955,60eabc911fae7b77f861eaf5,60d9d14f4a8a35a482e0d9bf,60edee2d1bfcc7bf17907589,f,0.48456,0,7,7,34,1,ROOOROO,ROOOROR,21.03750787,21.24781509,series_1
,,,,,,,,60eabc911fae7b77f861eaf5,Mężczyzna,45,2021-07-13_21h49.39.701,rantool2,2021.1.4,Win32,59.90534955,60eabc911fae7b77f861eaf5,60d9d14f4a8a35a482e0d9bf,60edee2d1bfcc7bf17907589,f,0.482935,0,8,8,10,1,OOROROO,OOROROR,21.31236711,21.07490964,series_0
,,,,,,,,60eabc911fae7b77f861eaf5,Mężczyzna,45,2021-07-13_21h49.39.701,rantool2,2021.1.4,Win32,59.90534955,60eabc911fae7b77f861eaf5,60d9d14f4a8a35a482e0d9bf,60edee2d1bfcc7bf17907589,j,0.51715,0,9,9,56,1,RRROOOO,RRROOOR,21.6194508,22.31681875,series_1
,,,,,,,,60eabc911fae7b77f861eaf5,Mężczyzna,45,2021-07-13_21h49.39.701,rantool2,2021.1.4,Win32,59.90534955,60eabc911fae7b77f861eaf5,60d9d14f4a8a35a482e0d9bf,60edee2d1bfcc7bf17907589,j,0.467175,0,10,10,44,1,RORROOO,RORROOR,21.66733484,22.02566557,series_1
,,,,,,,,60eabc911fae7b77f861eaf5,Mężczyzna,45,2021-07-13_21h49.39.701,rantool2,2021.1.4,Win32,59.90534955,60eabc911fae7b77f861eaf5,60d9d14f4a8a35a482e0d9bf,60edee2d1bfcc7bf17907589,j,0.415115,0,11,11,55,1,RRORRRO,RRORRRR,21.56657303,21.21223021,series_0
,,,,,,,,60eabc911fae7b77f861eaf5,Mężczyzna,45,2021-07-13_21h49.39.701,rantool2,2021.1.4,Win32,59.90534955,60eabc911fae7b77f861eaf5,60d9d14f4a8a35a482e0d9bf,60edee2d1bfcc7bf17907589,f,0.37275,0,12,12,5,1,OOORORO,OOORORR,20.87963819,21.9921709,series_1
,,,,,,,,60eabc911fae7b77f861eaf5,Mężczyzna,45,2021-07-13_21h49.39.701,rantool2,2021.1.4,Win32,59.90534955,60eabc911fae7b77f861eaf5,60d9d14f4a8a35a482e0d9bf,60edee2d1bfcc7bf17907589,j,0.40589,0,13,13,42,1,ROROROO,ROROROR,20.39515459,19.8361834,series_0
,,,,,,,,60eabc911fae7b77f861eaf5,Mężczyzna,45,2021-07-13_21h49.39.701,rantool2,2021.1.4,Win32,59.90534955,60eabc911fae7b77f861eaf5,60d9d14f4a8a35a482e0d9bf,60edee2d1bfcc7bf17907589,f,0.34233,0,14,14,14,1,OORRROO,OORRROR,22.24142883,22.16977179,series_0
,,,,,,,,60eabc911fae7b77f861eaf5,Mężczyzna,45,2021-07-13_21h49.39.701,rantool2,2021.1.4,Win32,59.90534955,60eabc911fae7b77f861eaf5,60d9d14f4a8a35a482e0d9bf,60edee2d1bfcc7bf17907589,j,0.265465,0,15,15,8,1,OOROOOO,OOROOOR,19.91402015,20.89823192,series_1
,,,,,,,,60eabc911fae7b77f861eaf5,Mężczyzna,45,2021-07-13_21h49.39.701,rantool2,2021.1.4,Win32,59.90534955,60eabc911fae7b77f861eaf5,60d9d14f4a8a35a482e0d9bf,60edee2d1bfcc7bf17907589,f,0.10221,0,16,16,12,1,OORROOO,OORROOR,21.30250474,22.02786418,series_1
,,,,,,,,60eabc911fae7b77f861eaf5,Mężczyzna,45,2021-07-13_21h49.39.701,rantool2,2021.1.4,Win32,59.90534955,60eabc911fae7b77f861eaf5,60d9d14f4a8a35a482e0d9bf,60edee2d1bfcc7bf17907589,j,0.196555,0,17,17,18,1,OROOROO,OROOROR,20.84860893,21.22513037,series_1
,,,,,,,,60eabc911fae7b77f861eaf5,Mężczyzna,45,2021-07-13_21h49.39.701,rantool2,2021.1.4,Win32,59.90534955,60eabc911fae7b77f861eaf5,60d9d14f4a8a35a482e0d9bf,60edee2d1bfcc7bf17907589,f,0.10058,0,18,18,13,1,OORRORO,OORRORR,21.66733484,22.11181017,series_1
,,,,,,,,60eabc911fae7b77f861eaf5,Mężczyzna,45,2021-07-13_21h49.39.701,rantool2,2021.1.4,Win32,59.90534955,60eabc911fae7b77f861eaf5,60d9d14f4a8a35a482e0d9bf,60edee2d1bfcc7bf17907589,j,0.139675,0,19,19,11,1,OORORRO,OORORRR,22.18365867,22.6797523,series_1
,,,,,,,,60eabc911fae7b77f861eaf5,Mężczyzna,45,2021-07-13_21h49.39.701,rantool2,2021.1.4,Win32,59.90534955,60eabc911fae7b77f861eaf5,60d9d14f4a8a35a482e0d9bf,60edee2d1bfcc7bf17907589,f,0.10153,0,20,20,48,1,RROOOOO,RROOOOR,20.90986523,22.15934078,series_1
,,,,,,,,60eabc911fae7b77f861eaf5,Mężczyzna,45,2021-07-13_21h49.39.701,rantool2,2021.1.4,Win32,59.90534955,60eabc911fae7b77f861eaf5,60d9d14f4a8a35a482e0d9bf,60edee2d1bfcc7bf17907589,j,0.13398,0,21,21,37,1,ROORORO,ROORORR,20.42602454,21.57657071,series_1
,,,,,,,,60eabc911fae7b77f861eaf5,Mężczyzna,45,2021-07-13_21h49.39.701,rantool2,2021.1.4,Win32,59.90534955,60eabc911fae7b77f861eaf5,60d9d14f4a8a35a482e0d9bf,60edee2d1bfcc7bf17907589,f,0.11837,0,22,22,40,1,ROROOOO,ROROOOR,20.87963819,21.37121559,series_1
,,,,,,,,60eabc911fae7b77f861eaf5,Mężczyzna,45,2021-07-13_21h49.39.701,rantool2,2021.1.4,Win32,59.90534955,60eabc911fae7b77f861eaf5,60d9d14f4a8a35a482e0d9bf,60edee2d1bfcc7bf17907589,j,0.11702,0,23,23,51,1,RROORRO,RROORRR,21.89852628,22.02786418,series_1
,,,,,,,,60eabc911fae7b77f861eaf5,Mężczyzna,45,2021-07-13_21h49.39.701,rantool2,2021.1.4,Win32,59.90534955,60eabc911fae7b77f861eaf5,60d9d14f4a8a35a482e0d9bf,60edee2d1bfcc7bf17907589,j,0.201925,0,24,24,24,1,ORROOOO,ORROOOR,21.12383932,22.07102821,series_1
,,,,,,,,60eabc911fae7b77f861eaf5,Mężczyzna,45,2021-07-13_21h49.39.701,rantool2,2021.1.4,Win32,59.90534955,60eabc911fae7b77f861eaf5,60d9d14f4a8a35a482e0d9bf,60edee2d1bfcc7bf17907589,j,0.171975,0,25,25,58,1,RRROROO,RRROROR,22.1285618,21.37121559,series_0
,,,,,,,,60eabc911fae7b77f861eaf5,Mężczyzna,45,2021-07-13_21h49.39.701,rantool2,2021.1.4,Win32,59.90534955,60eabc911fae7b77f861eaf5,60d9d14f4a8a35a482e0d9bf,60edee2d1bfcc7bf17907589,j,0.15058,0,26,26,29,1,ORRRORO,ORRRORR,22.00300695,22.12173012,series_1
,,,,,,,,60eabc911fae7b77f861eaf5,Mężczyzna,45,2021-07-13_21h49.39.701,rantool2,2021.1.4,Win32,59.90534955,60eabc911fae7b77f861eaf5,60d9d14f4a8a35a482e0d9bf,60edee2d1bfcc7bf17907589,j,0.137745,0,27,27,30,1,ORRRROO,ORRRROR,22.46748491,22.03072203,series_0
,,,,,,,,60eabc911fae7b77f861eaf5,Mężczyzna,45,2021-07-13_21h49.39.701,rantool2,2021.1.4,Win32,59.90534955,60eabc911fae7b77f861eaf5,60d9d14f4a8a35a482e0d9bf,60edee2d1bfcc7bf17907589,j,0.167215,0,28,28,9,1,OOROORO,OOROORR,21.07991943,22.2428857,series_1
,,,,,,,,60eabc911fae7b77f861eaf5,Mężczyzna,45,2021-07-13_21h49.39.701,rantool2,2021.1.4,Win32,59.90534955,60eabc911fae7b77f861eaf5,60d9d14f4a8a35a482e0d9bf,60edee2d1bfcc7bf17907589,j,0.15021,0,29,29,52,1,RROROOO,RROROOR,22.18365867,22.11097995,series_0
,,,,,,,,60eabc911fae7b77f861eaf5,Mężczyzna,45,2021-07-13_21h49.39.701,rantool2,2021.1.4,Win32,59.90534955,60eabc911fae7b77f861eaf5,60d9d14f4a8a35a482e0d9bf,60edee2d1bfcc7bf17907589,j,0.11825,0,30,30,61,1,RRRRORO,RRRRORR,21.81333602,21.17347734,series_0
,,,,,,,,60eabc911fae7b77f861eaf5,Mężczyzna,45,2021-07-13_21h49.39.701,rantool2,2021.1.4,Win32,59.90534955,60eabc911fae7b77f861eaf5,60d9d14f4a8a35a482e0d9bf,60edee2d1bfcc7bf17907589,f,0.119365,0,31,31,21,1,ORORORO,ORORORR,20.39515459,22.06781359,series_1
,,,,,,,,60eabc911fae7b77f861eaf5,Mężczyzna,45,2021-07-13_21h49.39.701,rantool2,2021.1.4,Win32,59.90534955,60eabc911fae7b77f861eaf5,60d9d14f4a8a35a482e0d9bf,60edee2d1bfcc7bf17907589,j,0.18413,0,32,32,57,1,RRROORO,RRROORR,21.82425538,22.07102821,series_1
,,,,,,,,60eabc911fae7b77f861eaf5,Mężczyzna,45,2021-07-13_21h49.39.701,rantool2,2021.1.4,Win32,59.90534955,60eabc911fae7b77f861eaf5,60d9d14f4a8a35a482e0d9bf,60edee2d1bfcc7bf17907589,j,0.15054,0,33,33,33,1,ROOOORO,ROOOORR,20.83779602,22.03072203,series_1
,,,,,,,,60eabc911fae7b77f861eaf5,Mężczyzna,45,2021-07-13_21h49.39.701,rantool2,2021.1.4,Win32,59.90534955,60eabc911fae7b77f861eaf5,60d9d14f4a8a35a482e0d9bf,60edee2d1bfcc7bf17907589,j,0.168635,0,34,34,17,1,OROOORO,OROOORR,21.03750787,22.12173012,series_1
,,,,,,,,60eabc911fae7b77f861eaf5,Mężczyzna,45,2021-07-13_21h49.39.701,rantool2,2021.1.4,Win32,59.90534955,60eabc911fae7b77f861eaf5,60d9d14f4a8a35a482e0d9bf,60edee2d1bfcc7bf17907589,j,0.1559,0,35,35,39,1,ROORRRO,ROORRRR,21.82425538,21.38562617,series_0
,,,,,,,,60eabc911fae7b77f861eaf5,Mężczyzna,45,2021-07-13_21h49.39.701,rantool2,2021.1.4,Win32,59.90534955,60eabc911fae7b77f861eaf5,60d9d14f4a8a35a482e0d9bf,60edee2d1bfcc7bf17907589,f,0.116305,0,36,36,45,1,RORRORO,RORRORR,20.78182524,21.22513037,series_1
,,,,,,,,60eabc911fae7b77f861eaf5,Mężczyzna,45,2021-07-13_21h49.39.701,rantool2,2021.1.4,Win32,59.90534955,60eabc911fae7b77f861eaf5,60d9d14f4a8a35a482e0d9bf,60edee2d1bfcc7bf17907589,f,0.200815,0,37,37,20,1,OROROOO,OROROOR,21.31236711,21.90565814,series_1
,,,,,,,,60eabc911fae7b77f861eaf5,Mężczyzna,45,2021-07-13_21h49.39.701,rantool2,2021.1.4,Win32,59.90534955,60eabc911fae7b77f861eaf5,60d9d14f4a8a35a482e0d9bf,60edee2d1bfcc7bf17907589,f,0.133935,0,38,38,62,1,RRRRROO,RRRRROR,22.16413392,21.27974287,series_0
,,,,,,,,60eabc911fae7b77f861eaf5,Mężczyzna,45,2021-07-13_21h49.39.701,rantool2,2021.1.4,Win32,59.90534955,60eabc911fae7b77f861eaf5,60d9d14f4a8a35a482e0d9bf,60edee2d1bfcc7bf17907589,j,0.106385,0,39,39,49,1,RROOORO,RROOORR,21.76276513,22.53364006,series_1
,,,,,,,,60eabc911fae7b77f861eaf5,Mężczyzna,45,2021-07-13_21h49.39.701,rantool2,2021.1.4,Win32,59.90534955,60eabc911fae7b77f861eaf5,60d9d14f4a8a35a482e0d9bf,60edee2d1bfcc7bf17907589,j,0.16725,0,40,40,43,1,RORORRO,RORORRR,20.71309134,21.07490964,series_1
,,,,,,,,60eabc911fae7b77f861eaf5,Mężczyzna,45,2021-07-13_21h49.39.701,rantool2,2021.1.4,Win32,59.90534955,60eabc911fae7b77f861eaf5,60d9d14f4a8a35a482e0d9bf,60edee2d1bfcc7bf17907589,j,0.140295,0,41,41,53,1,RRORORO,RRORORR,20.71309134,21.90565814,series_1
,,,,,,,,60eabc911fae7b77f861eaf5,Mężczyzna,45,2021-07-13_21h49.39.701,rantool2,2021.1.4,Win32,59.90534955,60eabc911fae7b77f861eaf5,60d9d14f4a8a35a482e0d9bf,60edee2d1bfcc7bf17907589,j,0.125635,0,42,42,0,1,OOOOOOO,OOOOOOR,18.52739004,19.62521613,series_1
,,,,,,,,60eabc911fae7b77f861eaf5,Mężczyzna,45,2021-07-13_21h49.39.701,rantool2,2021.1.4,Win32,59.90534955,60eabc911fae7b77f861eaf5,60d9d14f4a8a35a482e0d9bf,60edee2d1bfcc7bf17907589,f,0.133975,0,43,43,16,1,OROOOOO,OROOOOR,20.43051175,21.17347734,series_1
,,,,,,,,60eabc911fae7b77f861eaf5,Mężczyzna,45,2021-07-13_21h49.39.701,rantool2,2021.1.4,Win32,59.90534955,60eabc911fae7b77f861eaf5,60d9d14f4a8a35a482e0d9bf,60edee2d1bfcc7bf17907589,f,0.15177,0,44,44,1,1,OOOOORO,OOOOORR,19.92253567,20.74050628,series_1
,,,,,,,,60eabc911fae7b77f861eaf5,Mężczyzna,45,2021-07-13_21h49.39.701,rantool2,2021.1.4,Win32,59.90534955,60eabc911fae7b77f861eaf5,60d9d14f4a8a35a482e0d9bf,60edee2d1bfcc7bf17907589,j,0.150405,0,45,45,23,1,ORORRRO,ORORRRR,22.1285618,21.9921709,series_0
,,,,,,,,60eabc911fae7b77f861eaf5,Mężczyzna,45,2021-07-13_21h49.39.701,rantool2,2021.1.4,Win32,59.90534955,60eabc911fae7b77f861eaf5,60d9d14f4a8a35a482e0d9bf,60edee2d1bfcc7bf17907589,j,0.167575,0,46,46,25,1,ORROORO,ORROORR,21.79500819,22.61624387,series_1
,,,,,,,,60eabc911fae7b77f861eaf5,Mężczyzna,45,2021-07-13_21h49.39.701,rantool2,2021.1.4,Win32,59.90534955,60eabc911fae7b77f861eaf5,60d9d14f4a8a35a482e0d9bf,60edee2d1bfcc7bf17907589,j,0.150145,0,47,47,7,1,OOORRRO,OOORRRR,21.6194508,21.899017,series_1
,,,,,,,,60eabc911fae7b77f861eaf5,Mężczyzna,45,2021-07-13_21h49.39.701,rantool2,2021.1.4,Win32,59.90534955,60eabc911fae7b77f861eaf5,60d9d14f4a8a35a482e0d9bf,60edee2d1bfcc7bf17907589,j,0.117125,0,48,48,27,1,ORRORRO,ORRORRR,21.55250791,22.2428857,series_1
,,,,,,,,60eabc911fae7b77f861eaf5,Mężczyzna,45,2021-07-13_21h49.39.701,rantool2,2021.1.4,Win32,59.90534955,60eabc911fae7b77f861eaf5,60d9d14f4a8a35a482e0d9bf,60edee2d1bfcc7bf17907589,f,0.04143,0,49,49,26,1,ORROROO,ORROROR,22.02732763,21.71443381,series_0
,,,,,,,,60eabc911fae7b77f861eaf5,Mężczyzna,45,2021-07-13_21h49.39.701,rantool2,2021.1.4,Win32,59.90534955,60eabc911fae7b77f861eaf5,60d9d14f4a8a35a482e0d9bf,60edee2d1bfcc7bf17907589,j,0.3047,0,50,50,41,1,ROROORO,ROROORR,20.42602454,21.71443381,series_1
,,,,,,,,60eabc911fae7b77f861eaf5,Mężczyzna,45,2021-07-13_21h49.39.701,rantool2,2021.1.4,Win32,59.90534955,60eabc911fae7b77f861eaf5,60d9d14f4a8a35a482e0d9bf,60edee2d1bfcc7bf17907589,j,0.16831,0,51,51,19,1,OROORRO,OROORRR,21.73568164,22.11181017,series_1
,,,,,,,,60eabc911fae7b77f861eaf5,Mężczyzna,45,2021-07-13_21h49.39.701,rantool2,2021.1.4,Win32,59.90534955,60eabc911fae7b77f861eaf5,60d9d14f4a8a35a482e0d9bf,60edee2d1bfcc7bf17907589,j,0.1426,0,52,52,28,1,ORRROOO,ORRROOR,22.24142883,22.53364006,series_1
,,,,,,,,60eabc911fae7b77f861eaf5,Mężczyzna,45,2021-07-13_21h49.39.701,rantool2,2021.1.4,Win32,59.90534955,60eabc911fae7b77f861eaf5,60d9d14f4a8a35a482e0d9bf,60edee2d1bfcc7bf17907589,f,0.171785,0,53,53,6,1,OOORROO,OOORROR,21.12383932,21.38562617,series_1
,,,,,,,,60eabc911fae7b77f861eaf5,Mężczyzna,45,2021-07-13_21h49.39.701,rantool2,2021.1.4,Win32,59.90534955,60eabc911fae7b77f861eaf5,60d9d14f4a8a35a482e0d9bf,60edee2d1bfcc7bf17907589,j,0.150215,0,54,54,54,1,RRORROO,RRORROR,21.55250791,20.9984461,series_0
,,,,,,,,60eabc911fae7b77f861eaf5,Mężczyzna,45,2021-07-13_21h49.39.701,rantool2,2021.1.4,Win32,59.90534955,60eabc911fae7b77f861eaf5,60d9d14f4a8a35a482e0d9bf,60edee2d1bfcc7bf17907589,j,0.168145,0,55,55,22,1,ORORROO,ORORROR,22.02732763,21.57657071,series_0
,,,,,,,,60eabc911fae7b77f861eaf5,Mężczyzna,45,2021-07-13_21h49.39.701,rantool2,2021.1.4,Win32,59.90534955,60eabc911fae7b77f861eaf5,60d9d14f4a8a35a482e0d9bf,60edee2d1bfcc7bf17907589,j,0.143085,0,56,56,50,1,RROOROO,RROOROR,21.73568164,22.02566557,series_1
,,,,,,,,60eabc911fae7b77f861eaf5,Mężczyzna,45,2021-07-13_21h49.39.701,rantool2,2021.1.4,Win32,59.90534955,60eabc911fae7b77f861eaf5,60d9d14f4a8a35a482e0d9bf,60edee2d1bfcc7bf17907589,j,0.15043,0,57,57,60,1,RRRROOO,RRRROOR,22.10108823,22.15934078,series_1
,,,,,,,,60eabc911fae7b77f861eaf5,Mężczyzna,45,2021-07-13_21h49.39.701,rantool2,2021.1.4,Win32,59.90534955,60eabc911fae7b77f861eaf5,60d9d14f4a8a35a482e0d9bf,60edee2d1bfcc7bf17907589,j,0.117345,0,58,58,38,1,ROORROO,ROORROR,21.79500819,21.36812781,series_0
,,,,,,,,60eabc911fae7b77f861eaf5,Mężczyzna,45,2021-07-13_21h49.39.701,rantool2,2021.1.4,Win32,59.90534955,60eabc911fae7b77f861eaf5,60d9d14f4a8a35a482e0d9bf,60edee2d1bfcc7bf17907589,f,0.04129,0,59,59,4,1,OOOROOO,OOOROOR,19.91402015,21.21223021,series_1
,,,,,,,,60eabc911fae7b77f861eaf5,Mężczyzna,45,2021-07-13_21h49.39.701,rantool2,2021.1.4,Win32,59.90534955,60eabc911fae7b77f861eaf5,60d9d14f4a8a35a482e0d9bf,60edee2d1bfcc7bf17907589,f,0.233825,0,60,60,35,1,ROOORRO,ROOORRR,21.76276513,22.16977179,series_1
,,,,,,,,60eabc911fae7b77f861eaf5,Mężczyzna,45,2021-07-13_21h49.39.701,rantool2,2021.1.4,Win32,59.90534955,60eabc911fae7b77f861eaf5,60d9d14f4a8a35a482e0d9bf,60edee2d1bfcc7bf17907589,f,0.27184,0,61,61,2,1,OOOOROO,OOOOROR,20.43051175,21.02936224,series_1
,,,,,,,,60eabc911fae7b77f861eaf5,Mężczyzna,45,2021-07-13_21h49.39.701,rantool2,2021.1.4,Win32,59.90534955,60eabc911fae7b77f861eaf5,60d9d14f4a8a35a482e0d9bf,60edee2d1bfcc7bf17907589,j,0.204915,0,62,62,15,1,OORRRRO,OORRRRR,22.10108823,21.74922619,series_0
,,,,,,,,60eabc911fae7b77f861eaf5,Mężczyzna,45,2021-07-13_21h49.39.701,rantool2,2021.1.4,Win32,59.90534955,60eabc911fae7b77f861eaf5,60d9d14f4a8a35a482e0d9bf,60edee2d1bfcc7bf17907589,j,0.16702,0,63,63,36,1,ROOROOO,ROOROOR,21.07991943,20.9984461,series_0
