key_resp_7.keys,key_resp_7.rt,trials_2.thisRepN,trials_2.thisTrialN,trials_2.thisN,trials_2.thisIndex,trials_2.ran,id,series_0,series_1,acss_0,acss_1,comparison,id*,Płeć*,Wiek*,date,expName,psychopyVersion,OS,frameRate,STUDY_ID,SESSION_ID,key_resp_5.keys,key_resp_5.corr,key_resp_5.rt,trials.thisRepN,trials.thisTrialN,trials.thisN,trials.thisIndex,trials.ran
f,2.863,0,0,0,56,1,5f885bf60fdd0c2f49d2ca70,RRROOOO,RRROOOR,21.6194508,22.31681875,series_1,5f885bf60fdd0c2f49d2ca70,Mężczyzna,19,2021-09-06_19h14.26.105,rantool2,2021.1.4,Win32,60.0240096,6135e006383e6ea6c3d06a28,61364c3fc6378c2a35caa135,,,,,,,,
f,2.535,0,1,1,1,1,5f885bf60fdd0c2f49d2ca70,OOOOORO,OOOOORR,19.92253567,20.74050628,series_1,5f885bf60fdd0c2f49d2ca70,Mężczyzna,19,2021-09-06_19h14.26.105,rantool2,2021.1.4,Win32,60.0240096,6135e006383e6ea6c3d06a28,61364c3fc6378c2a35caa135,,,,,,,,
f,2.3,0,2,2,4,1,5f885bf60fdd0c2f49d2ca70,OOOROOO,OOOROOR,19.91402015,21.21223021,series_1,5f885bf60fdd0c2f49d2ca70,Mężczyzna,19,2021-09-06_19h14.26.105,rantool2,2021.1.4,Win32,60.0240096,6135e006383e6ea6c3d06a28,61364c3fc6378c2a35caa135,,,,,,,,
j,2.235,0,3,3,8,1,5f885bf60fdd0c2f49d2ca70,OOROOOO,OOROOOR,19.91402015,20.89823192,series_1,5f885bf60fdd0c2f49d2ca70,Mężczyzna,19,2021-09-06_19h14.26.105,rantool2,2021.1.4,Win32,60.0240096,6135e006383e6ea6c3d06a28,61364c3fc6378c2a35caa135,,,,,,,,
f,1.953,0,4,4,39,1,5f885bf60fdd0c2f49d2ca70,ROORRRO,ROORRRR,21.82425538,21.38562617,series_0,5f885bf60fdd0c2f49d2ca70,Mężczyzna,19,2021-09-06_19h14.26.105,rantool2,2021.1.4,Win32,60.0240096,6135e006383e6ea6c3d06a28,61364c3fc6378c2a35caa135,,,,,,,,
j,1.88,0,5,5,7,1,5f885bf60fdd0c2f49d2ca70,OOORRRO,OOORRRR,21.6194508,21.899017,series_1,5f885bf60fdd0c2f49d2ca70,Mężczyzna,19,2021-09-06_19h14.26.105,rantool2,2021.1.4,Win32,60.0240096,6135e006383e6ea6c3d06a28,61364c3fc6378c2a35caa135,,,,,,,,
f,1.769,0,6,6,63,1,5f885bf60fdd0c2f49d2ca70,RRRRRRO,RRRRRRR,21.35278725,19.62521613,series_0,5f885bf60fdd0c2f49d2ca70,Mężczyzna,19,2021-09-06_19h14.26.105,rantool2,2021.1.4,Win32,60.0240096,6135e006383e6ea6c3d06a28,61364c3fc6378c2a35caa135,,,,,,,,
j,1.889,0,7,7,33,1,5f885bf60fdd0c2f49d2ca70,ROOOORO,ROOOORR,20.83779602,22.03072203,series_1,5f885bf60fdd0c2f49d2ca70,Mężczyzna,19,2021-09-06_19h14.26.105,rantool2,2021.1.4,Win32,60.0240096,6135e006383e6ea6c3d06a28,61364c3fc6378c2a35caa135,,,,,,,,
j,2.368,0,8,8,18,1,5f885bf60fdd0c2f49d2ca70,OROOROO,OROOROR,20.84860893,21.22513037,series_1,5f885bf60fdd0c2f49d2ca70,Mężczyzna,19,2021-09-06_19h14.26.105,rantool2,2021.1.4,Win32,60.0240096,6135e006383e6ea6c3d06a28,61364c3fc6378c2a35caa135,,,,,,,,
j,2.102,0,9,9,13,1,5f885bf60fdd0c2f49d2ca70,OORRORO,OORRORR,21.66733484,22.11181017,series_1,5f885bf60fdd0c2f49d2ca70,Mężczyzna,19,2021-09-06_19h14.26.105,rantool2,2021.1.4,Win32,60.0240096,6135e006383e6ea6c3d06a28,61364c3fc6378c2a35caa135,,,,,,,,
f,2.005,0,10,10,29,1,5f885bf60fdd0c2f49d2ca70,ORRRORO,ORRRORR,22.00300695,22.12173012,series_1,5f885bf60fdd0c2f49d2ca70,Mężczyzna,19,2021-09-06_19h14.26.105,rantool2,2021.1.4,Win32,60.0240096,6135e006383e6ea6c3d06a28,61364c3fc6378c2a35caa135,,,,,,,,
f,1.856,0,11,11,54,1,5f885bf60fdd0c2f49d2ca70,RRORROO,RRORROR,21.55250791,20.9984461,series_0,5f885bf60fdd0c2f49d2ca70,Mężczyzna,19,2021-09-06_19h14.26.105,rantool2,2021.1.4,Win32,60.0240096,6135e006383e6ea6c3d06a28,61364c3fc6378c2a35caa135,,,,,,,,
f,1.935,0,12,12,37,1,5f885bf60fdd0c2f49d2ca70,ROORORO,ROORORR,20.42602454,21.57657071,series_1,5f885bf60fdd0c2f49d2ca70,Mężczyzna,19,2021-09-06_19h14.26.105,rantool2,2021.1.4,Win32,60.0240096,6135e006383e6ea6c3d06a28,61364c3fc6378c2a35caa135,,,,,,,,
f,2.536,0,13,13,50,1,5f885bf60fdd0c2f49d2ca70,RROOROO,RROOROR,21.73568164,22.02566557,series_1,5f885bf60fdd0c2f49d2ca70,Mężczyzna,19,2021-09-06_19h14.26.105,rantool2,2021.1.4,Win32,60.0240096,6135e006383e6ea6c3d06a28,61364c3fc6378c2a35caa135,,,,,,,,
j,1.919,0,14,14,14,1,5f885bf60fdd0c2f49d2ca70,OORRROO,OORRROR,22.24142883,22.16977179,series_0,5f885bf60fdd0c2f49d2ca70,Mężczyzna,19,2021-09-06_19h14.26.105,rantool2,2021.1.4,Win32,60.0240096,6135e006383e6ea6c3d06a28,61364c3fc6378c2a35caa135,,,,,,,,
j,2.006,0,15,15,46,1,5f885bf60fdd0c2f49d2ca70,RORRROO,RORRROR,22.00300695,21.24781509,series_0,5f885bf60fdd0c2f49d2ca70,Mężczyzna,19,2021-09-06_19h14.26.105,rantool2,2021.1.4,Win32,60.0240096,6135e006383e6ea6c3d06a28,61364c3fc6378c2a35caa135,,,,,,,,
f,2.651,0,16,16,2,1,5f885bf60fdd0c2f49d2ca70,OOOOROO,OOOOROR,20.43051175,21.02936224,series_1,5f885bf60fdd0c2f49d2ca70,Mężczyzna,19,2021-09-06_19h14.26.105,rantool2,2021.1.4,Win32,60.0240096,6135e006383e6ea6c3d06a28,61364c3fc6378c2a35caa135,,,,,,,,
j,2.25,0,17,17,28,1,5f885bf60fdd0c2f49d2ca70,ORRROOO,ORRROOR,22.24142883,22.53364006,series_1,5f885bf60fdd0c2f49d2ca70,Mężczyzna,19,2021-09-06_19h14.26.105,rantool2,2021.1.4,Win32,60.0240096,6135e006383e6ea6c3d06a28,61364c3fc6378c2a35caa135,,,,,,,,
f,2.533,0,18,18,26,1,5f885bf60fdd0c2f49d2ca70,ORROROO,ORROROR,22.02732763,21.71443381,series_0,5f885bf60fdd0c2f49d2ca70,Mężczyzna,19,2021-09-06_19h14.26.105,rantool2,2021.1.4,Win32,60.0240096,6135e006383e6ea6c3d06a28,61364c3fc6378c2a35caa135,,,,,,,,
f,2.391,0,19,19,45,1,5f885bf60fdd0c2f49d2ca70,RORRORO,RORRORR,20.78182524,21.22513037,series_1,5f885bf60fdd0c2f49d2ca70,Mężczyzna,19,2021-09-06_19h14.26.105,rantool2,2021.1.4,Win32,60.0240096,6135e006383e6ea6c3d06a28,61364c3fc6378c2a35caa135,,,,,,,,
f,2.718,0,20,20,35,1,5f885bf60fdd0c2f49d2ca70,ROOORRO,ROOORRR,21.76276513,22.16977179,series_1,5f885bf60fdd0c2f49d2ca70,Mężczyzna,19,2021-09-06_19h14.26.105,rantool2,2021.1.4,Win32,60.0240096,6135e006383e6ea6c3d06a28,61364c3fc6378c2a35caa135,,,,,,,,
j,4.061,0,21,21,55,1,5f885bf60fdd0c2f49d2ca70,RRORRRO,RRORRRR,21.56657303,21.21223021,series_0,5f885bf60fdd0c2f49d2ca70,Mężczyzna,19,2021-09-06_19h14.26.105,rantool2,2021.1.4,Win32,60.0240096,6135e006383e6ea6c3d06a28,61364c3fc6378c2a35caa135,,,,,,,,
f,2.528,0,22,22,62,1,5f885bf60fdd0c2f49d2ca70,RRRRROO,RRRRROR,22.16413392,21.27974287,series_0,5f885bf60fdd0c2f49d2ca70,Mężczyzna,19,2021-09-06_19h14.26.105,rantool2,2021.1.4,Win32,60.0240096,6135e006383e6ea6c3d06a28,61364c3fc6378c2a35caa135,,,,,,,,
f,3.375,0,23,23,38,1,5f885bf60fdd0c2f49d2ca70,ROORROO,ROORROR,21.79500819,21.36812781,series_0,5f885bf60fdd0c2f49d2ca70,Mężczyzna,19,2021-09-06_19h14.26.105,rantool2,2021.1.4,Win32,60.0240096,6135e006383e6ea6c3d06a28,61364c3fc6378c2a35caa135,,,,,,,,
f,3.04,0,24,24,44,1,5f885bf60fdd0c2f49d2ca70,RORROOO,RORROOR,21.66733484,22.02566557,series_1,5f885bf60fdd0c2f49d2ca70,Mężczyzna,19,2021-09-06_19h14.26.105,rantool2,2021.1.4,Win32,60.0240096,6135e006383e6ea6c3d06a28,61364c3fc6378c2a35caa135,,,,,,,,
j,3.618,0,25,25,48,1,5f885bf60fdd0c2f49d2ca70,RROOOOO,RROOOOR,20.90986523,22.15934078,series_1,5f885bf60fdd0c2f49d2ca70,Mężczyzna,19,2021-09-06_19h14.26.105,rantool2,2021.1.4,Win32,60.0240096,6135e006383e6ea6c3d06a28,61364c3fc6378c2a35caa135,,,,,,,,
f,3.201,0,26,26,11,1,5f885bf60fdd0c2f49d2ca70,OORORRO,OORORRR,22.18365867,22.6797523,series_1,5f885bf60fdd0c2f49d2ca70,Mężczyzna,19,2021-09-06_19h14.26.105,rantool2,2021.1.4,Win32,60.0240096,6135e006383e6ea6c3d06a28,61364c3fc6378c2a35caa135,,,,,,,,
j,2.443,0,27,27,17,1,5f885bf60fdd0c2f49d2ca70,OROOORO,OROOORR,21.03750787,22.12173012,series_1,5f885bf60fdd0c2f49d2ca70,Mężczyzna,19,2021-09-06_19h14.26.105,rantool2,2021.1.4,Win32,60.0240096,6135e006383e6ea6c3d06a28,61364c3fc6378c2a35caa135,,,,,,,,
f,2.691,0,28,28,27,1,5f885bf60fdd0c2f49d2ca70,ORRORRO,ORRORRR,21.55250791,22.2428857,series_1,5f885bf60fdd0c2f49d2ca70,Mężczyzna,19,2021-09-06_19h14.26.105,rantool2,2021.1.4,Win32,60.0240096,6135e006383e6ea6c3d06a28,61364c3fc6378c2a35caa135,,,,,,,,
j,2.994,0,29,29,6,1,5f885bf60fdd0c2f49d2ca70,OOORROO,OOORROR,21.12383932,21.38562617,series_1,5f885bf60fdd0c2f49d2ca70,Mężczyzna,19,2021-09-06_19h14.26.105,rantool2,2021.1.4,Win32,60.0240096,6135e006383e6ea6c3d06a28,61364c3fc6378c2a35caa135,,,,,,,,
f,2.911,0,30,30,61,1,5f885bf60fdd0c2f49d2ca70,RRRRORO,RRRRORR,21.81333602,21.17347734,series_0,5f885bf60fdd0c2f49d2ca70,Mężczyzna,19,2021-09-06_19h14.26.105,rantool2,2021.1.4,Win32,60.0240096,6135e006383e6ea6c3d06a28,61364c3fc6378c2a35caa135,,,,,,,,
j,2.669,0,31,31,20,1,5f885bf60fdd0c2f49d2ca70,OROROOO,OROROOR,21.31236711,21.90565814,series_1,5f885bf60fdd0c2f49d2ca70,Mężczyzna,19,2021-09-06_19h14.26.105,rantool2,2021.1.4,Win32,60.0240096,6135e006383e6ea6c3d06a28,61364c3fc6378c2a35caa135,,,,,,,,
f,2.637,0,32,32,40,1,5f885bf60fdd0c2f49d2ca70,ROROOOO,ROROOOR,20.87963819,21.37121559,series_1,5f885bf60fdd0c2f49d2ca70,Mężczyzna,19,2021-09-06_19h14.26.105,rantool2,2021.1.4,Win32,60.0240096,6135e006383e6ea6c3d06a28,61364c3fc6378c2a35caa135,,,,,,,,
j,2.757,0,33,33,12,1,5f885bf60fdd0c2f49d2ca70,OORROOO,OORROOR,21.30250474,22.02786418,series_1,5f885bf60fdd0c2f49d2ca70,Mężczyzna,19,2021-09-06_19h14.26.105,rantool2,2021.1.4,Win32,60.0240096,6135e006383e6ea6c3d06a28,61364c3fc6378c2a35caa135,,,,,,,,
j,2.666,0,34,34,22,1,5f885bf60fdd0c2f49d2ca70,ORORROO,ORORROR,22.02732763,21.57657071,series_0,5f885bf60fdd0c2f49d2ca70,Mężczyzna,19,2021-09-06_19h14.26.105,rantool2,2021.1.4,Win32,60.0240096,6135e006383e6ea6c3d06a28,61364c3fc6378c2a35caa135,,,,,,,,
j,2.584,0,35,35,36,1,5f885bf60fdd0c2f49d2ca70,ROOROOO,ROOROOR,21.07991943,20.9984461,series_0,5f885bf60fdd0c2f49d2ca70,Mężczyzna,19,2021-09-06_19h14.26.105,rantool2,2021.1.4,Win32,60.0240096,6135e006383e6ea6c3d06a28,61364c3fc6378c2a35caa135,,,,,,,,
f,2.369,0,36,36,41,1,5f885bf60fdd0c2f49d2ca70,ROROORO,ROROORR,20.42602454,21.71443381,series_1,5f885bf60fdd0c2f49d2ca70,Mężczyzna,19,2021-09-06_19h14.26.105,rantool2,2021.1.4,Win32,60.0240096,6135e006383e6ea6c3d06a28,61364c3fc6378c2a35caa135,,,,,,,,
j,2.537,0,37,37,49,1,5f885bf60fdd0c2f49d2ca70,RROOORO,RROOORR,21.76276513,22.53364006,series_1,5f885bf60fdd0c2f49d2ca70,Mężczyzna,19,2021-09-06_19h14.26.105,rantool2,2021.1.4,Win32,60.0240096,6135e006383e6ea6c3d06a28,61364c3fc6378c2a35caa135,,,,,,,,
f,2.417,0,38,38,42,1,5f885bf60fdd0c2f49d2ca70,ROROROO,ROROROR,20.39515459,19.8361834,series_0,5f885bf60fdd0c2f49d2ca70,Mężczyzna,19,2021-09-06_19h14.26.105,rantool2,2021.1.4,Win32,60.0240096,6135e006383e6ea6c3d06a28,61364c3fc6378c2a35caa135,,,,,,,,
j,2.576,0,39,39,10,1,5f885bf60fdd0c2f49d2ca70,OOROROO,OOROROR,21.31236711,21.07490964,series_0,5f885bf60fdd0c2f49d2ca70,Mężczyzna,19,2021-09-06_19h14.26.105,rantool2,2021.1.4,Win32,60.0240096,6135e006383e6ea6c3d06a28,61364c3fc6378c2a35caa135,,,,,,,,
f,1.873,0,40,40,52,1,5f885bf60fdd0c2f49d2ca70,RROROOO,RROROOR,22.18365867,22.11097995,series_0,5f885bf60fdd0c2f49d2ca70,Mężczyzna,19,2021-09-06_19h14.26.105,rantool2,2021.1.4,Win32,60.0240096,6135e006383e6ea6c3d06a28,61364c3fc6378c2a35caa135,,,,,,,,
j,2.568,0,41,41,31,1,5f885bf60fdd0c2f49d2ca70,ORRRRRO,ORRRRRR,22.16413392,20.74050628,series_0,5f885bf60fdd0c2f49d2ca70,Mężczyzna,19,2021-09-06_19h14.26.105,rantool2,2021.1.4,Win32,60.0240096,6135e006383e6ea6c3d06a28,61364c3fc6378c2a35caa135,,,,,,,,
f,2.819,0,42,42,15,1,5f885bf60fdd0c2f49d2ca70,OORRRRO,OORRRRR,22.10108823,21.74922619,series_0,5f885bf60fdd0c2f49d2ca70,Mężczyzna,19,2021-09-06_19h14.26.105,rantool2,2021.1.4,Win32,60.0240096,6135e006383e6ea6c3d06a28,61364c3fc6378c2a35caa135,,,,,,,,
j,2.522,0,43,43,47,1,5f885bf60fdd0c2f49d2ca70,RORRRRO,RORRRRR,21.81333602,21.02936224,series_0,5f885bf60fdd0c2f49d2ca70,Mężczyzna,19,2021-09-06_19h14.26.105,rantool2,2021.1.4,Win32,60.0240096,6135e006383e6ea6c3d06a28,61364c3fc6378c2a35caa135,,,,,,,,
f,2.7,0,44,44,32,1,5f885bf60fdd0c2f49d2ca70,ROOOOOO,ROOOOOR,19.92253567,21.27974287,series_1,5f885bf60fdd0c2f49d2ca70,Mężczyzna,19,2021-09-06_19h14.26.105,rantool2,2021.1.4,Win32,60.0240096,6135e006383e6ea6c3d06a28,61364c3fc6378c2a35caa135,,,,,,,,
j,1.802,0,45,45,60,1,5f885bf60fdd0c2f49d2ca70,RRRROOO,RRRROOR,22.10108823,22.15934078,series_1,5f885bf60fdd0c2f49d2ca70,Mężczyzna,19,2021-09-06_19h14.26.105,rantool2,2021.1.4,Win32,60.0240096,6135e006383e6ea6c3d06a28,61364c3fc6378c2a35caa135,,,,,,,,
f,1.918,0,46,46,16,1,5f885bf60fdd0c2f49d2ca70,OROOOOO,OROOOOR,20.43051175,21.17347734,series_1,5f885bf60fdd0c2f49d2ca70,Mężczyzna,19,2021-09-06_19h14.26.105,rantool2,2021.1.4,Win32,60.0240096,6135e006383e6ea6c3d06a28,61364c3fc6378c2a35caa135,,,,,,,,
j,2.553,0,47,47,21,1,5f885bf60fdd0c2f49d2ca70,ORORORO,ORORORR,20.39515459,22.06781359,series_1,5f885bf60fdd0c2f49d2ca70,Mężczyzna,19,2021-09-06_19h14.26.105,rantool2,2021.1.4,Win32,60.0240096,6135e006383e6ea6c3d06a28,61364c3fc6378c2a35caa135,,,,,,,,
f,1.86,0,48,48,23,1,5f885bf60fdd0c2f49d2ca70,ORORRRO,ORORRRR,22.1285618,21.9921709,series_0,5f885bf60fdd0c2f49d2ca70,Mężczyzna,19,2021-09-06_19h14.26.105,rantool2,2021.1.4,Win32,60.0240096,6135e006383e6ea6c3d06a28,61364c3fc6378c2a35caa135,,,,,,,,
j,1.851,0,49,49,0,1,5f885bf60fdd0c2f49d2ca70,OOOOOOO,OOOOOOR,18.52739004,19.62521613,series_1,5f885bf60fdd0c2f49d2ca70,Mężczyzna,19,2021-09-06_19h14.26.105,rantool2,2021.1.4,Win32,60.0240096,6135e006383e6ea6c3d06a28,61364c3fc6378c2a35caa135,,,,,,,,
f,2.585,0,50,50,19,1,5f885bf60fdd0c2f49d2ca70,OROORRO,OROORRR,21.73568164,22.11181017,series_1,5f885bf60fdd0c2f49d2ca70,Mężczyzna,19,2021-09-06_19h14.26.105,rantool2,2021.1.4,Win32,60.0240096,6135e006383e6ea6c3d06a28,61364c3fc6378c2a35caa135,,,,,,,,
j,2.111,0,51,51,59,1,5f885bf60fdd0c2f49d2ca70,RRRORRO,RRRORRR,21.56657303,20.89823192,series_0,5f885bf60fdd0c2f49d2ca70,Mężczyzna,19,2021-09-06_19h14.26.105,rantool2,2021.1.4,Win32,60.0240096,6135e006383e6ea6c3d06a28,61364c3fc6378c2a35caa135,,,,,,,,
f,2.162,0,52,52,24,1,5f885bf60fdd0c2f49d2ca70,ORROOOO,ORROOOR,21.12383932,22.07102821,series_1,5f885bf60fdd0c2f49d2ca70,Mężczyzna,19,2021-09-06_19h14.26.105,rantool2,2021.1.4,Win32,60.0240096,6135e006383e6ea6c3d06a28,61364c3fc6378c2a35caa135,,,,,,,,
j,2.755,0,53,53,25,1,5f885bf60fdd0c2f49d2ca70,ORROORO,ORROORR,21.79500819,22.61624387,series_1,5f885bf60fdd0c2f49d2ca70,Mężczyzna,19,2021-09-06_19h14.26.105,rantool2,2021.1.4,Win32,60.0240096,6135e006383e6ea6c3d06a28,61364c3fc6378c2a35caa135,,,,,,,,
f,2.719,0,54,54,43,1,5f885bf60fdd0c2f49d2ca70,RORORRO,RORORRR,20.71309134,21.07490964,series_1,5f885bf60fdd0c2f49d2ca70,Mężczyzna,19,2021-09-06_19h14.26.105,rantool2,2021.1.4,Win32,60.0240096,6135e006383e6ea6c3d06a28,61364c3fc6378c2a35caa135,,,,,,,,
j,2.568,0,55,55,3,1,5f885bf60fdd0c2f49d2ca70,OOOORRO,OOOORRR,20.90986523,21.74922619,series_1,5f885bf60fdd0c2f49d2ca70,Mężczyzna,19,2021-09-06_19h14.26.105,rantool2,2021.1.4,Win32,60.0240096,6135e006383e6ea6c3d06a28,61364c3fc6378c2a35caa135,,,,,,,,
f,2.705,0,56,56,53,1,5f885bf60fdd0c2f49d2ca70,RRORORO,RRORORR,20.71309134,21.90565814,series_1,5f885bf60fdd0c2f49d2ca70,Mężczyzna,19,2021-09-06_19h14.26.105,rantool2,2021.1.4,Win32,60.0240096,6135e006383e6ea6c3d06a28,61364c3fc6378c2a35caa135,,,,,,,,
j,2.468,0,57,57,57,1,5f885bf60fdd0c2f49d2ca70,RRROORO,RRROORR,21.82425538,22.07102821,series_1,5f885bf60fdd0c2f49d2ca70,Mężczyzna,19,2021-09-06_19h14.26.105,rantool2,2021.1.4,Win32,60.0240096,6135e006383e6ea6c3d06a28,61364c3fc6378c2a35caa135,,,,,,,,
f,2.751,0,58,58,58,1,5f885bf60fdd0c2f49d2ca70,RRROROO,RRROROR,22.1285618,21.37121559,series_0,5f885bf60fdd0c2f49d2ca70,Mężczyzna,19,2021-09-06_19h14.26.105,rantool2,2021.1.4,Win32,60.0240096,6135e006383e6ea6c3d06a28,61364c3fc6378c2a35caa135,,,,,,,,
j,2.702,0,59,59,51,1,5f885bf60fdd0c2f49d2ca70,RROORRO,RROORRR,21.89852628,22.02786418,series_1,5f885bf60fdd0c2f49d2ca70,Mężczyzna,19,2021-09-06_19h14.26.105,rantool2,2021.1.4,Win32,60.0240096,6135e006383e6ea6c3d06a28,61364c3fc6378c2a35caa135,,,,,,,,
f,2.674,0,60,60,34,1,5f885bf60fdd0c2f49d2ca70,ROOOROO,ROOOROR,21.03750787,21.24781509,series_1,5f885bf60fdd0c2f49d2ca70,Mężczyzna,19,2021-09-06_19h14.26.105,rantool2,2021.1.4,Win32,60.0240096,6135e006383e6ea6c3d06a28,61364c3fc6378c2a35caa135,,,,,,,,
j,3.373,0,61,61,5,1,5f885bf60fdd0c2f49d2ca70,OOORORO,OOORORR,20.87963819,21.9921709,series_1,5f885bf60fdd0c2f49d2ca70,Mężczyzna,19,2021-09-06_19h14.26.105,rantool2,2021.1.4,Win32,60.0240096,6135e006383e6ea6c3d06a28,61364c3fc6378c2a35caa135,,,,,,,,
f,2.487,0,62,62,9,1,5f885bf60fdd0c2f49d2ca70,OOROORO,OOROORR,21.07991943,22.2428857,series_1,5f885bf60fdd0c2f49d2ca70,Mężczyzna,19,2021-09-06_19h14.26.105,rantool2,2021.1.4,Win32,60.0240096,6135e006383e6ea6c3d06a28,61364c3fc6378c2a35caa135,,,,,,,,
j,2.586,0,63,63,30,1,5f885bf60fdd0c2f49d2ca70,ORRRROO,ORRRROR,22.46748491,22.03072203,series_0,5f885bf60fdd0c2f49d2ca70,Mężczyzna,19,2021-09-06_19h14.26.105,rantool2,2021.1.4,Win32,60.0240096,6135e006383e6ea6c3d06a28,61364c3fc6378c2a35caa135,,,,,,,,
,,,,,,,5f885bf60fdd0c2f49d2ca70,,,,,,5f885bf60fdd0c2f49d2ca70,Mężczyzna,19,2021-09-06_19h14.26.105,rantool2,2021.1.4,Win32,60.0240096,6135e006383e6ea6c3d06a28,61364c3fc6378c2a35caa135,"[""comma""]",0,[1.228999999999985],0,0,0,0,1
,,,,,,,5f885bf60fdd0c2f49d2ca70,,,,,,5f885bf60fdd0c2f49d2ca70,Mężczyzna,19,2021-09-06_19h14.26.105,rantool2,2021.1.4,Win32,60.0240096,6135e006383e6ea6c3d06a28,61364c3fc6378c2a35caa135,"[""period""]",0,[1.4189999999999827],1,0,1,0,1
,,,,,,,5f885bf60fdd0c2f49d2ca70,,,,,,5f885bf60fdd0c2f49d2ca70,Mężczyzna,19,2021-09-06_19h14.26.105,rantool2,2021.1.4,Win32,60.0240096,6135e006383e6ea6c3d06a28,61364c3fc6378c2a35caa135,"[""period""]",0,[1.461999999999989],2,0,2,0,1
,,,,,,,5f885bf60fdd0c2f49d2ca70,,,,,,5f885bf60fdd0c2f49d2ca70,Mężczyzna,19,2021-09-06_19h14.26.105,rantool2,2021.1.4,Win32,60.0240096,6135e006383e6ea6c3d06a28,61364c3fc6378c2a35caa135,"[""period""]",0,[1.4209999999999923],3,0,3,0,1
,,,,,,,5f885bf60fdd0c2f49d2ca70,,,,,,5f885bf60fdd0c2f49d2ca70,Mężczyzna,19,2021-09-06_19h14.26.105,rantool2,2021.1.4,Win32,60.0240096,6135e006383e6ea6c3d06a28,61364c3fc6378c2a35caa135,"[""comma""]",0,[1.350999999999999],4,0,4,0,1
,,,,,,,5f885bf60fdd0c2f49d2ca70,,,,,,5f885bf60fdd0c2f49d2ca70,Mężczyzna,19,2021-09-06_19h14.26.105,rantool2,2021.1.4,Win32,60.0240096,6135e006383e6ea6c3d06a28,61364c3fc6378c2a35caa135,"[""comma""]",0,[1.4069999999999823],5,0,5,0,1
,,,,,,,5f885bf60fdd0c2f49d2ca70,,,,,,5f885bf60fdd0c2f49d2ca70,Mężczyzna,19,2021-09-06_19h14.26.105,rantool2,2021.1.4,Win32,60.0240096,6135e006383e6ea6c3d06a28,61364c3fc6378c2a35caa135,"[""period"",""period""]",0,"[0.5029999999999859,1.4029999999999632]",6,0,6,0,1
,,,,,,,5f885bf60fdd0c2f49d2ca70,,,,,,5f885bf60fdd0c2f49d2ca70,Mężczyzna,19,2021-09-06_19h14.26.105,rantool2,2021.1.4,Win32,60.0240096,6135e006383e6ea6c3d06a28,61364c3fc6378c2a35caa135,"[""comma""]",0,[1.2799999999999727],7,0,7,0,1
,,,,,,,5f885bf60fdd0c2f49d2ca70,,,,,,5f885bf60fdd0c2f49d2ca70,Mężczyzna,19,2021-09-06_19h14.26.105,rantool2,2021.1.4,Win32,60.0240096,6135e006383e6ea6c3d06a28,61364c3fc6378c2a35caa135,"[""comma""]",0,[1.4019999999999868],8,0,8,0,1
,,,,,,,5f885bf60fdd0c2f49d2ca70,,,,,,5f885bf60fdd0c2f49d2ca70,Mężczyzna,19,2021-09-06_19h14.26.105,rantool2,2021.1.4,Win32,60.0240096,6135e006383e6ea6c3d06a28,61364c3fc6378c2a35caa135,"[""comma""]",0,[1.3190000000000168],9,0,9,0,1
,,,,,,,5f885bf60fdd0c2f49d2ca70,,,,,,5f885bf60fdd0c2f49d2ca70,Mężczyzna,19,2021-09-06_19h14.26.105,rantool2,2021.1.4,Win32,60.0240096,6135e006383e6ea6c3d06a28,61364c3fc6378c2a35caa135,"[""period""]",0,[1.4680000000000177],10,0,10,0,1
,,,,,,,5f885bf60fdd0c2f49d2ca70,,,,,,5f885bf60fdd0c2f49d2ca70,Mężczyzna,19,2021-09-06_19h14.26.105,rantool2,2021.1.4,Win32,60.0240096,6135e006383e6ea6c3d06a28,61364c3fc6378c2a35caa135,"[""comma""]",0,[1.6270000000000095],11,0,11,0,1
,,,,,,,5f885bf60fdd0c2f49d2ca70,,,,,,5f885bf60fdd0c2f49d2ca70,Mężczyzna,19,2021-09-06_19h14.26.105,rantool2,2021.1.4,Win32,60.0240096,6135e006383e6ea6c3d06a28,61364c3fc6378c2a35caa135,"[""comma""]",0,[1.622000000000014],12,0,12,0,1
,,,,,,,5f885bf60fdd0c2f49d2ca70,,,,,,5f885bf60fdd0c2f49d2ca70,Mężczyzna,19,2021-09-06_19h14.26.105,rantool2,2021.1.4,Win32,60.0240096,6135e006383e6ea6c3d06a28,61364c3fc6378c2a35caa135,"[""comma""]",0,[1.5849999999999795],13,0,13,0,1
,,,,,,,5f885bf60fdd0c2f49d2ca70,,,,,,5f885bf60fdd0c2f49d2ca70,Mężczyzna,19,2021-09-06_19h14.26.105,rantool2,2021.1.4,Win32,60.0240096,6135e006383e6ea6c3d06a28,61364c3fc6378c2a35caa135,"[""comma""]",0,[1.4680000000000177],14,0,14,0,1
,,,,,,,5f885bf60fdd0c2f49d2ca70,,,,,,5f885bf60fdd0c2f49d2ca70,Mężczyzna,19,2021-09-06_19h14.26.105,rantool2,2021.1.4,Win32,60.0240096,6135e006383e6ea6c3d06a28,61364c3fc6378c2a35caa135,"[""comma""]",0,[1.3410000000000082],15,0,15,0,1
,,,,,,,5f885bf60fdd0c2f49d2ca70,,,,,,5f885bf60fdd0c2f49d2ca70,Mężczyzna,19,2021-09-06_19h14.26.105,rantool2,2021.1.4,Win32,60.0240096,6135e006383e6ea6c3d06a28,61364c3fc6378c2a35caa135,"[""period""]",0,[1.16700000000003],16,0,16,0,1
,,,,,,,5f885bf60fdd0c2f49d2ca70,,,,,,5f885bf60fdd0c2f49d2ca70,Mężczyzna,19,2021-09-06_19h14.26.105,rantool2,2021.1.4,Win32,60.0240096,6135e006383e6ea6c3d06a28,61364c3fc6378c2a35caa135,"[""period""]",0,[1.051999999999964],17,0,17,0,1
,,,,,,,5f885bf60fdd0c2f49d2ca70,,,,,,5f885bf60fdd0c2f49d2ca70,Mężczyzna,19,2021-09-06_19h14.26.105,rantool2,2021.1.4,Win32,60.0240096,6135e006383e6ea6c3d06a28,61364c3fc6378c2a35caa135,"[""comma""]",0,[1.072999999999979],18,0,18,0,1
,,,,,,,5f885bf60fdd0c2f49d2ca70,,,,,,5f885bf60fdd0c2f49d2ca70,Mężczyzna,19,2021-09-06_19h14.26.105,rantool2,2021.1.4,Win32,60.0240096,6135e006383e6ea6c3d06a28,61364c3fc6378c2a35caa135,"[""comma""]",0,[1.0529999999999973],19,0,19,0,1
,,,,,,,5f885bf60fdd0c2f49d2ca70,,,,,,5f885bf60fdd0c2f49d2ca70,Mężczyzna,19,2021-09-06_19h14.26.105,rantool2,2021.1.4,Win32,60.0240096,6135e006383e6ea6c3d06a28,61364c3fc6378c2a35caa135,"[""period""]",0,[0.8840000000000146],20,0,20,0,1
,,,,,,,5f885bf60fdd0c2f49d2ca70,,,,,,5f885bf60fdd0c2f49d2ca70,Mężczyzna,19,2021-09-06_19h14.26.105,rantool2,2021.1.4,Win32,60.0240096,6135e006383e6ea6c3d06a28,61364c3fc6378c2a35caa135,"[""comma""]",0,[0.9080000000000155],21,0,21,0,1
,,,,,,,5f885bf60fdd0c2f49d2ca70,,,,,,5f885bf60fdd0c2f49d2ca70,Mężczyzna,19,2021-09-06_19h14.26.105,rantool2,2021.1.4,Win32,60.0240096,6135e006383e6ea6c3d06a28,61364c3fc6378c2a35caa135,"[""period""]",0,[0.9270000000000209],22,0,22,0,1
,,,,,,,5f885bf60fdd0c2f49d2ca70,,,,,,5f885bf60fdd0c2f49d2ca70,Mężczyzna,19,2021-09-06_19h14.26.105,rantool2,2021.1.4,Win32,60.0240096,6135e006383e6ea6c3d06a28,61364c3fc6378c2a35caa135,"[""comma""]",0,[0.8860000000000241],23,0,23,0,1
,,,,,,,5f885bf60fdd0c2f49d2ca70,,,,,,5f885bf60fdd0c2f49d2ca70,Mężczyzna,19,2021-09-06_19h14.26.105,rantool2,2021.1.4,Win32,60.0240096,6135e006383e6ea6c3d06a28,61364c3fc6378c2a35caa135,"[""period""]",0,[0.9830000000000041],24,0,24,0,1
,,,,,,,5f885bf60fdd0c2f49d2ca70,,,,,,5f885bf60fdd0c2f49d2ca70,Mężczyzna,19,2021-09-06_19h14.26.105,rantool2,2021.1.4,Win32,60.0240096,6135e006383e6ea6c3d06a28,61364c3fc6378c2a35caa135,"[""comma""]",0,[0.8509999999999991],25,0,25,0,1
,,,,,,,5f885bf60fdd0c2f49d2ca70,,,,,,5f885bf60fdd0c2f49d2ca70,Mężczyzna,19,2021-09-06_19h14.26.105,rantool2,2021.1.4,Win32,60.0240096,6135e006383e6ea6c3d06a28,61364c3fc6378c2a35caa135,"[""period""]",0,[1.018000000000029],26,0,26,0,1
,,,,,,,5f885bf60fdd0c2f49d2ca70,,,,,,5f885bf60fdd0c2f49d2ca70,Mężczyzna,19,2021-09-06_19h14.26.105,rantool2,2021.1.4,Win32,60.0240096,6135e006383e6ea6c3d06a28,61364c3fc6378c2a35caa135,"[""comma""]",0,[0.9409999999999741],27,0,27,0,1
,,,,,,,5f885bf60fdd0c2f49d2ca70,,,,,,5f885bf60fdd0c2f49d2ca70,Mężczyzna,19,2021-09-06_19h14.26.105,rantool2,2021.1.4,Win32,60.0240096,6135e006383e6ea6c3d06a28,61364c3fc6378c2a35caa135,"[""comma""]",0,[1.018000000000029],28,0,28,0,1
,,,,,,,5f885bf60fdd0c2f49d2ca70,,,,,,5f885bf60fdd0c2f49d2ca70,Mężczyzna,19,2021-09-06_19h14.26.105,rantool2,2021.1.4,Win32,60.0240096,6135e006383e6ea6c3d06a28,61364c3fc6378c2a35caa135,"[""period""]",0,[1.0249999999999773],29,0,29,0,1
,,,,,,,5f885bf60fdd0c2f49d2ca70,,,,,,5f885bf60fdd0c2f49d2ca70,Mężczyzna,19,2021-09-06_19h14.26.105,rantool2,2021.1.4,Win32,60.0240096,6135e006383e6ea6c3d06a28,61364c3fc6378c2a35caa135,"[""period""]",0,[0.867999999999995],30,0,30,0,1
,,,,,,,5f885bf60fdd0c2f49d2ca70,,,,,,5f885bf60fdd0c2f49d2ca70,Mężczyzna,19,2021-09-06_19h14.26.105,rantool2,2021.1.4,Win32,60.0240096,6135e006383e6ea6c3d06a28,61364c3fc6378c2a35caa135,"[""period""]",0,[0.9619999999999891],31,0,31,0,1
,,,,,,,5f885bf60fdd0c2f49d2ca70,,,,,,5f885bf60fdd0c2f49d2ca70,Mężczyzna,19,2021-09-06_19h14.26.105,rantool2,2021.1.4,Win32,60.0240096,6135e006383e6ea6c3d06a28,61364c3fc6378c2a35caa135,"[""period""]",0,[0.9769999999999754],32,0,32,0,1
,,,,,,,5f885bf60fdd0c2f49d2ca70,,,,,,5f885bf60fdd0c2f49d2ca70,Mężczyzna,19,2021-09-06_19h14.26.105,rantool2,2021.1.4,Win32,60.0240096,6135e006383e6ea6c3d06a28,61364c3fc6378c2a35caa135,"[""period""]",0,[0.9909999999999854],33,0,33,0,1
,,,,,,,5f885bf60fdd0c2f49d2ca70,,,,,,5f885bf60fdd0c2f49d2ca70,Mężczyzna,19,2021-09-06_19h14.26.105,rantool2,2021.1.4,Win32,60.0240096,6135e006383e6ea6c3d06a28,61364c3fc6378c2a35caa135,"[""comma""]",0,[1.018000000000029],34,0,34,0,1
,,,,,,,5f885bf60fdd0c2f49d2ca70,,,,,,5f885bf60fdd0c2f49d2ca70,Mężczyzna,19,2021-09-06_19h14.26.105,rantool2,2021.1.4,Win32,60.0240096,6135e006383e6ea6c3d06a28,61364c3fc6378c2a35caa135,"[""comma""]",0,[1.002999999999986],35,0,35,0,1
,,,,,,,5f885bf60fdd0c2f49d2ca70,,,,,,5f885bf60fdd0c2f49d2ca70,Mężczyzna,19,2021-09-06_19h14.26.105,rantool2,2021.1.4,Win32,60.0240096,6135e006383e6ea6c3d06a28,61364c3fc6378c2a35caa135,"[""period""]",0,[0.9689999999999941],36,0,36,0,1
,,,,,,,5f885bf60fdd0c2f49d2ca70,,,,,,5f885bf60fdd0c2f49d2ca70,Mężczyzna,19,2021-09-06_19h14.26.105,rantool2,2021.1.4,Win32,60.0240096,6135e006383e6ea6c3d06a28,61364c3fc6378c2a35caa135,"[""comma""]",0,[0.9359999999999786],37,0,37,0,1
,,,,,,,5f885bf60fdd0c2f49d2ca70,,,,,,5f885bf60fdd0c2f49d2ca70,Mężczyzna,19,2021-09-06_19h14.26.105,rantool2,2021.1.4,Win32,60.0240096,6135e006383e6ea6c3d06a28,61364c3fc6378c2a35caa135,"[""comma""]",0,[0.9849999999999568],38,0,38,0,1
,,,,,,,5f885bf60fdd0c2f49d2ca70,,,,,,5f885bf60fdd0c2f49d2ca70,Mężczyzna,19,2021-09-06_19h14.26.105,rantool2,2021.1.4,Win32,60.0240096,6135e006383e6ea6c3d06a28,61364c3fc6378c2a35caa135,"[""period""]",0,[1.016999999999996],39,0,39,0,1
,,,,,,,5f885bf60fdd0c2f49d2ca70,,,,,,5f885bf60fdd0c2f49d2ca70,Mężczyzna,19,2021-09-06_19h14.26.105,rantool2,2021.1.4,Win32,60.0240096,6135e006383e6ea6c3d06a28,61364c3fc6378c2a35caa135,"[""comma""]",0,[1.007000000000005],40,0,40,0,1
,,,,,,,5f885bf60fdd0c2f49d2ca70,,,,,,5f885bf60fdd0c2f49d2ca70,Mężczyzna,19,2021-09-06_19h14.26.105,rantool2,2021.1.4,Win32,60.0240096,6135e006383e6ea6c3d06a28,61364c3fc6378c2a35caa135,"[""comma""]",0,[0.9889999999999759],41,0,41,0,1
,,,,,,,5f885bf60fdd0c2f49d2ca70,,,,,,5f885bf60fdd0c2f49d2ca70,Mężczyzna,19,2021-09-06_19h14.26.105,rantool2,2021.1.4,Win32,60.0240096,6135e006383e6ea6c3d06a28,61364c3fc6378c2a35caa135,"[""period""]",0,[1.018000000000029],42,0,42,0,1
,,,,,,,5f885bf60fdd0c2f49d2ca70,,,,,,5f885bf60fdd0c2f49d2ca70,Mężczyzna,19,2021-09-06_19h14.26.105,rantool2,2021.1.4,Win32,60.0240096,6135e006383e6ea6c3d06a28,61364c3fc6378c2a35caa135,"[""period""]",0,[0.9899999999999523],43,0,43,0,1
,,,,,,,5f885bf60fdd0c2f49d2ca70,,,,,,5f885bf60fdd0c2f49d2ca70,Mężczyzna,19,2021-09-06_19h14.26.105,rantool2,2021.1.4,Win32,60.0240096,6135e006383e6ea6c3d06a28,61364c3fc6378c2a35caa135,"[""comma""]",0,[1.0049999999999955],44,0,44,0,1
,,,,,,,5f885bf60fdd0c2f49d2ca70,,,,,,5f885bf60fdd0c2f49d2ca70,Mężczyzna,19,2021-09-06_19h14.26.105,rantool2,2021.1.4,Win32,60.0240096,6135e006383e6ea6c3d06a28,61364c3fc6378c2a35caa135,"[""period""]",0,[0.9630000000000223],45,0,45,0,1
,,,,,,,5f885bf60fdd0c2f49d2ca70,,,,,,5f885bf60fdd0c2f49d2ca70,Mężczyzna,19,2021-09-06_19h14.26.105,rantool2,2021.1.4,Win32,60.0240096,6135e006383e6ea6c3d06a28,61364c3fc6378c2a35caa135,"[""comma""]",0,[0.9010000000000105],46,0,46,0,1
,,,,,,,5f885bf60fdd0c2f49d2ca70,,,,,,5f885bf60fdd0c2f49d2ca70,Mężczyzna,19,2021-09-06_19h14.26.105,rantool2,2021.1.4,Win32,60.0240096,6135e006383e6ea6c3d06a28,61364c3fc6378c2a35caa135,"[""comma""]",0,[0.7660000000000196],47,0,47,0,1
,,,,,,,5f885bf60fdd0c2f49d2ca70,,,,,,5f885bf60fdd0c2f49d2ca70,Mężczyzna,19,2021-09-06_19h14.26.105,rantool2,2021.1.4,Win32,60.0240096,6135e006383e6ea6c3d06a28,61364c3fc6378c2a35caa135,"[""comma""]",0,[1.035000000000025],48,0,48,0,1
,,,,,,,5f885bf60fdd0c2f49d2ca70,,,,,,5f885bf60fdd0c2f49d2ca70,Mężczyzna,19,2021-09-06_19h14.26.105,rantool2,2021.1.4,Win32,60.0240096,6135e006383e6ea6c3d06a28,61364c3fc6378c2a35caa135,"[""period""]",0,[1.0049999999999955],49,0,49,0,1
,,,,,,,5f885bf60fdd0c2f49d2ca70,,,,,,5f885bf60fdd0c2f49d2ca70,Mężczyzna,19,2021-09-06_19h14.26.105,rantool2,2021.1.4,Win32,60.0240096,6135e006383e6ea6c3d06a28,61364c3fc6378c2a35caa135,"[""period""]",0,[1.004000000000019],50,0,50,0,1
,,,,,,,5f885bf60fdd0c2f49d2ca70,,,,,,5f885bf60fdd0c2f49d2ca70,Mężczyzna,19,2021-09-06_19h14.26.105,rantool2,2021.1.4,Win32,60.0240096,6135e006383e6ea6c3d06a28,61364c3fc6378c2a35caa135,"[""period""]",0,[0.8840000000000146],51,0,51,0,1
,,,,,,,5f885bf60fdd0c2f49d2ca70,,,,,,5f885bf60fdd0c2f49d2ca70,Mężczyzna,19,2021-09-06_19h14.26.105,rantool2,2021.1.4,Win32,60.0240096,6135e006383e6ea6c3d06a28,61364c3fc6378c2a35caa135,"[""comma""]",0,[0.9510000000000218],52,0,52,0,1
,,,,,,,5f885bf60fdd0c2f49d2ca70,,,,,,5f885bf60fdd0c2f49d2ca70,Mężczyzna,19,2021-09-06_19h14.26.105,rantool2,2021.1.4,Win32,60.0240096,6135e006383e6ea6c3d06a28,61364c3fc6378c2a35caa135,"[""period""]",0,[0.9689999999999941],53,0,53,0,1
,,,,,,,5f885bf60fdd0c2f49d2ca70,,,,,,5f885bf60fdd0c2f49d2ca70,Mężczyzna,19,2021-09-06_19h14.26.105,rantool2,2021.1.4,Win32,60.0240096,6135e006383e6ea6c3d06a28,61364c3fc6378c2a35caa135,"[""period""]",0,[0.9430000000000405],54,0,54,0,1
,,,,,,,5f885bf60fdd0c2f49d2ca70,,,,,,5f885bf60fdd0c2f49d2ca70,Mężczyzna,19,2021-09-06_19h14.26.105,rantool2,2021.1.4,Win32,60.0240096,6135e006383e6ea6c3d06a28,61364c3fc6378c2a35caa135,"[""period""]",0,[1.0009999999999764],55,0,55,0,1
,,,,,,,5f885bf60fdd0c2f49d2ca70,,,,,,5f885bf60fdd0c2f49d2ca70,Mężczyzna,19,2021-09-06_19h14.26.105,rantool2,2021.1.4,Win32,60.0240096,6135e006383e6ea6c3d06a28,61364c3fc6378c2a35caa135,"[""period""]",0,[1.0360000000000014],56,0,56,0,1
,,,,,,,5f885bf60fdd0c2f49d2ca70,,,,,,5f885bf60fdd0c2f49d2ca70,Mężczyzna,19,2021-09-06_19h14.26.105,rantool2,2021.1.4,Win32,60.0240096,6135e006383e6ea6c3d06a28,61364c3fc6378c2a35caa135,"[""period""]",0,[1.0059999999999718],57,0,57,0,1
,,,,,,,5f885bf60fdd0c2f49d2ca70,,,,,,5f885bf60fdd0c2f49d2ca70,Mężczyzna,19,2021-09-06_19h14.26.105,rantool2,2021.1.4,Win32,60.0240096,6135e006383e6ea6c3d06a28,61364c3fc6378c2a35caa135,"[""period""]",0,[0.9839999999999804],58,0,58,0,1
,,,,,,,5f885bf60fdd0c2f49d2ca70,,,,,,5f885bf60fdd0c2f49d2ca70,Mężczyzna,19,2021-09-06_19h14.26.105,rantool2,2021.1.4,Win32,60.0240096,6135e006383e6ea6c3d06a28,61364c3fc6378c2a35caa135,"[""comma""]",0,[0.757000000000005],59,0,59,0,1
,,,,,,,5f885bf60fdd0c2f49d2ca70,,,,,,5f885bf60fdd0c2f49d2ca70,Mężczyzna,19,2021-09-06_19h14.26.105,rantool2,2021.1.4,Win32,60.0240096,6135e006383e6ea6c3d06a28,61364c3fc6378c2a35caa135,"[""comma""]",0,[0.9850000000000136],60,0,60,0,1
,,,,,,,5f885bf60fdd0c2f49d2ca70,,,,,,5f885bf60fdd0c2f49d2ca70,Mężczyzna,19,2021-09-06_19h14.26.105,rantool2,2021.1.4,Win32,60.0240096,6135e006383e6ea6c3d06a28,61364c3fc6378c2a35caa135,"[""comma""]",0,[0.992999999999995],61,0,61,0,1
,,,,,,,5f885bf60fdd0c2f49d2ca70,,,,,,5f885bf60fdd0c2f49d2ca70,Mężczyzna,19,2021-09-06_19h14.26.105,rantool2,2021.1.4,Win32,60.0240096,6135e006383e6ea6c3d06a28,61364c3fc6378c2a35caa135,"[""comma""]",0,[1.0419999999999732],62,0,62,0,1
,,,,,,,5f885bf60fdd0c2f49d2ca70,,,,,,5f885bf60fdd0c2f49d2ca70,Mężczyzna,19,2021-09-06_19h14.26.105,rantool2,2021.1.4,Win32,60.0240096,6135e006383e6ea6c3d06a28,61364c3fc6378c2a35caa135,"[""comma""]",0,[0.9909999999999854],63,0,63,0,1
,,,,,,,5f885bf60fdd0c2f49d2ca70,,,,,,5f885bf60fdd0c2f49d2ca70,Mężczyzna,19,2021-09-06_19h14.26.105,rantool2,2021.1.4,Win32,60.0240096,6135e006383e6ea6c3d06a28,61364c3fc6378c2a35caa135,"[""period""]",0,[0.9710000000000036],64,0,64,0,1
,,,,,,,5f885bf60fdd0c2f49d2ca70,,,,,,5f885bf60fdd0c2f49d2ca70,Mężczyzna,19,2021-09-06_19h14.26.105,rantool2,2021.1.4,Win32,60.0240096,6135e006383e6ea6c3d06a28,61364c3fc6378c2a35caa135,"[""comma""]",0,[0.8859999999999673],65,0,65,0,1
,,,,,,,5f885bf60fdd0c2f49d2ca70,,,,,,5f885bf60fdd0c2f49d2ca70,Mężczyzna,19,2021-09-06_19h14.26.105,rantool2,2021.1.4,Win32,60.0240096,6135e006383e6ea6c3d06a28,61364c3fc6378c2a35caa135,"[""comma""]",0,[1.018000000000029],66,0,66,0,1
,,,,,,,5f885bf60fdd0c2f49d2ca70,,,,,,5f885bf60fdd0c2f49d2ca70,Mężczyzna,19,2021-09-06_19h14.26.105,rantool2,2021.1.4,Win32,60.0240096,6135e006383e6ea6c3d06a28,61364c3fc6378c2a35caa135,"[""comma""]",0,[1.035000000000025],67,0,67,0,1
,,,,,,,5f885bf60fdd0c2f49d2ca70,,,,,,5f885bf60fdd0c2f49d2ca70,Mężczyzna,19,2021-09-06_19h14.26.105,rantool2,2021.1.4,Win32,60.0240096,6135e006383e6ea6c3d06a28,61364c3fc6378c2a35caa135,"[""comma""]",0,[0.9689999999999941],68,0,68,0,1
,,,,,,,5f885bf60fdd0c2f49d2ca70,,,,,,5f885bf60fdd0c2f49d2ca70,Mężczyzna,19,2021-09-06_19h14.26.105,rantool2,2021.1.4,Win32,60.0240096,6135e006383e6ea6c3d06a28,61364c3fc6378c2a35caa135,"[""period""]",0,[1.0260000000000105],69,0,69,0,1
,,,,,,,5f885bf60fdd0c2f49d2ca70,,,,,,5f885bf60fdd0c2f49d2ca70,Mężczyzna,19,2021-09-06_19h14.26.105,rantool2,2021.1.4,Win32,60.0240096,6135e006383e6ea6c3d06a28,61364c3fc6378c2a35caa135,"[""period""]",0,[0.9549999999999841],70,0,70,0,1
,,,,,,,5f885bf60fdd0c2f49d2ca70,,,,,,5f885bf60fdd0c2f49d2ca70,Mężczyzna,19,2021-09-06_19h14.26.105,rantool2,2021.1.4,Win32,60.0240096,6135e006383e6ea6c3d06a28,61364c3fc6378c2a35caa135,"[""period""]",0,[0.9010000000000105],71,0,71,0,1
,,,,,,,5f885bf60fdd0c2f49d2ca70,,,,,,5f885bf60fdd0c2f49d2ca70,Mężczyzna,19,2021-09-06_19h14.26.105,rantool2,2021.1.4,Win32,60.0240096,6135e006383e6ea6c3d06a28,61364c3fc6378c2a35caa135,"[""comma""]",0,[1.0540000000000305],72,0,72,0,1
,,,,,,,5f885bf60fdd0c2f49d2ca70,,,,,,5f885bf60fdd0c2f49d2ca70,Mężczyzna,19,2021-09-06_19h14.26.105,rantool2,2021.1.4,Win32,60.0240096,6135e006383e6ea6c3d06a28,61364c3fc6378c2a35caa135,"[""comma""]",0,[1.0009999999999764],73,0,73,0,1
,,,,,,,5f885bf60fdd0c2f49d2ca70,,,,,,5f885bf60fdd0c2f49d2ca70,Mężczyzna,19,2021-09-06_19h14.26.105,rantool2,2021.1.4,Win32,60.0240096,6135e006383e6ea6c3d06a28,61364c3fc6378c2a35caa135,"[""period""]",0,[1.0090000000000146],74,0,74,0,1
,,,,,,,5f885bf60fdd0c2f49d2ca70,,,,,,5f885bf60fdd0c2f49d2ca70,Mężczyzna,19,2021-09-06_19h14.26.105,rantool2,2021.1.4,Win32,60.0240096,6135e006383e6ea6c3d06a28,61364c3fc6378c2a35caa135,"[""comma""]",0,[1.002999999999986],75,0,75,0,1
,,,,,,,5f885bf60fdd0c2f49d2ca70,,,,,,5f885bf60fdd0c2f49d2ca70,Mężczyzna,19,2021-09-06_19h14.26.105,rantool2,2021.1.4,Win32,60.0240096,6135e006383e6ea6c3d06a28,61364c3fc6378c2a35caa135,"[""period""]",0,[1.0190000000000055],76,0,76,0,1
,,,,,,,5f885bf60fdd0c2f49d2ca70,,,,,,5f885bf60fdd0c2f49d2ca70,Mężczyzna,19,2021-09-06_19h14.26.105,rantool2,2021.1.4,Win32,60.0240096,6135e006383e6ea6c3d06a28,61364c3fc6378c2a35caa135,"[""comma""]",0,[1.002999999999986],77,0,77,0,1
,,,,,,,5f885bf60fdd0c2f49d2ca70,,,,,,5f885bf60fdd0c2f49d2ca70,Mężczyzna,19,2021-09-06_19h14.26.105,rantool2,2021.1.4,Win32,60.0240096,6135e006383e6ea6c3d06a28,61364c3fc6378c2a35caa135,"[""comma""]",0,[0.9950000000000045],78,0,78,0,1
,,,,,,,5f885bf60fdd0c2f49d2ca70,,,,,,5f885bf60fdd0c2f49d2ca70,Mężczyzna,19,2021-09-06_19h14.26.105,rantool2,2021.1.4,Win32,60.0240096,6135e006383e6ea6c3d06a28,61364c3fc6378c2a35caa135,"[""period""]",0,[1.052000000000021],79,0,79,0,1
,,,,,,,5f885bf60fdd0c2f49d2ca70,,,,,,5f885bf60fdd0c2f49d2ca70,Mężczyzna,19,2021-09-06_19h14.26.105,rantool2,2021.1.4,Win32,60.0240096,6135e006383e6ea6c3d06a28,61364c3fc6378c2a35caa135,"[""period""]",0,[0.9359999999999786],80,0,80,0,1
,,,,,,,5f885bf60fdd0c2f49d2ca70,,,,,,5f885bf60fdd0c2f49d2ca70,Mężczyzna,19,2021-09-06_19h14.26.105,rantool2,2021.1.4,Win32,60.0240096,6135e006383e6ea6c3d06a28,61364c3fc6378c2a35caa135,"[""comma""]",0,[1.0009999999999195],81,0,81,0,1
,,,,,,,5f885bf60fdd0c2f49d2ca70,,,,,,5f885bf60fdd0c2f49d2ca70,Mężczyzna,19,2021-09-06_19h14.26.105,rantool2,2021.1.4,Win32,60.0240096,6135e006383e6ea6c3d06a28,61364c3fc6378c2a35caa135,"[""comma""]",0,[0.8899999999999864],82,0,82,0,1
,,,,,,,5f885bf60fdd0c2f49d2ca70,,,,,,5f885bf60fdd0c2f49d2ca70,Mężczyzna,19,2021-09-06_19h14.26.105,rantool2,2021.1.4,Win32,60.0240096,6135e006383e6ea6c3d06a28,61364c3fc6378c2a35caa135,"[""comma""]",0,[0.8440000000000509],83,0,83,0,1
,,,,,,,5f885bf60fdd0c2f49d2ca70,,,,,,5f885bf60fdd0c2f49d2ca70,Mężczyzna,19,2021-09-06_19h14.26.105,rantool2,2021.1.4,Win32,60.0240096,6135e006383e6ea6c3d06a28,61364c3fc6378c2a35caa135,"[""comma""]",0,[0.90300000000002],84,0,84,0,1
,,,,,,,5f885bf60fdd0c2f49d2ca70,,,,,,5f885bf60fdd0c2f49d2ca70,Mężczyzna,19,2021-09-06_19h14.26.105,rantool2,2021.1.4,Win32,60.0240096,6135e006383e6ea6c3d06a28,61364c3fc6378c2a35caa135,"[""comma""]",0,[1.0030000000000427],85,0,85,0,1
,,,,,,,5f885bf60fdd0c2f49d2ca70,,,,,,5f885bf60fdd0c2f49d2ca70,Mężczyzna,19,2021-09-06_19h14.26.105,rantool2,2021.1.4,Win32,60.0240096,6135e006383e6ea6c3d06a28,61364c3fc6378c2a35caa135,"[""comma""]",0,[0.9679999999999609],86,0,86,0,1
,,,,,,,5f885bf60fdd0c2f49d2ca70,,,,,,5f885bf60fdd0c2f49d2ca70,Mężczyzna,19,2021-09-06_19h14.26.105,rantool2,2021.1.4,Win32,60.0240096,6135e006383e6ea6c3d06a28,61364c3fc6378c2a35caa135,"[""comma""]",0,[0.9700000000000273],87,0,87,0,1
,,,,,,,5f885bf60fdd0c2f49d2ca70,,,,,,5f885bf60fdd0c2f49d2ca70,Mężczyzna,19,2021-09-06_19h14.26.105,rantool2,2021.1.4,Win32,60.0240096,6135e006383e6ea6c3d06a28,61364c3fc6378c2a35caa135,"[""period""]",0,[0.9779999999999518],88,0,88,0,1
,,,,,,,5f885bf60fdd0c2f49d2ca70,,,,,,5f885bf60fdd0c2f49d2ca70,Mężczyzna,19,2021-09-06_19h14.26.105,rantool2,2021.1.4,Win32,60.0240096,6135e006383e6ea6c3d06a28,61364c3fc6378c2a35caa135,"[""period""]",0,[0.9089999999999918],89,0,89,0,1
,,,,,,,5f885bf60fdd0c2f49d2ca70,,,,,,5f885bf60fdd0c2f49d2ca70,Mężczyzna,19,2021-09-06_19h14.26.105,rantool2,2021.1.4,Win32,60.0240096,6135e006383e6ea6c3d06a28,61364c3fc6378c2a35caa135,"[""period""]",0,[0.9519999999999982],90,0,90,0,1
,,,,,,,5f885bf60fdd0c2f49d2ca70,,,,,,5f885bf60fdd0c2f49d2ca70,Mężczyzna,19,2021-09-06_19h14.26.105,rantool2,2021.1.4,Win32,60.0240096,6135e006383e6ea6c3d06a28,61364c3fc6378c2a35caa135,"[""comma""]",0,[1.0249999999999773],91,0,91,0,1
,,,,,,,5f885bf60fdd0c2f49d2ca70,,,,,,5f885bf60fdd0c2f49d2ca70,Mężczyzna,19,2021-09-06_19h14.26.105,rantool2,2021.1.4,Win32,60.0240096,6135e006383e6ea6c3d06a28,61364c3fc6378c2a35caa135,"[""period""]",0,[1.0389999999999873],92,0,92,0,1
,,,,,,,5f885bf60fdd0c2f49d2ca70,,,,,,5f885bf60fdd0c2f49d2ca70,Mężczyzna,19,2021-09-06_19h14.26.105,rantool2,2021.1.4,Win32,60.0240096,6135e006383e6ea6c3d06a28,61364c3fc6378c2a35caa135,"[""period""]",0,[1.002999999999929],93,0,93,0,1
,,,,,,,5f885bf60fdd0c2f49d2ca70,,,,,,5f885bf60fdd0c2f49d2ca70,Mężczyzna,19,2021-09-06_19h14.26.105,rantool2,2021.1.4,Win32,60.0240096,6135e006383e6ea6c3d06a28,61364c3fc6378c2a35caa135,"[""period""]",0,[1.0259999999999536],94,0,94,0,1
,,,,,,,5f885bf60fdd0c2f49d2ca70,,,,,,5f885bf60fdd0c2f49d2ca70,Mężczyzna,19,2021-09-06_19h14.26.105,rantool2,2021.1.4,Win32,60.0240096,6135e006383e6ea6c3d06a28,61364c3fc6378c2a35caa135,"[""period""]",0,[1.0230000000000246],95,0,95,0,1
,,,,,,,5f885bf60fdd0c2f49d2ca70,,,,,,5f885bf60fdd0c2f49d2ca70,Mężczyzna,19,2021-09-06_19h14.26.105,rantool2,2021.1.4,Win32,60.0240096,6135e006383e6ea6c3d06a28,61364c3fc6378c2a35caa135,"[""period""]",0,[1.0109999999999673],96,0,96,0,1
,,,,,,,5f885bf60fdd0c2f49d2ca70,,,,,,5f885bf60fdd0c2f49d2ca70,Mężczyzna,19,2021-09-06_19h14.26.105,rantool2,2021.1.4,Win32,60.0240096,6135e006383e6ea6c3d06a28,61364c3fc6378c2a35caa135,"[""period""]",0,[0.7939999999999827],97,0,97,0,1
,,,,,,,5f885bf60fdd0c2f49d2ca70,,,,,,5f885bf60fdd0c2f49d2ca70,Mężczyzna,19,2021-09-06_19h14.26.105,rantool2,2021.1.4,Win32,60.0240096,6135e006383e6ea6c3d06a28,61364c3fc6378c2a35caa135,"[""comma""]",0,[1.0570000000000164],98,0,98,0,1
,,,,,,,5f885bf60fdd0c2f49d2ca70,,,,,,5f885bf60fdd0c2f49d2ca70,Mężczyzna,19,2021-09-06_19h14.26.105,rantool2,2021.1.4,Win32,60.0240096,6135e006383e6ea6c3d06a28,61364c3fc6378c2a35caa135,"[""period""]",0,[1.122000000000071],99,0,99,0,1
,,,,,,,5f885bf60fdd0c2f49d2ca70,,,,,,5f885bf60fdd0c2f49d2ca70,Mężczyzna,19,2021-09-06_19h14.26.105,rantool2,2021.1.4,Win32,60.0240096,6135e006383e6ea6c3d06a28,61364c3fc6378c2a35caa135,"[""period""]",0,[1.0190000000000055],100,0,100,0,1
,,,,,,,5f885bf60fdd0c2f49d2ca70,,,,,,5f885bf60fdd0c2f49d2ca70,Mężczyzna,19,2021-09-06_19h14.26.105,rantool2,2021.1.4,Win32,60.0240096,6135e006383e6ea6c3d06a28,61364c3fc6378c2a35caa135,"[""period""]",0,[0.9850000000000136],101,0,101,0,1
,,,,,,,5f885bf60fdd0c2f49d2ca70,,,,,,5f885bf60fdd0c2f49d2ca70,Mężczyzna,19,2021-09-06_19h14.26.105,rantool2,2021.1.4,Win32,60.0240096,6135e006383e6ea6c3d06a28,61364c3fc6378c2a35caa135,"[""period""]",0,[0.9940000000000282],102,0,102,0,1
,,,,,,,5f885bf60fdd0c2f49d2ca70,,,,,,5f885bf60fdd0c2f49d2ca70,Mężczyzna,19,2021-09-06_19h14.26.105,rantool2,2021.1.4,Win32,60.0240096,6135e006383e6ea6c3d06a28,61364c3fc6378c2a35caa135,"[""period""]",0,[1.052000000000021],103,0,103,0,1
,,,,,,,5f885bf60fdd0c2f49d2ca70,,,,,,5f885bf60fdd0c2f49d2ca70,Mężczyzna,19,2021-09-06_19h14.26.105,rantool2,2021.1.4,Win32,60.0240096,6135e006383e6ea6c3d06a28,61364c3fc6378c2a35caa135,"[""period""]",0,[0.9710000000000036],104,0,104,0,1
,,,,,,,5f885bf60fdd0c2f49d2ca70,,,,,,5f885bf60fdd0c2f49d2ca70,Mężczyzna,19,2021-09-06_19h14.26.105,rantool2,2021.1.4,Win32,60.0240096,6135e006383e6ea6c3d06a28,61364c3fc6378c2a35caa135,"[""comma""]",0,[1.0510000000000446],105,0,105,0,1
,,,,,,,5f885bf60fdd0c2f49d2ca70,,,,,,5f885bf60fdd0c2f49d2ca70,Mężczyzna,19,2021-09-06_19h14.26.105,rantool2,2021.1.4,Win32,60.0240096,6135e006383e6ea6c3d06a28,61364c3fc6378c2a35caa135,"[""comma""]",0,[1.0009999999999764],106,0,106,0,1
,,,,,,,5f885bf60fdd0c2f49d2ca70,,,,,,5f885bf60fdd0c2f49d2ca70,Mężczyzna,19,2021-09-06_19h14.26.105,rantool2,2021.1.4,Win32,60.0240096,6135e006383e6ea6c3d06a28,61364c3fc6378c2a35caa135,"[""period""]",0,[1.0529999999999973],107,0,107,0,1
,,,,,,,5f885bf60fdd0c2f49d2ca70,,,,,,5f885bf60fdd0c2f49d2ca70,Mężczyzna,19,2021-09-06_19h14.26.105,rantool2,2021.1.4,Win32,60.0240096,6135e006383e6ea6c3d06a28,61364c3fc6378c2a35caa135,"[""comma""]",0,[0.9180000000000064],108,0,108,0,1
,,,,,,,5f885bf60fdd0c2f49d2ca70,,,,,,5f885bf60fdd0c2f49d2ca70,Mężczyzna,19,2021-09-06_19h14.26.105,rantool2,2021.1.4,Win32,60.0240096,6135e006383e6ea6c3d06a28,61364c3fc6378c2a35caa135,"[""comma""]",0,[0.8179999999999836],109,0,109,0,1
,,,,,,,5f885bf60fdd0c2f49d2ca70,,,,,,5f885bf60fdd0c2f49d2ca70,Mężczyzna,19,2021-09-06_19h14.26.105,rantool2,2021.1.4,Win32,60.0240096,6135e006383e6ea6c3d06a28,61364c3fc6378c2a35caa135,"[""comma""]",0,[1.0080000000000382],110,0,110,0,1
,,,,,,,5f885bf60fdd0c2f49d2ca70,,,,,,5f885bf60fdd0c2f49d2ca70,Mężczyzna,19,2021-09-06_19h14.26.105,rantool2,2021.1.4,Win32,60.0240096,6135e006383e6ea6c3d06a28,61364c3fc6378c2a35caa135,"[""comma""]",0,[0.9410000000000309],111,0,111,0,1
,,,,,,,5f885bf60fdd0c2f49d2ca70,,,,,,5f885bf60fdd0c2f49d2ca70,Mężczyzna,19,2021-09-06_19h14.26.105,rantool2,2021.1.4,Win32,60.0240096,6135e006383e6ea6c3d06a28,61364c3fc6378c2a35caa135,"[""period""]",0,[0.9360000000000355],112,0,112,0,1
,,,,,,,5f885bf60fdd0c2f49d2ca70,,,,,,5f885bf60fdd0c2f49d2ca70,Mężczyzna,19,2021-09-06_19h14.26.105,rantool2,2021.1.4,Win32,60.0240096,6135e006383e6ea6c3d06a28,61364c3fc6378c2a35caa135,"[""period""]",0,[1.0109999999999673],113,0,113,0,1
,,,,,,,5f885bf60fdd0c2f49d2ca70,,,,,,5f885bf60fdd0c2f49d2ca70,Mężczyzna,19,2021-09-06_19h14.26.105,rantool2,2021.1.4,Win32,60.0240096,6135e006383e6ea6c3d06a28,61364c3fc6378c2a35caa135,"[""comma""]",0,[0.9389999999999645],114,0,114,0,1
,,,,,,,5f885bf60fdd0c2f49d2ca70,,,,,,5f885bf60fdd0c2f49d2ca70,Mężczyzna,19,2021-09-06_19h14.26.105,rantool2,2021.1.4,Win32,60.0240096,6135e006383e6ea6c3d06a28,61364c3fc6378c2a35caa135,"[""period""]",0,[1.0230000000000246],115,0,115,0,1
,,,,,,,5f885bf60fdd0c2f49d2ca70,,,,,,5f885bf60fdd0c2f49d2ca70,Mężczyzna,19,2021-09-06_19h14.26.105,rantool2,2021.1.4,Win32,60.0240096,6135e006383e6ea6c3d06a28,61364c3fc6378c2a35caa135,"[""period""]",0,[1.0860000000000127],116,0,116,0,1
,,,,,,,5f885bf60fdd0c2f49d2ca70,,,,,,5f885bf60fdd0c2f49d2ca70,Mężczyzna,19,2021-09-06_19h14.26.105,rantool2,2021.1.4,Win32,60.0240096,6135e006383e6ea6c3d06a28,61364c3fc6378c2a35caa135,"[""period""]",0,[1.002999999999929],117,0,117,0,1
,,,,,,,5f885bf60fdd0c2f49d2ca70,,,,,,5f885bf60fdd0c2f49d2ca70,Mężczyzna,19,2021-09-06_19h14.26.105,rantool2,2021.1.4,Win32,60.0240096,6135e006383e6ea6c3d06a28,61364c3fc6378c2a35caa135,"[""period""]",0,[0.9239999999999782],118,0,118,0,1
,,,,,,,5f885bf60fdd0c2f49d2ca70,,,,,,5f885bf60fdd0c2f49d2ca70,Mężczyzna,19,2021-09-06_19h14.26.105,rantool2,2021.1.4,Win32,60.0240096,6135e006383e6ea6c3d06a28,61364c3fc6378c2a35caa135,"[""period""]",0,[0.8940000000000055],119,0,119,0,1
