key_resp_7.keys,trials_2.thisRepN,trials_2.thisTrialN,trials_2.thisN,trials_2.thisIndex,trials_2.ran,id,series_0,series_1,acss_0,acss_1,comparison,id*,Płeć*,Wiek*,date,expName,psychopyVersion,OS,frameRate,STUDY_ID,SESSION_ID,key_resp_7.rt,key_resp_5.keys,key_resp_5.corr,key_resp_5.rt,trials.thisRepN,trials.thisTrialN,trials.thisN,trials.thisIndex,trials.ran
,0,0,0,4,1,5f2af95497e197484a72a6df,OOOROOO,OOOROOR,19.91402015,21.21223021,series_1,5f2af95497e197484a72a6df,Kobieta,23,2021-09-06_19h39.42.777,rantool2,2021.1.4,Win32,59.9880024,6135e006383e6ea6c3d06a28,61364fd8d9711dd070445ff1,,,,,,,,,
f,0,1,1,58,1,5f2af95497e197484a72a6df,RRROROO,RRROROR,22.1285618,21.37121559,series_0,5f2af95497e197484a72a6df,Kobieta,23,2021-09-06_19h39.42.777,rantool2,2021.1.4,Win32,59.9880024,6135e006383e6ea6c3d06a28,61364fd8d9711dd070445ff1,1.6018,,,,,,,,
j,0,2,2,18,1,5f2af95497e197484a72a6df,OROOROO,OROOROR,20.84860893,21.22513037,series_1,5f2af95497e197484a72a6df,Kobieta,23,2021-09-06_19h39.42.777,rantool2,2021.1.4,Win32,59.9880024,6135e006383e6ea6c3d06a28,61364fd8d9711dd070445ff1,2.8532,,,,,,,,
f,0,3,3,40,1,5f2af95497e197484a72a6df,ROROOOO,ROROOOR,20.87963819,21.37121559,series_1,5f2af95497e197484a72a6df,Kobieta,23,2021-09-06_19h39.42.777,rantool2,2021.1.4,Win32,59.9880024,6135e006383e6ea6c3d06a28,61364fd8d9711dd070445ff1,1.5684,,,,,,,,
f,0,4,4,49,1,5f2af95497e197484a72a6df,RROOORO,RROOORR,21.76276513,22.53364006,series_1,5f2af95497e197484a72a6df,Kobieta,23,2021-09-06_19h39.42.777,rantool2,2021.1.4,Win32,59.9880024,6135e006383e6ea6c3d06a28,61364fd8d9711dd070445ff1,1.1848,,,,,,,,
j,0,5,5,43,1,5f2af95497e197484a72a6df,RORORRO,RORORRR,20.71309134,21.07490964,series_1,5f2af95497e197484a72a6df,Kobieta,23,2021-09-06_19h39.42.777,rantool2,2021.1.4,Win32,59.9880024,6135e006383e6ea6c3d06a28,61364fd8d9711dd070445ff1,1.7184,,,,,,,,
f,0,6,6,53,1,5f2af95497e197484a72a6df,RRORORO,RRORORR,20.71309134,21.90565814,series_1,5f2af95497e197484a72a6df,Kobieta,23,2021-09-06_19h39.42.777,rantool2,2021.1.4,Win32,59.9880024,6135e006383e6ea6c3d06a28,61364fd8d9711dd070445ff1,2.1267,,,,,,,,
j,0,7,7,51,1,5f2af95497e197484a72a6df,RROORRO,RROORRR,21.89852628,22.02786418,series_1,5f2af95497e197484a72a6df,Kobieta,23,2021-09-06_19h39.42.777,rantool2,2021.1.4,Win32,59.9880024,6135e006383e6ea6c3d06a28,61364fd8d9711dd070445ff1,2.499,,,,,,,,
f,0,8,8,41,1,5f2af95497e197484a72a6df,ROROORO,ROROORR,20.42602454,21.71443381,series_1,5f2af95497e197484a72a6df,Kobieta,23,2021-09-06_19h39.42.777,rantool2,2021.1.4,Win32,59.9880024,6135e006383e6ea6c3d06a28,61364fd8d9711dd070445ff1,2.3023,,,,,,,,
j,0,9,9,24,1,5f2af95497e197484a72a6df,ORROOOO,ORROOOR,21.12383932,22.07102821,series_1,5f2af95497e197484a72a6df,Kobieta,23,2021-09-06_19h39.42.777,rantool2,2021.1.4,Win32,59.9880024,6135e006383e6ea6c3d06a28,61364fd8d9711dd070445ff1,1.5822,,,,,,,,
j,0,10,10,19,1,5f2af95497e197484a72a6df,OROORRO,OROORRR,21.73568164,22.11181017,series_1,5f2af95497e197484a72a6df,Kobieta,23,2021-09-06_19h39.42.777,rantool2,2021.1.4,Win32,59.9880024,6135e006383e6ea6c3d06a28,61364fd8d9711dd070445ff1,1.6646,,,,,,,,
f,0,11,11,42,1,5f2af95497e197484a72a6df,ROROROO,ROROROR,20.39515459,19.8361834,series_0,5f2af95497e197484a72a6df,Kobieta,23,2021-09-06_19h39.42.777,rantool2,2021.1.4,Win32,59.9880024,6135e006383e6ea6c3d06a28,61364fd8d9711dd070445ff1,2.037,,,,,,,,
f,0,12,12,39,1,5f2af95497e197484a72a6df,ROORRRO,ROORRRR,21.82425538,21.38562617,series_0,5f2af95497e197484a72a6df,Kobieta,23,2021-09-06_19h39.42.777,rantool2,2021.1.4,Win32,59.9880024,6135e006383e6ea6c3d06a28,61364fd8d9711dd070445ff1,1.485,,,,,,,,
f,0,13,13,14,1,5f2af95497e197484a72a6df,OORRROO,OORRROR,22.24142883,22.16977179,series_0,5f2af95497e197484a72a6df,Kobieta,23,2021-09-06_19h39.42.777,rantool2,2021.1.4,Win32,59.9880024,6135e006383e6ea6c3d06a28,61364fd8d9711dd070445ff1,1.536,,,,,,,,
j,0,14,14,36,1,5f2af95497e197484a72a6df,ROOROOO,ROOROOR,21.07991943,20.9984461,series_0,5f2af95497e197484a72a6df,Kobieta,23,2021-09-06_19h39.42.777,rantool2,2021.1.4,Win32,59.9880024,6135e006383e6ea6c3d06a28,61364fd8d9711dd070445ff1,1.2792,,,,,,,,
f,0,15,15,10,1,5f2af95497e197484a72a6df,OOROROO,OOROROR,21.31236711,21.07490964,series_0,5f2af95497e197484a72a6df,Kobieta,23,2021-09-06_19h39.42.777,rantool2,2021.1.4,Win32,59.9880024,6135e006383e6ea6c3d06a28,61364fd8d9711dd070445ff1,1.5872,,,,,,,,
j,0,16,16,45,1,5f2af95497e197484a72a6df,RORRORO,RORRORR,20.78182524,21.22513037,series_1,5f2af95497e197484a72a6df,Kobieta,23,2021-09-06_19h39.42.777,rantool2,2021.1.4,Win32,59.9880024,6135e006383e6ea6c3d06a28,61364fd8d9711dd070445ff1,2.3416,,,,,,,,
j,0,17,17,27,1,5f2af95497e197484a72a6df,ORRORRO,ORRORRR,21.55250791,22.2428857,series_1,5f2af95497e197484a72a6df,Kobieta,23,2021-09-06_19h39.42.777,rantool2,2021.1.4,Win32,59.9880024,6135e006383e6ea6c3d06a28,61364fd8d9711dd070445ff1,2.9028,,,,,,,,
f,0,18,18,32,1,5f2af95497e197484a72a6df,ROOOOOO,ROOOOOR,19.92253567,21.27974287,series_1,5f2af95497e197484a72a6df,Kobieta,23,2021-09-06_19h39.42.777,rantool2,2021.1.4,Win32,59.9880024,6135e006383e6ea6c3d06a28,61364fd8d9711dd070445ff1,1.4287,,,,,,,,
j,0,19,19,22,1,5f2af95497e197484a72a6df,ORORROO,ORORROR,22.02732763,21.57657071,series_0,5f2af95497e197484a72a6df,Kobieta,23,2021-09-06_19h39.42.777,rantool2,2021.1.4,Win32,59.9880024,6135e006383e6ea6c3d06a28,61364fd8d9711dd070445ff1,1.6031,,,,,,,,
j,0,20,20,44,1,5f2af95497e197484a72a6df,RORROOO,RORROOR,21.66733484,22.02566557,series_1,5f2af95497e197484a72a6df,Kobieta,23,2021-09-06_19h39.42.777,rantool2,2021.1.4,Win32,59.9880024,6135e006383e6ea6c3d06a28,61364fd8d9711dd070445ff1,1.687,,,,,,,,
f,0,21,21,59,1,5f2af95497e197484a72a6df,RRRORRO,RRRORRR,21.56657303,20.89823192,series_0,5f2af95497e197484a72a6df,Kobieta,23,2021-09-06_19h39.42.777,rantool2,2021.1.4,Win32,59.9880024,6135e006383e6ea6c3d06a28,61364fd8d9711dd070445ff1,1.376,,,,,,,,
j,0,22,22,20,1,5f2af95497e197484a72a6df,OROROOO,OROROOR,21.31236711,21.90565814,series_1,5f2af95497e197484a72a6df,Kobieta,23,2021-09-06_19h39.42.777,rantool2,2021.1.4,Win32,59.9880024,6135e006383e6ea6c3d06a28,61364fd8d9711dd070445ff1,1.788,,,,,,,,
f,0,23,23,7,1,5f2af95497e197484a72a6df,OOORRRO,OOORRRR,21.6194508,21.899017,series_1,5f2af95497e197484a72a6df,Kobieta,23,2021-09-06_19h39.42.777,rantool2,2021.1.4,Win32,59.9880024,6135e006383e6ea6c3d06a28,61364fd8d9711dd070445ff1,2.1023,,,,,,,,
j,0,24,24,23,1,5f2af95497e197484a72a6df,ORORRRO,ORORRRR,22.1285618,21.9921709,series_0,5f2af95497e197484a72a6df,Kobieta,23,2021-09-06_19h39.42.777,rantool2,2021.1.4,Win32,59.9880024,6135e006383e6ea6c3d06a28,61364fd8d9711dd070445ff1,1.3156,,,,,,,,
f,0,25,25,21,1,5f2af95497e197484a72a6df,ORORORO,ORORORR,20.39515459,22.06781359,series_1,5f2af95497e197484a72a6df,Kobieta,23,2021-09-06_19h39.42.777,rantool2,2021.1.4,Win32,59.9880024,6135e006383e6ea6c3d06a28,61364fd8d9711dd070445ff1,1.3179,,,,,,,,
j,0,26,26,62,1,5f2af95497e197484a72a6df,RRRRROO,RRRRROR,22.16413392,21.27974287,series_0,5f2af95497e197484a72a6df,Kobieta,23,2021-09-06_19h39.42.777,rantool2,2021.1.4,Win32,59.9880024,6135e006383e6ea6c3d06a28,61364fd8d9711dd070445ff1,1.1296,,,,,,,,
j,0,27,27,15,1,5f2af95497e197484a72a6df,OORRRRO,OORRRRR,22.10108823,21.74922619,series_0,5f2af95497e197484a72a6df,Kobieta,23,2021-09-06_19h39.42.777,rantool2,2021.1.4,Win32,59.9880024,6135e006383e6ea6c3d06a28,61364fd8d9711dd070445ff1,1.4853,,,,,,,,
f,0,28,28,12,1,5f2af95497e197484a72a6df,OORROOO,OORROOR,21.30250474,22.02786418,series_1,5f2af95497e197484a72a6df,Kobieta,23,2021-09-06_19h39.42.777,rantool2,2021.1.4,Win32,59.9880024,6135e006383e6ea6c3d06a28,61364fd8d9711dd070445ff1,1.0768,,,,,,,,
j,0,29,29,3,1,5f2af95497e197484a72a6df,OOOORRO,OOOORRR,20.90986523,21.74922619,series_1,5f2af95497e197484a72a6df,Kobieta,23,2021-09-06_19h39.42.777,rantool2,2021.1.4,Win32,59.9880024,6135e006383e6ea6c3d06a28,61364fd8d9711dd070445ff1,2.4052,,,,,,,,
f,0,30,30,11,1,5f2af95497e197484a72a6df,OORORRO,OORORRR,22.18365867,22.6797523,series_1,5f2af95497e197484a72a6df,Kobieta,23,2021-09-06_19h39.42.777,rantool2,2021.1.4,Win32,59.9880024,6135e006383e6ea6c3d06a28,61364fd8d9711dd070445ff1,1.1349,,,,,,,,
j,0,31,31,48,1,5f2af95497e197484a72a6df,RROOOOO,RROOOOR,20.90986523,22.15934078,series_1,5f2af95497e197484a72a6df,Kobieta,23,2021-09-06_19h39.42.777,rantool2,2021.1.4,Win32,59.9880024,6135e006383e6ea6c3d06a28,61364fd8d9711dd070445ff1,1.1698,,,,,,,,
f,0,32,32,38,1,5f2af95497e197484a72a6df,ROORROO,ROORROR,21.79500819,21.36812781,series_0,5f2af95497e197484a72a6df,Kobieta,23,2021-09-06_19h39.42.777,rantool2,2021.1.4,Win32,59.9880024,6135e006383e6ea6c3d06a28,61364fd8d9711dd070445ff1,1.0164,,,,,,,,
f,0,33,33,61,1,5f2af95497e197484a72a6df,RRRRORO,RRRRORR,21.81333602,21.17347734,series_0,5f2af95497e197484a72a6df,Kobieta,23,2021-09-06_19h39.42.777,rantool2,2021.1.4,Win32,59.9880024,6135e006383e6ea6c3d06a28,61364fd8d9711dd070445ff1,1.1539,,,,,,,,
f,0,34,34,63,1,5f2af95497e197484a72a6df,RRRRRRO,RRRRRRR,21.35278725,19.62521613,series_0,5f2af95497e197484a72a6df,Kobieta,23,2021-09-06_19h39.42.777,rantool2,2021.1.4,Win32,59.9880024,6135e006383e6ea6c3d06a28,61364fd8d9711dd070445ff1,0.7884,,,,,,,,
j,0,35,35,6,1,5f2af95497e197484a72a6df,OOORROO,OOORROR,21.12383932,21.38562617,series_1,5f2af95497e197484a72a6df,Kobieta,23,2021-09-06_19h39.42.777,rantool2,2021.1.4,Win32,59.9880024,6135e006383e6ea6c3d06a28,61364fd8d9711dd070445ff1,1.0972,,,,,,,,
f,0,36,36,34,1,5f2af95497e197484a72a6df,ROOOROO,ROOOROR,21.03750787,21.24781509,series_1,5f2af95497e197484a72a6df,Kobieta,23,2021-09-06_19h39.42.777,rantool2,2021.1.4,Win32,59.9880024,6135e006383e6ea6c3d06a28,61364fd8d9711dd070445ff1,1.1513,,,,,,,,
j,0,37,37,57,1,5f2af95497e197484a72a6df,RRROORO,RRROORR,21.82425538,22.07102821,series_1,5f2af95497e197484a72a6df,Kobieta,23,2021-09-06_19h39.42.777,rantool2,2021.1.4,Win32,59.9880024,6135e006383e6ea6c3d06a28,61364fd8d9711dd070445ff1,0.9431,,,,,,,,
f,0,38,38,46,1,5f2af95497e197484a72a6df,RORRROO,RORRROR,22.00300695,21.24781509,series_0,5f2af95497e197484a72a6df,Kobieta,23,2021-09-06_19h39.42.777,rantool2,2021.1.4,Win32,59.9880024,6135e006383e6ea6c3d06a28,61364fd8d9711dd070445ff1,1.1385,,,,,,,,
j,0,39,39,0,1,5f2af95497e197484a72a6df,OOOOOOO,OOOOOOR,18.52739004,19.62521613,series_1,5f2af95497e197484a72a6df,Kobieta,23,2021-09-06_19h39.42.777,rantool2,2021.1.4,Win32,59.9880024,6135e006383e6ea6c3d06a28,61364fd8d9711dd070445ff1,1.2348,,,,,,,,
j,0,40,40,50,1,5f2af95497e197484a72a6df,RROOROO,RROOROR,21.73568164,22.02566557,series_1,5f2af95497e197484a72a6df,Kobieta,23,2021-09-06_19h39.42.777,rantool2,2021.1.4,Win32,59.9880024,6135e006383e6ea6c3d06a28,61364fd8d9711dd070445ff1,1.129,,,,,,,,
f,0,41,41,28,1,5f2af95497e197484a72a6df,ORRROOO,ORRROOR,22.24142883,22.53364006,series_1,5f2af95497e197484a72a6df,Kobieta,23,2021-09-06_19h39.42.777,rantool2,2021.1.4,Win32,59.9880024,6135e006383e6ea6c3d06a28,61364fd8d9711dd070445ff1,1.0512,,,,,,,,
j,0,42,42,37,1,5f2af95497e197484a72a6df,ROORORO,ROORORR,20.42602454,21.57657071,series_1,5f2af95497e197484a72a6df,Kobieta,23,2021-09-06_19h39.42.777,rantool2,2021.1.4,Win32,59.9880024,6135e006383e6ea6c3d06a28,61364fd8d9711dd070445ff1,0.8475,,,,,,,,
j,0,43,43,25,1,5f2af95497e197484a72a6df,ORROORO,ORROORR,21.79500819,22.61624387,series_1,5f2af95497e197484a72a6df,Kobieta,23,2021-09-06_19h39.42.777,rantool2,2021.1.4,Win32,59.9880024,6135e006383e6ea6c3d06a28,61364fd8d9711dd070445ff1,0.9312,,,,,,,,
j,0,44,44,1,1,5f2af95497e197484a72a6df,OOOOORO,OOOOORR,19.92253567,20.74050628,series_1,5f2af95497e197484a72a6df,Kobieta,23,2021-09-06_19h39.42.777,rantool2,2021.1.4,Win32,59.9880024,6135e006383e6ea6c3d06a28,61364fd8d9711dd070445ff1,1.0284,,,,,,,,
f,0,45,45,16,1,5f2af95497e197484a72a6df,OROOOOO,OROOOOR,20.43051175,21.17347734,series_1,5f2af95497e197484a72a6df,Kobieta,23,2021-09-06_19h39.42.777,rantool2,2021.1.4,Win32,59.9880024,6135e006383e6ea6c3d06a28,61364fd8d9711dd070445ff1,0.9376,,,,,,,,
f,0,46,46,31,1,5f2af95497e197484a72a6df,ORRRRRO,ORRRRRR,22.16413392,20.74050628,series_0,5f2af95497e197484a72a6df,Kobieta,23,2021-09-06_19h39.42.777,rantool2,2021.1.4,Win32,59.9880024,6135e006383e6ea6c3d06a28,61364fd8d9711dd070445ff1,0.9592,,,,,,,,
f,0,47,47,2,1,5f2af95497e197484a72a6df,OOOOROO,OOOOROR,20.43051175,21.02936224,series_1,5f2af95497e197484a72a6df,Kobieta,23,2021-09-06_19h39.42.777,rantool2,2021.1.4,Win32,59.9880024,6135e006383e6ea6c3d06a28,61364fd8d9711dd070445ff1,0.9363,,,,,,,,
f,0,48,48,5,1,5f2af95497e197484a72a6df,OOORORO,OOORORR,20.87963819,21.9921709,series_1,5f2af95497e197484a72a6df,Kobieta,23,2021-09-06_19h39.42.777,rantool2,2021.1.4,Win32,59.9880024,6135e006383e6ea6c3d06a28,61364fd8d9711dd070445ff1,2.0299,,,,,,,,
j,0,49,49,8,1,5f2af95497e197484a72a6df,OOROOOO,OOROOOR,19.91402015,20.89823192,series_1,5f2af95497e197484a72a6df,Kobieta,23,2021-09-06_19h39.42.777,rantool2,2021.1.4,Win32,59.9880024,6135e006383e6ea6c3d06a28,61364fd8d9711dd070445ff1,1.6121,,,,,,,,
f,0,50,50,13,1,5f2af95497e197484a72a6df,OORRORO,OORRORR,21.66733484,22.11181017,series_1,5f2af95497e197484a72a6df,Kobieta,23,2021-09-06_19h39.42.777,rantool2,2021.1.4,Win32,59.9880024,6135e006383e6ea6c3d06a28,61364fd8d9711dd070445ff1,1.9688,,,,,,,,
f,0,51,51,47,1,5f2af95497e197484a72a6df,RORRRRO,RORRRRR,21.81333602,21.02936224,series_0,5f2af95497e197484a72a6df,Kobieta,23,2021-09-06_19h39.42.777,rantool2,2021.1.4,Win32,59.9880024,6135e006383e6ea6c3d06a28,61364fd8d9711dd070445ff1,1.2348,,,,,,,,
f,0,52,52,56,1,5f2af95497e197484a72a6df,RRROOOO,RRROOOR,21.6194508,22.31681875,series_1,5f2af95497e197484a72a6df,Kobieta,23,2021-09-06_19h39.42.777,rantool2,2021.1.4,Win32,59.9880024,6135e006383e6ea6c3d06a28,61364fd8d9711dd070445ff1,1.5518,,,,,,,,
j,0,53,53,9,1,5f2af95497e197484a72a6df,OOROORO,OOROORR,21.07991943,22.2428857,series_1,5f2af95497e197484a72a6df,Kobieta,23,2021-09-06_19h39.42.777,rantool2,2021.1.4,Win32,59.9880024,6135e006383e6ea6c3d06a28,61364fd8d9711dd070445ff1,1.0549,,,,,,,,
j,0,54,54,55,1,5f2af95497e197484a72a6df,RRORRRO,RRORRRR,21.56657303,21.21223021,series_0,5f2af95497e197484a72a6df,Kobieta,23,2021-09-06_19h39.42.777,rantool2,2021.1.4,Win32,59.9880024,6135e006383e6ea6c3d06a28,61364fd8d9711dd070445ff1,1.7626,,,,,,,,
f,0,55,55,26,1,5f2af95497e197484a72a6df,ORROROO,ORROROR,22.02732763,21.71443381,series_0,5f2af95497e197484a72a6df,Kobieta,23,2021-09-06_19h39.42.777,rantool2,2021.1.4,Win32,59.9880024,6135e006383e6ea6c3d06a28,61364fd8d9711dd070445ff1,0.6901,,,,,,,,
j,0,56,56,29,1,5f2af95497e197484a72a6df,ORRRORO,ORRRORR,22.00300695,22.12173012,series_1,5f2af95497e197484a72a6df,Kobieta,23,2021-09-06_19h39.42.777,rantool2,2021.1.4,Win32,59.9880024,6135e006383e6ea6c3d06a28,61364fd8d9711dd070445ff1,0.6109,,,,,,,,
f,0,57,57,30,1,5f2af95497e197484a72a6df,ORRRROO,ORRRROR,22.46748491,22.03072203,series_0,5f2af95497e197484a72a6df,Kobieta,23,2021-09-06_19h39.42.777,rantool2,2021.1.4,Win32,59.9880024,6135e006383e6ea6c3d06a28,61364fd8d9711dd070445ff1,1.313,,,,,,,,
j,0,58,58,17,1,5f2af95497e197484a72a6df,OROOORO,OROOORR,21.03750787,22.12173012,series_1,5f2af95497e197484a72a6df,Kobieta,23,2021-09-06_19h39.42.777,rantool2,2021.1.4,Win32,59.9880024,6135e006383e6ea6c3d06a28,61364fd8d9711dd070445ff1,1.3155,,,,,,,,
f,0,59,59,54,1,5f2af95497e197484a72a6df,RRORROO,RRORROR,21.55250791,20.9984461,series_0,5f2af95497e197484a72a6df,Kobieta,23,2021-09-06_19h39.42.777,rantool2,2021.1.4,Win32,59.9880024,6135e006383e6ea6c3d06a28,61364fd8d9711dd070445ff1,1.0112,,,,,,,,
j,0,60,60,33,1,5f2af95497e197484a72a6df,ROOOORO,ROOOORR,20.83779602,22.03072203,series_1,5f2af95497e197484a72a6df,Kobieta,23,2021-09-06_19h39.42.777,rantool2,2021.1.4,Win32,59.9880024,6135e006383e6ea6c3d06a28,61364fd8d9711dd070445ff1,0.7064,,,,,,,,
j,0,61,61,35,1,5f2af95497e197484a72a6df,ROOORRO,ROOORRR,21.76276513,22.16977179,series_1,5f2af95497e197484a72a6df,Kobieta,23,2021-09-06_19h39.42.777,rantool2,2021.1.4,Win32,59.9880024,6135e006383e6ea6c3d06a28,61364fd8d9711dd070445ff1,1.1891,,,,,,,,
j,0,62,62,60,1,5f2af95497e197484a72a6df,RRRROOO,RRRROOR,22.10108823,22.15934078,series_1,5f2af95497e197484a72a6df,Kobieta,23,2021-09-06_19h39.42.777,rantool2,2021.1.4,Win32,59.9880024,6135e006383e6ea6c3d06a28,61364fd8d9711dd070445ff1,0.7405,,,,,,,,
j,0,63,63,52,1,5f2af95497e197484a72a6df,RROROOO,RROROOR,22.18365867,22.11097995,series_0,5f2af95497e197484a72a6df,Kobieta,23,2021-09-06_19h39.42.777,rantool2,2021.1.4,Win32,59.9880024,6135e006383e6ea6c3d06a28,61364fd8d9711dd070445ff1,0.8182,,,,,,,,
,,,,,,5f2af95497e197484a72a6df,,,,,,5f2af95497e197484a72a6df,Kobieta,23,2021-09-06_19h39.42.777,rantool2,2021.1.4,Win32,59.9880024,6135e006383e6ea6c3d06a28,61364fd8d9711dd070445ff1,,0,,,0,0,0,0,1
,,,,,,5f2af95497e197484a72a6df,,,,,,5f2af95497e197484a72a6df,Kobieta,23,2021-09-06_19h39.42.777,rantool2,2021.1.4,Win32,59.9880024,6135e006383e6ea6c3d06a28,61364fd8d9711dd070445ff1,,"[""comma""]",0,[0.520300000000077],1,0,1,0,1
,,,,,,5f2af95497e197484a72a6df,,,,,,5f2af95497e197484a72a6df,Kobieta,23,2021-09-06_19h39.42.777,rantool2,2021.1.4,Win32,59.9880024,6135e006383e6ea6c3d06a28,61364fd8d9711dd070445ff1,,"[""period"",""period""]",0,"[0.26870000000008076,0.9515999999999849]",2,0,2,0,1
,,,,,,5f2af95497e197484a72a6df,,,,,,5f2af95497e197484a72a6df,Kobieta,23,2021-09-06_19h39.42.777,rantool2,2021.1.4,Win32,59.9880024,6135e006383e6ea6c3d06a28,61364fd8d9711dd070445ff1,,"[""period""]",0,[0.3509999999999991],3,0,3,0,1
,,,,,,5f2af95497e197484a72a6df,,,,,,5f2af95497e197484a72a6df,Kobieta,23,2021-09-06_19h39.42.777,rantool2,2021.1.4,Win32,59.9880024,6135e006383e6ea6c3d06a28,61364fd8d9711dd070445ff1,,"[""comma""]",0,[0.2924000000000433],4,0,4,0,1
,,,,,,5f2af95497e197484a72a6df,,,,,,5f2af95497e197484a72a6df,Kobieta,23,2021-09-06_19h39.42.777,rantool2,2021.1.4,Win32,59.9880024,6135e006383e6ea6c3d06a28,61364fd8d9711dd070445ff1,,"[""period""]",0,[0.2400000000000091],5,0,5,0,1
,,,,,,5f2af95497e197484a72a6df,,,,,,5f2af95497e197484a72a6df,Kobieta,23,2021-09-06_19h39.42.777,rantool2,2021.1.4,Win32,59.9880024,6135e006383e6ea6c3d06a28,61364fd8d9711dd070445ff1,,"[""comma""]",0,[0.28720000000009804],6,0,6,0,1
,,,,,,5f2af95497e197484a72a6df,,,,,,5f2af95497e197484a72a6df,Kobieta,23,2021-09-06_19h39.42.777,rantool2,2021.1.4,Win32,59.9880024,6135e006383e6ea6c3d06a28,61364fd8d9711dd070445ff1,,"[""period""]",0,[0.27649999999999864],7,0,7,0,1
,,,,,,5f2af95497e197484a72a6df,,,,,,5f2af95497e197484a72a6df,Kobieta,23,2021-09-06_19h39.42.777,rantool2,2021.1.4,Win32,59.9880024,6135e006383e6ea6c3d06a28,61364fd8d9711dd070445ff1,,"[""period""]",0,[0.2910999999999717],8,0,8,0,1
,,,,,,5f2af95497e197484a72a6df,,,,,,5f2af95497e197484a72a6df,Kobieta,23,2021-09-06_19h39.42.777,rantool2,2021.1.4,Win32,59.9880024,6135e006383e6ea6c3d06a28,61364fd8d9711dd070445ff1,,"[""period""]",0,[0.28030000000006794],9,0,9,0,1
,,,,,,5f2af95497e197484a72a6df,,,,,,5f2af95497e197484a72a6df,Kobieta,23,2021-09-06_19h39.42.777,rantool2,2021.1.4,Win32,59.9880024,6135e006383e6ea6c3d06a28,61364fd8d9711dd070445ff1,,"[""period""]",0,[0.26909999999998035],10,0,10,0,1
,,,,,,5f2af95497e197484a72a6df,,,,,,5f2af95497e197484a72a6df,Kobieta,23,2021-09-06_19h39.42.777,rantool2,2021.1.4,Win32,59.9880024,6135e006383e6ea6c3d06a28,61364fd8d9711dd070445ff1,,"[""comma""]",0,[0.29120000000000346],11,0,11,0,1
,,,,,,5f2af95497e197484a72a6df,,,,,,5f2af95497e197484a72a6df,Kobieta,23,2021-09-06_19h39.42.777,rantool2,2021.1.4,Win32,59.9880024,6135e006383e6ea6c3d06a28,61364fd8d9711dd070445ff1,,"[""comma""]",0,[0.27659999999997353],12,0,12,0,1
,,,,,,5f2af95497e197484a72a6df,,,,,,5f2af95497e197484a72a6df,Kobieta,23,2021-09-06_19h39.42.777,rantool2,2021.1.4,Win32,59.9880024,6135e006383e6ea6c3d06a28,61364fd8d9711dd070445ff1,,"[""comma""]",0,[0.28600000000000136],13,0,13,0,1
,,,,,,5f2af95497e197484a72a6df,,,,,,5f2af95497e197484a72a6df,Kobieta,23,2021-09-06_19h39.42.777,rantool2,2021.1.4,Win32,59.9880024,6135e006383e6ea6c3d06a28,61364fd8d9711dd070445ff1,,"[""comma""]",0,[0.2924000000000433],14,0,14,0,1
,,,,,,5f2af95497e197484a72a6df,,,,,,5f2af95497e197484a72a6df,Kobieta,23,2021-09-06_19h39.42.777,rantool2,2021.1.4,Win32,59.9880024,6135e006383e6ea6c3d06a28,61364fd8d9711dd070445ff1,,"[""period""]",0,[0.23969999999997071],15,0,15,0,1
,,,,,,5f2af95497e197484a72a6df,,,,,,5f2af95497e197484a72a6df,Kobieta,23,2021-09-06_19h39.42.777,rantool2,2021.1.4,Win32,59.9880024,6135e006383e6ea6c3d06a28,61364fd8d9711dd070445ff1,,"[""period""]",0,[0.2008999999999901],16,0,16,0,1
,,,,,,5f2af95497e197484a72a6df,,,,,,5f2af95497e197484a72a6df,Kobieta,23,2021-09-06_19h39.42.777,rantool2,2021.1.4,Win32,59.9880024,6135e006383e6ea6c3d06a28,61364fd8d9711dd070445ff1,,"[""comma""]",0,[0.35849999999999227],17,0,17,0,1
,,,,,,5f2af95497e197484a72a6df,,,,,,5f2af95497e197484a72a6df,Kobieta,23,2021-09-06_19h39.42.777,rantool2,2021.1.4,Win32,59.9880024,6135e006383e6ea6c3d06a28,61364fd8d9711dd070445ff1,,"[""comma""]",0,[0.30709999999999127],18,0,18,0,1
,,,,,,5f2af95497e197484a72a6df,,,,,,5f2af95497e197484a72a6df,Kobieta,23,2021-09-06_19h39.42.777,rantool2,2021.1.4,Win32,59.9880024,6135e006383e6ea6c3d06a28,61364fd8d9711dd070445ff1,,"[""period""]",0,[0.4984000000000606],19,0,19,0,1
,,,,,,5f2af95497e197484a72a6df,,,,,,5f2af95497e197484a72a6df,Kobieta,23,2021-09-06_19h39.42.777,rantool2,2021.1.4,Win32,59.9880024,6135e006383e6ea6c3d06a28,61364fd8d9711dd070445ff1,,"[""comma""]",0,[0.5369999999999777],20,0,20,0,1
,,,,,,5f2af95497e197484a72a6df,,,,,,5f2af95497e197484a72a6df,Kobieta,23,2021-09-06_19h39.42.777,rantool2,2021.1.4,Win32,59.9880024,6135e006383e6ea6c3d06a28,61364fd8d9711dd070445ff1,,"[""period""]",0,[0.26959999999996853],21,0,21,0,1
,,,,,,5f2af95497e197484a72a6df,,,,,,5f2af95497e197484a72a6df,Kobieta,23,2021-09-06_19h39.42.777,rantool2,2021.1.4,Win32,59.9880024,6135e006383e6ea6c3d06a28,61364fd8d9711dd070445ff1,,"[""comma""]",0,[0.5116999999999621],22,0,22,0,1
,,,,,,5f2af95497e197484a72a6df,,,,,,5f2af95497e197484a72a6df,Kobieta,23,2021-09-06_19h39.42.777,rantool2,2021.1.4,Win32,59.9880024,6135e006383e6ea6c3d06a28,61364fd8d9711dd070445ff1,,"[""comma""]",0,[0.4060000000000059],23,0,23,0,1
,,,,,,5f2af95497e197484a72a6df,,,,,,5f2af95497e197484a72a6df,Kobieta,23,2021-09-06_19h39.42.777,rantool2,2021.1.4,Win32,59.9880024,6135e006383e6ea6c3d06a28,61364fd8d9711dd070445ff1,,"[""period""]",0,[0.31089999999989004],24,0,24,0,1
,,,,,,5f2af95497e197484a72a6df,,,,,,5f2af95497e197484a72a6df,Kobieta,23,2021-09-06_19h39.42.777,rantool2,2021.1.4,Win32,59.9880024,6135e006383e6ea6c3d06a28,61364fd8d9711dd070445ff1,,"[""comma""]",0,[0.3135000000000332],25,0,25,0,1
,,,,,,5f2af95497e197484a72a6df,,,,,,5f2af95497e197484a72a6df,Kobieta,23,2021-09-06_19h39.42.777,rantool2,2021.1.4,Win32,59.9880024,6135e006383e6ea6c3d06a28,61364fd8d9711dd070445ff1,,"[""comma""]",0,[0.31479999999993424],26,0,26,0,1
,,,,,,5f2af95497e197484a72a6df,,,,,,5f2af95497e197484a72a6df,Kobieta,23,2021-09-06_19h39.42.777,rantool2,2021.1.4,Win32,59.9880024,6135e006383e6ea6c3d06a28,61364fd8d9711dd070445ff1,,"[""comma""]",0,[0.3178000000000907],27,0,27,0,1
,,,,,,5f2af95497e197484a72a6df,,,,,,5f2af95497e197484a72a6df,Kobieta,23,2021-09-06_19h39.42.777,rantool2,2021.1.4,Win32,59.9880024,6135e006383e6ea6c3d06a28,61364fd8d9711dd070445ff1,,"[""period""]",0,[0.31790000000000873],28,0,28,0,1
,,,,,,5f2af95497e197484a72a6df,,,,,,5f2af95497e197484a72a6df,Kobieta,23,2021-09-06_19h39.42.777,rantool2,2021.1.4,Win32,59.9880024,6135e006383e6ea6c3d06a28,61364fd8d9711dd070445ff1,,"[""period""]",0,[0.25409999999993715],29,0,29,0,1
,,,,,,5f2af95497e197484a72a6df,,,,,,5f2af95497e197484a72a6df,Kobieta,23,2021-09-06_19h39.42.777,rantool2,2021.1.4,Win32,59.9880024,6135e006383e6ea6c3d06a28,61364fd8d9711dd070445ff1,,"[""comma""]",0,[0.334199999999953],30,0,30,0,1
,,,,,,5f2af95497e197484a72a6df,,,,,,5f2af95497e197484a72a6df,Kobieta,23,2021-09-06_19h39.42.777,rantool2,2021.1.4,Win32,59.9880024,6135e006383e6ea6c3d06a28,61364fd8d9711dd070445ff1,,"[""period""]",0,[0.33619999999996253],31,0,31,0,1
,,,,,,5f2af95497e197484a72a6df,,,,,,5f2af95497e197484a72a6df,Kobieta,23,2021-09-06_19h39.42.777,rantool2,2021.1.4,Win32,59.9880024,6135e006383e6ea6c3d06a28,61364fd8d9711dd070445ff1,,"[""comma""]",0,[0.3177000000000021],32,0,32,0,1
,,,,,,5f2af95497e197484a72a6df,,,,,,5f2af95497e197484a72a6df,Kobieta,23,2021-09-06_19h39.42.777,rantool2,2021.1.4,Win32,59.9880024,6135e006383e6ea6c3d06a28,61364fd8d9711dd070445ff1,,"[""comma""]",0,[0.3375000000000341],33,0,33,0,1
,,,,,,5f2af95497e197484a72a6df,,,,,,5f2af95497e197484a72a6df,Kobieta,23,2021-09-06_19h39.42.777,rantool2,2021.1.4,Win32,59.9880024,6135e006383e6ea6c3d06a28,61364fd8d9711dd070445ff1,,"[""comma""]",0,[0.2949999999999591],34,0,34,0,1
,,,,,,5f2af95497e197484a72a6df,,,,,,5f2af95497e197484a72a6df,Kobieta,23,2021-09-06_19h39.42.777,rantool2,2021.1.4,Win32,59.9880024,6135e006383e6ea6c3d06a28,61364fd8d9711dd070445ff1,,"[""period""]",0,[0.2715000000000032],35,0,35,0,1
,,,,,,5f2af95497e197484a72a6df,,,,,,5f2af95497e197484a72a6df,Kobieta,23,2021-09-06_19h39.42.777,rantool2,2021.1.4,Win32,59.9880024,6135e006383e6ea6c3d06a28,61364fd8d9711dd070445ff1,,"[""comma""]",0,[0.3058000000000334],36,0,36,0,1
,,,,,,5f2af95497e197484a72a6df,,,,,,5f2af95497e197484a72a6df,Kobieta,23,2021-09-06_19h39.42.777,rantool2,2021.1.4,Win32,59.9880024,6135e006383e6ea6c3d06a28,61364fd8d9711dd070445ff1,,"[""period""]",0,[0.29549999999994725],37,0,37,0,1
,,,,,,5f2af95497e197484a72a6df,,,,,,5f2af95497e197484a72a6df,Kobieta,23,2021-09-06_19h39.42.777,rantool2,2021.1.4,Win32,59.9880024,6135e006383e6ea6c3d06a28,61364fd8d9711dd070445ff1,,"[""comma""]",0,[0.40469999999993433],38,0,38,0,1
,,,,,,5f2af95497e197484a72a6df,,,,,,5f2af95497e197484a72a6df,Kobieta,23,2021-09-06_19h39.42.777,rantool2,2021.1.4,Win32,59.9880024,6135e006383e6ea6c3d06a28,61364fd8d9711dd070445ff1,,"[""period""]",0,[0.26909999999998035],39,0,39,0,1
,,,,,,5f2af95497e197484a72a6df,,,,,,5f2af95497e197484a72a6df,Kobieta,23,2021-09-06_19h39.42.777,rantool2,2021.1.4,Win32,59.9880024,6135e006383e6ea6c3d06a28,61364fd8d9711dd070445ff1,,"[""comma""]",0,[0.34140000000002146],40,0,40,0,1
,,,,,,5f2af95497e197484a72a6df,,,,,,5f2af95497e197484a72a6df,Kobieta,23,2021-09-06_19h39.42.777,rantool2,2021.1.4,Win32,59.9880024,6135e006383e6ea6c3d06a28,61364fd8d9711dd070445ff1,,"[""period""]",0,[0.33880000000004884],41,0,41,0,1
,,,,,,5f2af95497e197484a72a6df,,,,,,5f2af95497e197484a72a6df,Kobieta,23,2021-09-06_19h39.42.777,rantool2,2021.1.4,Win32,59.9880024,6135e006383e6ea6c3d06a28,61364fd8d9711dd070445ff1,,"[""comma""]",0,[0.27839999999986276],42,0,42,0,1
,,,,,,5f2af95497e197484a72a6df,,,,,,5f2af95497e197484a72a6df,Kobieta,23,2021-09-06_19h39.42.777,rantool2,2021.1.4,Win32,59.9880024,6135e006383e6ea6c3d06a28,61364fd8d9711dd070445ff1,,"[""comma""]",0,[0.3050000000000068],43,0,43,0,1
,,,,,,5f2af95497e197484a72a6df,,,,,,5f2af95497e197484a72a6df,Kobieta,23,2021-09-06_19h39.42.777,rantool2,2021.1.4,Win32,59.9880024,6135e006383e6ea6c3d06a28,61364fd8d9711dd070445ff1,,"[""period""]",0,[0.28509999999994307],44,0,44,0,1
,,,,,,5f2af95497e197484a72a6df,,,,,,5f2af95497e197484a72a6df,Kobieta,23,2021-09-06_19h39.42.777,rantool2,2021.1.4,Win32,59.9880024,6135e006383e6ea6c3d06a28,61364fd8d9711dd070445ff1,,"[""period""]",0,[0.27450000000004593],45,0,45,0,1
,,,,,,5f2af95497e197484a72a6df,,,,,,5f2af95497e197484a72a6df,Kobieta,23,2021-09-06_19h39.42.777,rantool2,2021.1.4,Win32,59.9880024,6135e006383e6ea6c3d06a28,61364fd8d9711dd070445ff1,,"[""period""]",0,[0.1735999999999649],46,0,46,0,1
,,,,,,5f2af95497e197484a72a6df,,,,,,5f2af95497e197484a72a6df,Kobieta,23,2021-09-06_19h39.42.777,rantool2,2021.1.4,Win32,59.9880024,6135e006383e6ea6c3d06a28,61364fd8d9711dd070445ff1,,"[""comma""]",0,[0.48119999999994434],47,0,47,0,1
,,,,,,5f2af95497e197484a72a6df,,,,,,5f2af95497e197484a72a6df,Kobieta,23,2021-09-06_19h39.42.777,rantool2,2021.1.4,Win32,59.9880024,6135e006383e6ea6c3d06a28,61364fd8d9711dd070445ff1,,"[""comma""]",0,[0.6315999999999917],48,0,48,0,1
,,,,,,5f2af95497e197484a72a6df,,,,,,5f2af95497e197484a72a6df,Kobieta,23,2021-09-06_19h39.42.777,rantool2,2021.1.4,Win32,59.9880024,6135e006383e6ea6c3d06a28,61364fd8d9711dd070445ff1,,"[""period""]",0,[0.2728999999999928],49,0,49,0,1
,,,,,,5f2af95497e197484a72a6df,,,,,,5f2af95497e197484a72a6df,Kobieta,23,2021-09-06_19h39.42.777,rantool2,2021.1.4,Win32,59.9880024,6135e006383e6ea6c3d06a28,61364fd8d9711dd070445ff1,,"[""comma""]",0,[0.3978999999999928],50,0,50,0,1
,,,,,,5f2af95497e197484a72a6df,,,,,,5f2af95497e197484a72a6df,Kobieta,23,2021-09-06_19h39.42.777,rantool2,2021.1.4,Win32,59.9880024,6135e006383e6ea6c3d06a28,61364fd8d9711dd070445ff1,,"[""comma""]",0,[0.4175999999999931],51,0,51,0,1
,,,,,,5f2af95497e197484a72a6df,,,,,,5f2af95497e197484a72a6df,Kobieta,23,2021-09-06_19h39.42.777,rantool2,2021.1.4,Win32,59.9880024,6135e006383e6ea6c3d06a28,61364fd8d9711dd070445ff1,,"[""period""]",0,[0.2730999999999426],52,0,52,0,1
,,,,,,5f2af95497e197484a72a6df,,,,,,5f2af95497e197484a72a6df,Kobieta,23,2021-09-06_19h39.42.777,rantool2,2021.1.4,Win32,59.9880024,6135e006383e6ea6c3d06a28,61364fd8d9711dd070445ff1,,"[""period"",""period""]",0,"[0.0003999999999564352,1.0895999999999049]",53,0,53,0,1
,,,,,,5f2af95497e197484a72a6df,,,,,,5f2af95497e197484a72a6df,Kobieta,23,2021-09-06_19h39.42.777,rantool2,2021.1.4,Win32,59.9880024,6135e006383e6ea6c3d06a28,61364fd8d9711dd070445ff1,,"[""period""]",0,[0.6198000000000548],54,0,54,0,1
,,,,,,5f2af95497e197484a72a6df,,,,,,5f2af95497e197484a72a6df,Kobieta,23,2021-09-06_19h39.42.777,rantool2,2021.1.4,Win32,59.9880024,6135e006383e6ea6c3d06a28,61364fd8d9711dd070445ff1,,"[""period""]",0,[0.2981999999999516],55,0,55,0,1
,,,,,,5f2af95497e197484a72a6df,,,,,,5f2af95497e197484a72a6df,Kobieta,23,2021-09-06_19h39.42.777,rantool2,2021.1.4,Win32,59.9880024,6135e006383e6ea6c3d06a28,61364fd8d9711dd070445ff1,,"[""period""]",0,[0.21770000000020673],56,0,56,0,1
,,,,,,5f2af95497e197484a72a6df,,,,,,5f2af95497e197484a72a6df,Kobieta,23,2021-09-06_19h39.42.777,rantool2,2021.1.4,Win32,59.9880024,6135e006383e6ea6c3d06a28,61364fd8d9711dd070445ff1,,"[""comma""]",0,[0.33010000000007267],57,0,57,0,1
,,,,,,5f2af95497e197484a72a6df,,,,,,5f2af95497e197484a72a6df,Kobieta,23,2021-09-06_19h39.42.777,rantool2,2021.1.4,Win32,59.9880024,6135e006383e6ea6c3d06a28,61364fd8d9711dd070445ff1,,"[""comma""]",0,[0.4401999999999475],58,0,58,0,1
,,,,,,5f2af95497e197484a72a6df,,,,,,5f2af95497e197484a72a6df,Kobieta,23,2021-09-06_19h39.42.777,rantool2,2021.1.4,Win32,59.9880024,6135e006383e6ea6c3d06a28,61364fd8d9711dd070445ff1,,"[""period""]",0,[0.3299999999999841],59,0,59,0,1
,,,,,,5f2af95497e197484a72a6df,,,,,,5f2af95497e197484a72a6df,Kobieta,23,2021-09-06_19h39.42.777,rantool2,2021.1.4,Win32,59.9880024,6135e006383e6ea6c3d06a28,61364fd8d9711dd070445ff1,,"[""comma""]",0,[0.3151999999999475],60,0,60,0,1
,,,,,,5f2af95497e197484a72a6df,,,,,,5f2af95497e197484a72a6df,Kobieta,23,2021-09-06_19h39.42.777,rantool2,2021.1.4,Win32,59.9880024,6135e006383e6ea6c3d06a28,61364fd8d9711dd070445ff1,,"[""period""]",0,[0.4616000000000895],61,0,61,0,1
,,,,,,5f2af95497e197484a72a6df,,,,,,5f2af95497e197484a72a6df,Kobieta,23,2021-09-06_19h39.42.777,rantool2,2021.1.4,Win32,59.9880024,6135e006383e6ea6c3d06a28,61364fd8d9711dd070445ff1,,"[""comma""]",0,[0.325999999999965],62,0,62,0,1
,,,,,,5f2af95497e197484a72a6df,,,,,,5f2af95497e197484a72a6df,Kobieta,23,2021-09-06_19h39.42.777,rantool2,2021.1.4,Win32,59.9880024,6135e006383e6ea6c3d06a28,61364fd8d9711dd070445ff1,,"[""period""]",0,[0.29949999999996635],63,0,63,0,1
,,,,,,5f2af95497e197484a72a6df,,,,,,5f2af95497e197484a72a6df,Kobieta,23,2021-09-06_19h39.42.777,rantool2,2021.1.4,Win32,59.9880024,6135e006383e6ea6c3d06a28,61364fd8d9711dd070445ff1,,"[""period""]",0,[0.34319999999996753],64,0,64,0,1
,,,,,,5f2af95497e197484a72a6df,,,,,,5f2af95497e197484a72a6df,Kobieta,23,2021-09-06_19h39.42.777,rantool2,2021.1.4,Win32,59.9880024,6135e006383e6ea6c3d06a28,61364fd8d9711dd070445ff1,,"[""period""]",0,[0.402200000000164],65,0,65,0,1
,,,,,,5f2af95497e197484a72a6df,,,,,,5f2af95497e197484a72a6df,Kobieta,23,2021-09-06_19h39.42.777,rantool2,2021.1.4,Win32,59.9880024,6135e006383e6ea6c3d06a28,61364fd8d9711dd070445ff1,,"[""period""]",0,[0.3508999999999105],66,0,66,0,1
,,,,,,5f2af95497e197484a72a6df,,,,,,5f2af95497e197484a72a6df,Kobieta,23,2021-09-06_19h39.42.777,rantool2,2021.1.4,Win32,59.9880024,6135e006383e6ea6c3d06a28,61364fd8d9711dd070445ff1,,"[""period""]",0,[0.29300000000000637],67,0,67,0,1
,,,,,,5f2af95497e197484a72a6df,,,,,,5f2af95497e197484a72a6df,Kobieta,23,2021-09-06_19h39.42.777,rantool2,2021.1.4,Win32,59.9880024,6135e006383e6ea6c3d06a28,61364fd8d9711dd070445ff1,,"[""comma""]",0,[0.36909999999983256],68,0,68,0,1
,,,,,,5f2af95497e197484a72a6df,,,,,,5f2af95497e197484a72a6df,Kobieta,23,2021-09-06_19h39.42.777,rantool2,2021.1.4,Win32,59.9880024,6135e006383e6ea6c3d06a28,61364fd8d9711dd070445ff1,,"[""period""]",0,[0.30860000000012633],69,0,69,0,1
,,,,,,5f2af95497e197484a72a6df,,,,,,5f2af95497e197484a72a6df,Kobieta,23,2021-09-06_19h39.42.777,rantool2,2021.1.4,Win32,59.9880024,6135e006383e6ea6c3d06a28,61364fd8d9711dd070445ff1,,"[""period""]",0,[0.26519999999993615],70,0,70,0,1
,,,,,,5f2af95497e197484a72a6df,,,,,,5f2af95497e197484a72a6df,Kobieta,23,2021-09-06_19h39.42.777,rantool2,2021.1.4,Win32,59.9880024,6135e006383e6ea6c3d06a28,61364fd8d9711dd070445ff1,,"[""period""]",0,[0.5602999999998133],71,0,71,0,1
,,,,,,5f2af95497e197484a72a6df,,,,,,5f2af95497e197484a72a6df,Kobieta,23,2021-09-06_19h39.42.777,rantool2,2021.1.4,Win32,59.9880024,6135e006383e6ea6c3d06a28,61364fd8d9711dd070445ff1,,"[""comma""]",0,[0.35869999999994207],72,0,72,0,1
,,,,,,5f2af95497e197484a72a6df,,,,,,5f2af95497e197484a72a6df,Kobieta,23,2021-09-06_19h39.42.777,rantool2,2021.1.4,Win32,59.9880024,6135e006383e6ea6c3d06a28,61364fd8d9711dd070445ff1,,"[""comma""]",0,[0.31509999999985894],73,0,73,0,1
,,,,,,5f2af95497e197484a72a6df,,,,,,5f2af95497e197484a72a6df,Kobieta,23,2021-09-06_19h39.42.777,rantool2,2021.1.4,Win32,59.9880024,6135e006383e6ea6c3d06a28,61364fd8d9711dd070445ff1,,"[""period""]",0,[0.3787000000002081],74,0,74,0,1
,,,,,,5f2af95497e197484a72a6df,,,,,,5f2af95497e197484a72a6df,Kobieta,23,2021-09-06_19h39.42.777,rantool2,2021.1.4,Win32,59.9880024,6135e006383e6ea6c3d06a28,61364fd8d9711dd070445ff1,,"[""period""]",0,[0.3921999999999457],75,0,75,0,1
,,,,,,5f2af95497e197484a72a6df,,,,,,5f2af95497e197484a72a6df,Kobieta,23,2021-09-06_19h39.42.777,rantool2,2021.1.4,Win32,59.9880024,6135e006383e6ea6c3d06a28,61364fd8d9711dd070445ff1,,"[""comma""]",0,[0.41049999999995634],76,0,76,0,1
,,,,,,5f2af95497e197484a72a6df,,,,,,5f2af95497e197484a72a6df,Kobieta,23,2021-09-06_19h39.42.777,rantool2,2021.1.4,Win32,59.9880024,6135e006383e6ea6c3d06a28,61364fd8d9711dd070445ff1,,"[""period""]",0,[0.33410000000009177],77,0,77,0,1
,,,,,,5f2af95497e197484a72a6df,,,,,,5f2af95497e197484a72a6df,Kobieta,23,2021-09-06_19h39.42.777,rantool2,2021.1.4,Win32,59.9880024,6135e006383e6ea6c3d06a28,61364fd8d9711dd070445ff1,,"[""comma""]",0,[0.319200000000194],78,0,78,0,1
,,,,,,5f2af95497e197484a72a6df,,,,,,5f2af95497e197484a72a6df,Kobieta,23,2021-09-06_19h39.42.777,rantool2,2021.1.4,Win32,59.9880024,6135e006383e6ea6c3d06a28,61364fd8d9711dd070445ff1,,"[""comma""]",0,[0.3191999999999098],79,0,79,0,1
,,,,,,5f2af95497e197484a72a6df,,,,,,5f2af95497e197484a72a6df,Kobieta,23,2021-09-06_19h39.42.777,rantool2,2021.1.4,Win32,59.9880024,6135e006383e6ea6c3d06a28,61364fd8d9711dd070445ff1,,"[""period""]",0,[0.3338000000000534],80,0,80,0,1
,,,,,,5f2af95497e197484a72a6df,,,,,,5f2af95497e197484a72a6df,Kobieta,23,2021-09-06_19h39.42.777,rantool2,2021.1.4,Win32,59.9880024,6135e006383e6ea6c3d06a28,61364fd8d9711dd070445ff1,,"[""period""]",0,[1.280499999999961],81,0,81,0,1
,,,,,,5f2af95497e197484a72a6df,,,,,,5f2af95497e197484a72a6df,Kobieta,23,2021-09-06_19h39.42.777,rantool2,2021.1.4,Win32,59.9880024,6135e006383e6ea6c3d06a28,61364fd8d9711dd070445ff1,,"[""comma""]",0,[1.6706999999999539],82,0,82,0,1
,,,,,,5f2af95497e197484a72a6df,,,,,,5f2af95497e197484a72a6df,Kobieta,23,2021-09-06_19h39.42.777,rantool2,2021.1.4,Win32,59.9880024,6135e006383e6ea6c3d06a28,61364fd8d9711dd070445ff1,,"[""comma""]",0,[0.4676999999999225],83,0,83,0,1
,,,,,,5f2af95497e197484a72a6df,,,,,,5f2af95497e197484a72a6df,Kobieta,23,2021-09-06_19h39.42.777,rantool2,2021.1.4,Win32,59.9880024,6135e006383e6ea6c3d06a28,61364fd8d9711dd070445ff1,,"[""period""]",0,[0.3816000000001054],84,0,84,0,1
,,,,,,5f2af95497e197484a72a6df,,,,,,5f2af95497e197484a72a6df,Kobieta,23,2021-09-06_19h39.42.777,rantool2,2021.1.4,Win32,59.9880024,6135e006383e6ea6c3d06a28,61364fd8d9711dd070445ff1,,"[""period""]",0,[0.29590000000013106],85,0,85,0,1
,,,,,,5f2af95497e197484a72a6df,,,,,,5f2af95497e197484a72a6df,Kobieta,23,2021-09-06_19h39.42.777,rantool2,2021.1.4,Win32,59.9880024,6135e006383e6ea6c3d06a28,61364fd8d9711dd070445ff1,,"[""period""]",0,[0.2983000000000402],86,0,86,0,1
,,,,,,5f2af95497e197484a72a6df,,,,,,5f2af95497e197484a72a6df,Kobieta,23,2021-09-06_19h39.42.777,rantool2,2021.1.4,Win32,59.9880024,6135e006383e6ea6c3d06a28,61364fd8d9711dd070445ff1,,"[""period"",""comma""]",0,"[0.9459000000001652,1.7406000000000859]",87,0,87,0,1
,,,,,,5f2af95497e197484a72a6df,,,,,,5f2af95497e197484a72a6df,Kobieta,23,2021-09-06_19h39.42.777,rantool2,2021.1.4,Win32,59.9880024,6135e006383e6ea6c3d06a28,61364fd8d9711dd070445ff1,,"[""comma""]",0,[0.2641999999999598],88,0,88,0,1
,,,,,,5f2af95497e197484a72a6df,,,,,,5f2af95497e197484a72a6df,Kobieta,23,2021-09-06_19h39.42.777,rantool2,2021.1.4,Win32,59.9880024,6135e006383e6ea6c3d06a28,61364fd8d9711dd070445ff1,,"[""comma""]",0,[0.2744999999999891],89,0,89,0,1
,,,,,,5f2af95497e197484a72a6df,,,,,,5f2af95497e197484a72a6df,Kobieta,23,2021-09-06_19h39.42.777,rantool2,2021.1.4,Win32,59.9880024,6135e006383e6ea6c3d06a28,61364fd8d9711dd070445ff1,,"[""comma""]",0,[0.32909999999986894],90,0,90,0,1
,,,,,,5f2af95497e197484a72a6df,,,,,,5f2af95497e197484a72a6df,Kobieta,23,2021-09-06_19h39.42.777,rantool2,2021.1.4,Win32,59.9880024,6135e006383e6ea6c3d06a28,61364fd8d9711dd070445ff1,,"[""period""]",0,[0.2941999999999325],91,0,91,0,1
,,,,,,5f2af95497e197484a72a6df,,,,,,5f2af95497e197484a72a6df,Kobieta,23,2021-09-06_19h39.42.777,rantool2,2021.1.4,Win32,59.9880024,6135e006383e6ea6c3d06a28,61364fd8d9711dd070445ff1,,"[""period""]",0,[0.38660000000010086],92,0,92,0,1
,,,,,,5f2af95497e197484a72a6df,,,,,,5f2af95497e197484a72a6df,Kobieta,23,2021-09-06_19h39.42.777,rantool2,2021.1.4,Win32,59.9880024,6135e006383e6ea6c3d06a28,61364fd8d9711dd070445ff1,,"[""comma""]",0,[0.26400000000001],93,0,93,0,1
,,,,,,5f2af95497e197484a72a6df,,,,,,5f2af95497e197484a72a6df,Kobieta,23,2021-09-06_19h39.42.777,rantool2,2021.1.4,Win32,59.9880024,6135e006383e6ea6c3d06a28,61364fd8d9711dd070445ff1,,"[""period""]",0,[0.35210000000006403],94,0,94,0,1
,,,,,,5f2af95497e197484a72a6df,,,,,,5f2af95497e197484a72a6df,Kobieta,23,2021-09-06_19h39.42.777,rantool2,2021.1.4,Win32,59.9880024,6135e006383e6ea6c3d06a28,61364fd8d9711dd070445ff1,,"[""period""]",0,[0.33410000000009177],95,0,95,0,1
,,,,,,5f2af95497e197484a72a6df,,,,,,5f2af95497e197484a72a6df,Kobieta,23,2021-09-06_19h39.42.777,rantool2,2021.1.4,Win32,59.9880024,6135e006383e6ea6c3d06a28,61364fd8d9711dd070445ff1,,"[""comma""]",0,[0.3431000000001063],96,0,96,0,1
,,,,,,5f2af95497e197484a72a6df,,,,,,5f2af95497e197484a72a6df,Kobieta,23,2021-09-06_19h39.42.777,rantool2,2021.1.4,Win32,59.9880024,6135e006383e6ea6c3d06a28,61364fd8d9711dd070445ff1,,"[""period""]",0,[0.30719999999996617],97,0,97,0,1
,,,,,,5f2af95497e197484a72a6df,,,,,,5f2af95497e197484a72a6df,Kobieta,23,2021-09-06_19h39.42.777,rantool2,2021.1.4,Win32,59.9880024,6135e006383e6ea6c3d06a28,61364fd8d9711dd070445ff1,,"[""comma""]",0,[0.8432000000001949],98,0,98,0,1
,,,,,,5f2af95497e197484a72a6df,,,,,,5f2af95497e197484a72a6df,Kobieta,23,2021-09-06_19h39.42.777,rantool2,2021.1.4,Win32,59.9880024,6135e006383e6ea6c3d06a28,61364fd8d9711dd070445ff1,,"[""period""]",0,[0.1693000000000211],99,0,99,0,1
,,,,,,5f2af95497e197484a72a6df,,,,,,5f2af95497e197484a72a6df,Kobieta,23,2021-09-06_19h39.42.777,rantool2,2021.1.4,Win32,59.9880024,6135e006383e6ea6c3d06a28,61364fd8d9711dd070445ff1,,"[""period""]",0,[0.2708000000000652],100,0,100,0,1
,,,,,,5f2af95497e197484a72a6df,,,,,,5f2af95497e197484a72a6df,Kobieta,23,2021-09-06_19h39.42.777,rantool2,2021.1.4,Win32,59.9880024,6135e006383e6ea6c3d06a28,61364fd8d9711dd070445ff1,,"[""comma""]",0,[0.27619999999996026],101,0,101,0,1
,,,,,,5f2af95497e197484a72a6df,,,,,,5f2af95497e197484a72a6df,Kobieta,23,2021-09-06_19h39.42.777,rantool2,2021.1.4,Win32,59.9880024,6135e006383e6ea6c3d06a28,61364fd8d9711dd070445ff1,,"[""comma""]",0,[0.25780000000003156],102,0,102,0,1
,,,,,,5f2af95497e197484a72a6df,,,,,,5f2af95497e197484a72a6df,Kobieta,23,2021-09-06_19h39.42.777,rantool2,2021.1.4,Win32,59.9880024,6135e006383e6ea6c3d06a28,61364fd8d9711dd070445ff1,,"[""comma""]",0,[0.4343999999999255],103,0,103,0,1
,,,,,,5f2af95497e197484a72a6df,,,,,,5f2af95497e197484a72a6df,Kobieta,23,2021-09-06_19h39.42.777,rantool2,2021.1.4,Win32,59.9880024,6135e006383e6ea6c3d06a28,61364fd8d9711dd070445ff1,,"[""period""]",0,[0.29849999999999],104,0,104,0,1
,,,,,,5f2af95497e197484a72a6df,,,,,,5f2af95497e197484a72a6df,Kobieta,23,2021-09-06_19h39.42.777,rantool2,2021.1.4,Win32,59.9880024,6135e006383e6ea6c3d06a28,61364fd8d9711dd070445ff1,,"[""comma""]",0,[0.254600000000039],105,0,105,0,1
,,,,,,5f2af95497e197484a72a6df,,,,,,5f2af95497e197484a72a6df,Kobieta,23,2021-09-06_19h39.42.777,rantool2,2021.1.4,Win32,59.9880024,6135e006383e6ea6c3d06a28,61364fd8d9711dd070445ff1,,"[""period""]",0,[0.25489999999990687],106,0,106,0,1
,,,,,,5f2af95497e197484a72a6df,,,,,,5f2af95497e197484a72a6df,Kobieta,23,2021-09-06_19h39.42.777,rantool2,2021.1.4,Win32,59.9880024,6135e006383e6ea6c3d06a28,61364fd8d9711dd070445ff1,,"[""comma""]",0,[0.3025000000000091],107,0,107,0,1
,,,,,,5f2af95497e197484a72a6df,,,,,,5f2af95497e197484a72a6df,Kobieta,23,2021-09-06_19h39.42.777,rantool2,2021.1.4,Win32,59.9880024,6135e006383e6ea6c3d06a28,61364fd8d9711dd070445ff1,,"[""comma""]",0,[0.3410000000000082],108,0,108,0,1
,,,,,,5f2af95497e197484a72a6df,,,,,,5f2af95497e197484a72a6df,Kobieta,23,2021-09-06_19h39.42.777,rantool2,2021.1.4,Win32,59.9880024,6135e006383e6ea6c3d06a28,61364fd8d9711dd070445ff1,,"[""comma""]",0,[0.2813000000000443],109,0,109,0,1
,,,,,,5f2af95497e197484a72a6df,,,,,,5f2af95497e197484a72a6df,Kobieta,23,2021-09-06_19h39.42.777,rantool2,2021.1.4,Win32,59.9880024,6135e006383e6ea6c3d06a28,61364fd8d9711dd070445ff1,,"[""period""]",0,[0.36100000000004684],110,0,110,0,1
,,,,,,5f2af95497e197484a72a6df,,,,,,5f2af95497e197484a72a6df,Kobieta,23,2021-09-06_19h39.42.777,rantool2,2021.1.4,Win32,59.9880024,6135e006383e6ea6c3d06a28,61364fd8d9711dd070445ff1,,"[""comma""]",0,[0.2841000000000804],111,0,111,0,1
,,,,,,5f2af95497e197484a72a6df,,,,,,5f2af95497e197484a72a6df,Kobieta,23,2021-09-06_19h39.42.777,rantool2,2021.1.4,Win32,59.9880024,6135e006383e6ea6c3d06a28,61364fd8d9711dd070445ff1,,"[""period""]",0,[0.33430000000004156],112,0,112,0,1
,,,,,,5f2af95497e197484a72a6df,,,,,,5f2af95497e197484a72a6df,Kobieta,23,2021-09-06_19h39.42.777,rantool2,2021.1.4,Win32,59.9880024,6135e006383e6ea6c3d06a28,61364fd8d9711dd070445ff1,,"[""period""]",0,[0.7128000000000725],113,0,113,0,1
,,,,,,5f2af95497e197484a72a6df,,,,,,5f2af95497e197484a72a6df,Kobieta,23,2021-09-06_19h39.42.777,rantool2,2021.1.4,Win32,59.9880024,6135e006383e6ea6c3d06a28,61364fd8d9711dd070445ff1,,"[""comma""]",0,[0.2603000000000293],114,0,114,0,1
,,,,,,5f2af95497e197484a72a6df,,,,,,5f2af95497e197484a72a6df,Kobieta,23,2021-09-06_19h39.42.777,rantool2,2021.1.4,Win32,59.9880024,6135e006383e6ea6c3d06a28,61364fd8d9711dd070445ff1,,"[""period""]",0,[0.3113999999998782],115,0,115,0,1
,,,,,,5f2af95497e197484a72a6df,,,,,,5f2af95497e197484a72a6df,Kobieta,23,2021-09-06_19h39.42.777,rantool2,2021.1.4,Win32,59.9880024,6135e006383e6ea6c3d06a28,61364fd8d9711dd070445ff1,,"[""period""]",0,[1.8559999999999945],116,0,116,0,1
,,,,,,5f2af95497e197484a72a6df,,,,,,5f2af95497e197484a72a6df,Kobieta,23,2021-09-06_19h39.42.777,rantool2,2021.1.4,Win32,59.9880024,6135e006383e6ea6c3d06a28,61364fd8d9711dd070445ff1,,"[""period""]",0,[0.31010000000009086],117,0,117,0,1
,,,,,,5f2af95497e197484a72a6df,,,,,,5f2af95497e197484a72a6df,Kobieta,23,2021-09-06_19h39.42.777,rantool2,2021.1.4,Win32,59.9880024,6135e006383e6ea6c3d06a28,61364fd8d9711dd070445ff1,,"[""comma""]",0,[0.30090000000018335],118,0,118,0,1
,,,,,,5f2af95497e197484a72a6df,,,,,,5f2af95497e197484a72a6df,Kobieta,23,2021-09-06_19h39.42.777,rantool2,2021.1.4,Win32,59.9880024,6135e006383e6ea6c3d06a28,61364fd8d9711dd070445ff1,,"[""period""]",0,[0.2681000000001177],119,0,119,0,1
