key_resp_5.keys,key_resp_5.corr,key_resp_5.rt,trials.thisRepN,trials.thisTrialN,trials.thisN,trials.thisIndex,trials.ran,id*,Płeć*,Wiek*,date,expName,psychopyVersion,OS,frameRate,id,STUDY_ID,SESSION_ID,key_resp_7.keys,key_resp_7.rt,trials_2.thisRepN,trials_2.thisTrialN,trials_2.thisN,trials_2.thisIndex,trials_2.ran,series_0,series_1,acss_0,acss_1,comparison
"[""comma""]",0,[0.9804000000003725],0,0,0,0,1,5d47d84a4555540001a4ae83,Mężczyzna,25,2021-07-13_21h51.47.490,rantool2,2021.1.4,Win32,60.22282445,5d47d84a4555540001a4ae83,60d9d14f4a8a35a482e0d9bf,60edee7544681fa0a1189361,,,,,,,,,,,,
"[""comma"",""period""]",0,"[-0.015099999999634406,0.9355000000000047]",1,0,1,0,1,5d47d84a4555540001a4ae83,Mężczyzna,25,2021-07-13_21h51.47.490,rantool2,2021.1.4,Win32,60.22282445,5d47d84a4555540001a4ae83,60d9d14f4a8a35a482e0d9bf,60edee7544681fa0a1189361,,,,,,,,,,,,
"[""period"",""period""]",0,"[0.4671000000005563,1.6558000000007524]",2,0,2,0,1,5d47d84a4555540001a4ae83,Mężczyzna,25,2021-07-13_21h51.47.490,rantool2,2021.1.4,Win32,60.22282445,5d47d84a4555540001a4ae83,60d9d14f4a8a35a482e0d9bf,60edee7544681fa0a1189361,,,,,,,,,,,,
"[""comma""]",0,[0.48809999999961917],3,0,3,0,1,5d47d84a4555540001a4ae83,Mężczyzna,25,2021-07-13_21h51.47.490,rantool2,2021.1.4,Win32,60.22282445,5d47d84a4555540001a4ae83,60d9d14f4a8a35a482e0d9bf,60edee7544681fa0a1189361,,,,,,,,,,,,
"[""period""]",0,[0.3507000000001881],4,0,4,0,1,5d47d84a4555540001a4ae83,Mężczyzna,25,2021-07-13_21h51.47.490,rantool2,2021.1.4,Win32,60.22282445,5d47d84a4555540001a4ae83,60d9d14f4a8a35a482e0d9bf,60edee7544681fa0a1189361,,,,,,,,,,,,
"[""comma""]",0,[0.25120000000018194],5,0,5,0,1,5d47d84a4555540001a4ae83,Mężczyzna,25,2021-07-13_21h51.47.490,rantool2,2021.1.4,Win32,60.22282445,5d47d84a4555540001a4ae83,60d9d14f4a8a35a482e0d9bf,60edee7544681fa0a1189361,,,,,,,,,,,,
"[""period""]",0,[0.2381000000005571],6,0,6,0,1,5d47d84a4555540001a4ae83,Mężczyzna,25,2021-07-13_21h51.47.490,rantool2,2021.1.4,Win32,60.22282445,5d47d84a4555540001a4ae83,60d9d14f4a8a35a482e0d9bf,60edee7544681fa0a1189361,,,,,,,,,,,,
"[""comma""]",0,[0.7867999999998148],7,0,7,0,1,5d47d84a4555540001a4ae83,Mężczyzna,25,2021-07-13_21h51.47.490,rantool2,2021.1.4,Win32,60.22282445,5d47d84a4555540001a4ae83,60d9d14f4a8a35a482e0d9bf,60edee7544681fa0a1189361,,,,,,,,,,,,
"[""period""]",0,[0.42790000000037764],8,0,8,0,1,5d47d84a4555540001a4ae83,Mężczyzna,25,2021-07-13_21h51.47.490,rantool2,2021.1.4,Win32,60.22282445,5d47d84a4555540001a4ae83,60d9d14f4a8a35a482e0d9bf,60edee7544681fa0a1189361,,,,,,,,,,,,
"[""comma""]",0,[0.2383999999994444],9,0,9,0,1,5d47d84a4555540001a4ae83,Mężczyzna,25,2021-07-13_21h51.47.490,rantool2,2021.1.4,Win32,60.22282445,5d47d84a4555540001a4ae83,60d9d14f4a8a35a482e0d9bf,60edee7544681fa0a1189361,,,,,,,,,,,,
"[""period""]",0,[0.271299999999826],10,0,10,0,1,5d47d84a4555540001a4ae83,Mężczyzna,25,2021-07-13_21h51.47.490,rantool2,2021.1.4,Win32,60.22282445,5d47d84a4555540001a4ae83,60d9d14f4a8a35a482e0d9bf,60edee7544681fa0a1189361,,,,,,,,,,,,
"[""comma""]",0,[0.21809999999962315],11,0,11,0,1,5d47d84a4555540001a4ae83,Mężczyzna,25,2021-07-13_21h51.47.490,rantool2,2021.1.4,Win32,60.22282445,5d47d84a4555540001a4ae83,60d9d14f4a8a35a482e0d9bf,60edee7544681fa0a1189361,,,,,,,,,,,,
"[""period""]",0,[0.0009000000003709374],12,0,12,0,1,5d47d84a4555540001a4ae83,Mężczyzna,25,2021-07-13_21h51.47.490,rantool2,2021.1.4,Win32,60.22282445,5d47d84a4555540001a4ae83,60d9d14f4a8a35a482e0d9bf,60edee7544681fa0a1189361,,,,,,,,,,,,
"[""comma""]",0,[0.26759999999963213],13,0,13,0,1,5d47d84a4555540001a4ae83,Mężczyzna,25,2021-07-13_21h51.47.490,rantool2,2021.1.4,Win32,60.22282445,5d47d84a4555540001a4ae83,60d9d14f4a8a35a482e0d9bf,60edee7544681fa0a1189361,,,,,,,,,,,,
"[""period"",""comma""]",0,"[0.06769999999926313,1.8172999999998183]",14,0,14,0,1,5d47d84a4555540001a4ae83,Mężczyzna,25,2021-07-13_21h51.47.490,rantool2,2021.1.4,Win32,60.22282445,5d47d84a4555540001a4ae83,60d9d14f4a8a35a482e0d9bf,60edee7544681fa0a1189361,,,,,,,,,,,,
"[""comma""]",0,[0.5050000000000097],15,0,15,0,1,5d47d84a4555540001a4ae83,Mężczyzna,25,2021-07-13_21h51.47.490,rantool2,2021.1.4,Win32,60.22282445,5d47d84a4555540001a4ae83,60d9d14f4a8a35a482e0d9bf,60edee7544681fa0a1189361,,,,,,,,,,,,
"[""period""]",0,[0.26900000000000546],16,0,16,0,1,5d47d84a4555540001a4ae83,Mężczyzna,25,2021-07-13_21h51.47.490,rantool2,2021.1.4,Win32,60.22282445,5d47d84a4555540001a4ae83,60d9d14f4a8a35a482e0d9bf,60edee7544681fa0a1189361,,,,,,,,,,,,
"[""comma""]",0,[0.23470000000018842],17,0,17,0,1,5d47d84a4555540001a4ae83,Mężczyzna,25,2021-07-13_21h51.47.490,rantool2,2021.1.4,Win32,60.22282445,5d47d84a4555540001a4ae83,60d9d14f4a8a35a482e0d9bf,60edee7544681fa0a1189361,,,,,,,,,,,,
"[""period""]",0,[0.23499999999999943],18,0,18,0,1,5d47d84a4555540001a4ae83,Mężczyzna,25,2021-07-13_21h51.47.490,rantool2,2021.1.4,Win32,60.22282445,5d47d84a4555540001a4ae83,60d9d14f4a8a35a482e0d9bf,60edee7544681fa0a1189361,,,,,,,,,,,,
"[""comma""]",0,[0.24310000000056675],19,0,19,0,1,5d47d84a4555540001a4ae83,Mężczyzna,25,2021-07-13_21h51.47.490,rantool2,2021.1.4,Win32,60.22282445,5d47d84a4555540001a4ae83,60d9d14f4a8a35a482e0d9bf,60edee7544681fa0a1189361,,,,,,,,,,,,
"[""period""]",0,[0.2352000000001908],20,0,20,0,1,5d47d84a4555540001a4ae83,Mężczyzna,25,2021-07-13_21h51.47.490,rantool2,2021.1.4,Win32,60.22282445,5d47d84a4555540001a4ae83,60d9d14f4a8a35a482e0d9bf,60edee7544681fa0a1189361,,,,,,,,,,,,
"[""comma""]",0,[0.21789999999944598],21,0,21,0,1,5d47d84a4555540001a4ae83,Mężczyzna,25,2021-07-13_21h51.47.490,rantool2,2021.1.4,Win32,60.22282445,5d47d84a4555540001a4ae83,60d9d14f4a8a35a482e0d9bf,60edee7544681fa0a1189361,,,,,,,,,,,,
"[""period""]",0,[0.27140000000036935],22,0,22,0,1,5d47d84a4555540001a4ae83,Mężczyzna,25,2021-07-13_21h51.47.490,rantool2,2021.1.4,Win32,60.22282445,5d47d84a4555540001a4ae83,60d9d14f4a8a35a482e0d9bf,60edee7544681fa0a1189361,,,,,,,,,,,,
"[""comma""]",0,[0.27190000000037173],23,0,23,0,1,5d47d84a4555540001a4ae83,Mężczyzna,25,2021-07-13_21h51.47.490,rantool2,2021.1.4,Win32,60.22282445,5d47d84a4555540001a4ae83,60d9d14f4a8a35a482e0d9bf,60edee7544681fa0a1189361,,,,,,,,,,,,
"[""period""]",0,[0.29300000000000637],24,0,24,0,1,5d47d84a4555540001a4ae83,Mężczyzna,25,2021-07-13_21h51.47.490,rantool2,2021.1.4,Win32,60.22282445,5d47d84a4555540001a4ae83,60d9d14f4a8a35a482e0d9bf,60edee7544681fa0a1189361,,,,,,,,,,,,
"[""comma""]",0,[0.35139999999944393],25,0,25,0,1,5d47d84a4555540001a4ae83,Mężczyzna,25,2021-07-13_21h51.47.490,rantool2,2021.1.4,Win32,60.22282445,5d47d84a4555540001a4ae83,60d9d14f4a8a35a482e0d9bf,60edee7544681fa0a1189361,,,,,,,,,,,,
"[""period""]",0,[0.48559999999960723],26,0,26,0,1,5d47d84a4555540001a4ae83,Mężczyzna,25,2021-07-13_21h51.47.490,rantool2,2021.1.4,Win32,60.22282445,5d47d84a4555540001a4ae83,60d9d14f4a8a35a482e0d9bf,60edee7544681fa0a1189361,,,,,,,,,,,,
"[""comma"",""period""]",0,"[0.15080000000074278,1.9612000000001757]",27,0,27,0,1,5d47d84a4555540001a4ae83,Mężczyzna,25,2021-07-13_21h51.47.490,rantool2,2021.1.4,Win32,60.22282445,5d47d84a4555540001a4ae83,60d9d14f4a8a35a482e0d9bf,60edee7544681fa0a1189361,,,,,,,,,,,,
0,0,,28,0,28,0,1,5d47d84a4555540001a4ae83,Mężczyzna,25,2021-07-13_21h51.47.490,rantool2,2021.1.4,Win32,60.22282445,5d47d84a4555540001a4ae83,60d9d14f4a8a35a482e0d9bf,60edee7544681fa0a1189361,,,,,,,,,,,,
"[""comma""]",0,[0.3439999999999941],29,0,29,0,1,5d47d84a4555540001a4ae83,Mężczyzna,25,2021-07-13_21h51.47.490,rantool2,2021.1.4,Win32,60.22282445,5d47d84a4555540001a4ae83,60d9d14f4a8a35a482e0d9bf,60edee7544681fa0a1189361,,,,,,,,,,,,
"[""period"",""period""]",0,"[0.11730000000076757,1.235100000000557]",30,0,30,0,1,5d47d84a4555540001a4ae83,Mężczyzna,25,2021-07-13_21h51.47.490,rantool2,2021.1.4,Win32,60.22282445,5d47d84a4555540001a4ae83,60d9d14f4a8a35a482e0d9bf,60edee7544681fa0a1189361,,,,,,,,,,,,
"[""comma""]",0,[0.25929999999982556],31,0,31,0,1,5d47d84a4555540001a4ae83,Mężczyzna,25,2021-07-13_21h51.47.490,rantool2,2021.1.4,Win32,60.22282445,5d47d84a4555540001a4ae83,60d9d14f4a8a35a482e0d9bf,60edee7544681fa0a1189361,,,,,,,,,,,,
"[""period""]",0,[0.41900000000001114],32,0,32,0,1,5d47d84a4555540001a4ae83,Mężczyzna,25,2021-07-13_21h51.47.490,rantool2,2021.1.4,Win32,60.22282445,5d47d84a4555540001a4ae83,60d9d14f4a8a35a482e0d9bf,60edee7544681fa0a1189361,,,,,,,,,,,,
"[""comma""]",0,[0.6526999999992427],33,0,33,0,1,5d47d84a4555540001a4ae83,Mężczyzna,25,2021-07-13_21h51.47.490,rantool2,2021.1.4,Win32,60.22282445,5d47d84a4555540001a4ae83,60d9d14f4a8a35a482e0d9bf,60edee7544681fa0a1189361,,,,,,,,,,,,
"[""period""]",0,[0.7190999999996279],34,0,34,0,1,5d47d84a4555540001a4ae83,Mężczyzna,25,2021-07-13_21h51.47.490,rantool2,2021.1.4,Win32,60.22282445,5d47d84a4555540001a4ae83,60d9d14f4a8a35a482e0d9bf,60edee7544681fa0a1189361,,,,,,,,,,,,
"[""comma""]",0,[0.31829999999982306],35,0,35,0,1,5d47d84a4555540001a4ae83,Mężczyzna,25,2021-07-13_21h51.47.490,rantool2,2021.1.4,Win32,60.22282445,5d47d84a4555540001a4ae83,60d9d14f4a8a35a482e0d9bf,60edee7544681fa0a1189361,,,,,,,,,,,,
"[""period""]",0,[0.3707000000001983],36,0,36,0,1,5d47d84a4555540001a4ae83,Mężczyzna,25,2021-07-13_21h51.47.490,rantool2,2021.1.4,Win32,60.22282445,5d47d84a4555540001a4ae83,60d9d14f4a8a35a482e0d9bf,60edee7544681fa0a1189361,,,,,,,,,,,,
"[""comma""]",0,[0.3420999999996184],37,0,37,0,1,5d47d84a4555540001a4ae83,Mężczyzna,25,2021-07-13_21h51.47.490,rantool2,2021.1.4,Win32,60.22282445,5d47d84a4555540001a4ae83,60d9d14f4a8a35a482e0d9bf,60edee7544681fa0a1189361,,,,,,,,,,,,
"[""period"",""period""]",0,"[0.3569999999999993,1.0944999999999823]",38,0,38,0,1,5d47d84a4555540001a4ae83,Mężczyzna,25,2021-07-13_21h51.47.490,rantool2,2021.1.4,Win32,60.22282445,5d47d84a4555540001a4ae83,60d9d14f4a8a35a482e0d9bf,60edee7544681fa0a1189361,,,,,,,,,,,,
"[""comma""]",0,[0.26739999999944075],39,0,39,0,1,5d47d84a4555540001a4ae83,Mężczyzna,25,2021-07-13_21h51.47.490,rantool2,2021.1.4,Win32,60.22282445,5d47d84a4555540001a4ae83,60d9d14f4a8a35a482e0d9bf,60edee7544681fa0a1189361,,,,,,,,,,,,
"[""period""]",0,[0.3609000000003846],40,0,40,0,1,5d47d84a4555540001a4ae83,Mężczyzna,25,2021-07-13_21h51.47.490,rantool2,2021.1.4,Win32,60.22282445,5d47d84a4555540001a4ae83,60d9d14f4a8a35a482e0d9bf,60edee7544681fa0a1189361,,,,,,,,,,,,
"[""comma""]",0,[0.3375000000000057],41,0,41,0,1,5d47d84a4555540001a4ae83,Mężczyzna,25,2021-07-13_21h51.47.490,rantool2,2021.1.4,Win32,60.22282445,5d47d84a4555540001a4ae83,60d9d14f4a8a35a482e0d9bf,60edee7544681fa0a1189361,,,,,,,,,,,,
"[""period""]",0,[1.1537000000001854],42,0,42,0,1,5d47d84a4555540001a4ae83,Mężczyzna,25,2021-07-13_21h51.47.490,rantool2,2021.1.4,Win32,60.22282445,5d47d84a4555540001a4ae83,60d9d14f4a8a35a482e0d9bf,60edee7544681fa0a1189361,,,,,,,,,,,,
"[""period""]",0,[1.7613999999994405],43,0,43,0,1,5d47d84a4555540001a4ae83,Mężczyzna,25,2021-07-13_21h51.47.490,rantool2,2021.1.4,Win32,60.22282445,5d47d84a4555540001a4ae83,60d9d14f4a8a35a482e0d9bf,60edee7544681fa0a1189361,,,,,,,,,,,,
"[""comma""]",0,[0.8568000000007316],44,0,44,0,1,5d47d84a4555540001a4ae83,Mężczyzna,25,2021-07-13_21h51.47.490,rantool2,2021.1.4,Win32,60.22282445,5d47d84a4555540001a4ae83,60d9d14f4a8a35a482e0d9bf,60edee7544681fa0a1189361,,,,,,,,,,,,
"[""period""]",0,[0.5072000000002106],45,0,45,0,1,5d47d84a4555540001a4ae83,Mężczyzna,25,2021-07-13_21h51.47.490,rantool2,2021.1.4,Win32,60.22282445,5d47d84a4555540001a4ae83,60d9d14f4a8a35a482e0d9bf,60edee7544681fa0a1189361,,,,,,,,,,,,
0,0,,46,0,46,0,1,5d47d84a4555540001a4ae83,Mężczyzna,25,2021-07-13_21h51.47.490,rantool2,2021.1.4,Win32,60.22282445,5d47d84a4555540001a4ae83,60d9d14f4a8a35a482e0d9bf,60edee7544681fa0a1189361,,,,,,,,,,,,
"[""comma""]",0,[0.06809999999961747],47,0,47,0,1,5d47d84a4555540001a4ae83,Mężczyzna,25,2021-07-13_21h51.47.490,rantool2,2021.1.4,Win32,60.22282445,5d47d84a4555540001a4ae83,60d9d14f4a8a35a482e0d9bf,60edee7544681fa0a1189361,,,,,,,,,,,,
0,0,,48,0,48,0,1,5d47d84a4555540001a4ae83,Mężczyzna,25,2021-07-13_21h51.47.490,rantool2,2021.1.4,Win32,60.22282445,5d47d84a4555540001a4ae83,60d9d14f4a8a35a482e0d9bf,60edee7544681fa0a1189361,,,,,,,,,,,,
"[""period""]",0,[0.20599999999998886],49,0,49,0,1,5d47d84a4555540001a4ae83,Mężczyzna,25,2021-07-13_21h51.47.490,rantool2,2021.1.4,Win32,60.22282445,5d47d84a4555540001a4ae83,60d9d14f4a8a35a482e0d9bf,60edee7544681fa0a1189361,,,,,,,,,,,,
0,0,,50,0,50,0,1,5d47d84a4555540001a4ae83,Mężczyzna,25,2021-07-13_21h51.47.490,rantool2,2021.1.4,Win32,60.22282445,5d47d84a4555540001a4ae83,60d9d14f4a8a35a482e0d9bf,60edee7544681fa0a1189361,,,,,,,,,,,,
"[""period""]",0,[1.406000000000006],51,0,51,0,1,5d47d84a4555540001a4ae83,Mężczyzna,25,2021-07-13_21h51.47.490,rantool2,2021.1.4,Win32,60.22282445,5d47d84a4555540001a4ae83,60d9d14f4a8a35a482e0d9bf,60edee7544681fa0a1189361,,,,,,,,,,,,
0,0,,52,0,52,0,1,5d47d84a4555540001a4ae83,Mężczyzna,25,2021-07-13_21h51.47.490,rantool2,2021.1.4,Win32,60.22282445,5d47d84a4555540001a4ae83,60d9d14f4a8a35a482e0d9bf,60edee7544681fa0a1189361,,,,,,,,,,,,
"[""period"",""comma""]",0,"[0.1762000000001649,0.2855999999996186]",53,0,53,0,1,5d47d84a4555540001a4ae83,Mężczyzna,25,2021-07-13_21h51.47.490,rantool2,2021.1.4,Win32,60.22282445,5d47d84a4555540001a4ae83,60d9d14f4a8a35a482e0d9bf,60edee7544681fa0a1189361,,,,,,,,,,,,
"[""comma""]",0,[0.5581999999992604],54,0,54,0,1,5d47d84a4555540001a4ae83,Mężczyzna,25,2021-07-13_21h51.47.490,rantool2,2021.1.4,Win32,60.22282445,5d47d84a4555540001a4ae83,60d9d14f4a8a35a482e0d9bf,60edee7544681fa0a1189361,,,,,,,,,,,,
0,0,,55,0,55,0,1,5d47d84a4555540001a4ae83,Mężczyzna,25,2021-07-13_21h51.47.490,rantool2,2021.1.4,Win32,60.22282445,5d47d84a4555540001a4ae83,60d9d14f4a8a35a482e0d9bf,60edee7544681fa0a1189361,,,,,,,,,,,,
"[""period"",""comma""]",0,"[0.6078000000007364,1.9259000000003823]",56,0,56,0,1,5d47d84a4555540001a4ae83,Mężczyzna,25,2021-07-13_21h51.47.490,rantool2,2021.1.4,Win32,60.22282445,5d47d84a4555540001a4ae83,60d9d14f4a8a35a482e0d9bf,60edee7544681fa0a1189361,,,,,,,,,,,,
0,0,,57,0,57,0,1,5d47d84a4555540001a4ae83,Mężczyzna,25,2021-07-13_21h51.47.490,rantool2,2021.1.4,Win32,60.22282445,5d47d84a4555540001a4ae83,60d9d14f4a8a35a482e0d9bf,60edee7544681fa0a1189361,,,,,,,,,,,,
"[""comma""]",0,[0.7842000000001974],58,0,58,0,1,5d47d84a4555540001a4ae83,Mężczyzna,25,2021-07-13_21h51.47.490,rantool2,2021.1.4,Win32,60.22282445,5d47d84a4555540001a4ae83,60d9d14f4a8a35a482e0d9bf,60edee7544681fa0a1189361,,,,,,,,,,,,
"[""period""]",0,[0.38460000000054606],59,0,59,0,1,5d47d84a4555540001a4ae83,Mężczyzna,25,2021-07-13_21h51.47.490,rantool2,2021.1.4,Win32,60.22282445,5d47d84a4555540001a4ae83,60d9d14f4a8a35a482e0d9bf,60edee7544681fa0a1189361,,,,,,,,,,,,
"[""comma""]",0,[0.7936000000005663],60,0,60,0,1,5d47d84a4555540001a4ae83,Mężczyzna,25,2021-07-13_21h51.47.490,rantool2,2021.1.4,Win32,60.22282445,5d47d84a4555540001a4ae83,60d9d14f4a8a35a482e0d9bf,60edee7544681fa0a1189361,,,,,,,,,,,,
"[""period""]",0,[1.0341000000005636],61,0,61,0,1,5d47d84a4555540001a4ae83,Mężczyzna,25,2021-07-13_21h51.47.490,rantool2,2021.1.4,Win32,60.22282445,5d47d84a4555540001a4ae83,60d9d14f4a8a35a482e0d9bf,60edee7544681fa0a1189361,,,,,,,,,,,,
"[""comma""]",0,[0.9255999999996334],62,0,62,0,1,5d47d84a4555540001a4ae83,Mężczyzna,25,2021-07-13_21h51.47.490,rantool2,2021.1.4,Win32,60.22282445,5d47d84a4555540001a4ae83,60d9d14f4a8a35a482e0d9bf,60edee7544681fa0a1189361,,,,,,,,,,,,
"[""period""]",0,[0.36620000000019104],63,0,63,0,1,5d47d84a4555540001a4ae83,Mężczyzna,25,2021-07-13_21h51.47.490,rantool2,2021.1.4,Win32,60.22282445,5d47d84a4555540001a4ae83,60d9d14f4a8a35a482e0d9bf,60edee7544681fa0a1189361,,,,,,,,,,,,
"[""comma""]",0,[0.35250000000002046],64,0,64,0,1,5d47d84a4555540001a4ae83,Mężczyzna,25,2021-07-13_21h51.47.490,rantool2,2021.1.4,Win32,60.22282445,5d47d84a4555540001a4ae83,60d9d14f4a8a35a482e0d9bf,60edee7544681fa0a1189361,,,,,,,,,,,,
"[""period""]",0,[0.4843999999994537],65,0,65,0,1,5d47d84a4555540001a4ae83,Mężczyzna,25,2021-07-13_21h51.47.490,rantool2,2021.1.4,Win32,60.22282445,5d47d84a4555540001a4ae83,60d9d14f4a8a35a482e0d9bf,60edee7544681fa0a1189361,,,,,,,,,,,,
"[""comma""]",0,[0.24389999999942802],66,0,66,0,1,5d47d84a4555540001a4ae83,Mężczyzna,25,2021-07-13_21h51.47.490,rantool2,2021.1.4,Win32,60.22282445,5d47d84a4555540001a4ae83,60d9d14f4a8a35a482e0d9bf,60edee7544681fa0a1189361,,,,,,,,,,,,
"[""period""]",0,[0.2418999999994469],67,0,67,0,1,5d47d84a4555540001a4ae83,Mężczyzna,25,2021-07-13_21h51.47.490,rantool2,2021.1.4,Win32,60.22282445,5d47d84a4555540001a4ae83,60d9d14f4a8a35a482e0d9bf,60edee7544681fa0a1189361,,,,,,,,,,,,
"[""comma""]",0,[0.10160000000055902],68,0,68,0,1,5d47d84a4555540001a4ae83,Mężczyzna,25,2021-07-13_21h51.47.490,rantool2,2021.1.4,Win32,60.22282445,5d47d84a4555540001a4ae83,60d9d14f4a8a35a482e0d9bf,60edee7544681fa0a1189361,,,,,,,,,,,,
0,0,,69,0,69,0,1,5d47d84a4555540001a4ae83,Mężczyzna,25,2021-07-13_21h51.47.490,rantool2,2021.1.4,Win32,60.22282445,5d47d84a4555540001a4ae83,60d9d14f4a8a35a482e0d9bf,60edee7544681fa0a1189361,,,,,,,,,,,,
"[""comma""]",0,[0.25170000000019854],70,0,70,0,1,5d47d84a4555540001a4ae83,Mężczyzna,25,2021-07-13_21h51.47.490,rantool2,2021.1.4,Win32,60.22282445,5d47d84a4555540001a4ae83,60d9d14f4a8a35a482e0d9bf,60edee7544681fa0a1189361,,,,,,,,,,,,
"[""period""]",0,[0.4687999999998169],71,0,71,0,1,5d47d84a4555540001a4ae83,Mężczyzna,25,2021-07-13_21h51.47.490,rantool2,2021.1.4,Win32,60.22282445,5d47d84a4555540001a4ae83,60d9d14f4a8a35a482e0d9bf,60edee7544681fa0a1189361,,,,,,,,,,,,
0,0,,72,0,72,0,1,5d47d84a4555540001a4ae83,Mężczyzna,25,2021-07-13_21h51.47.490,rantool2,2021.1.4,Win32,60.22282445,5d47d84a4555540001a4ae83,60d9d14f4a8a35a482e0d9bf,60edee7544681fa0a1189361,,,,,,,,,,,,
"[""comma"",""period""]",0,"[0.40450000000001296,1.821900000000369]",73,0,73,0,1,5d47d84a4555540001a4ae83,Mężczyzna,25,2021-07-13_21h51.47.490,rantool2,2021.1.4,Win32,60.22282445,5d47d84a4555540001a4ae83,60d9d14f4a8a35a482e0d9bf,60edee7544681fa0a1189361,,,,,,,,,,,,
"[""comma""]",0,[1.2676000000005558],74,0,74,0,1,5d47d84a4555540001a4ae83,Mężczyzna,25,2021-07-13_21h51.47.490,rantool2,2021.1.4,Win32,60.22282445,5d47d84a4555540001a4ae83,60d9d14f4a8a35a482e0d9bf,60edee7544681fa0a1189361,,,,,,,,,,,,
"[""period""]",0,[1.116799999999813],75,0,75,0,1,5d47d84a4555540001a4ae83,Mężczyzna,25,2021-07-13_21h51.47.490,rantool2,2021.1.4,Win32,60.22282445,5d47d84a4555540001a4ae83,60d9d14f4a8a35a482e0d9bf,60edee7544681fa0a1189361,,,,,,,,,,,,
"[""comma""]",0,[1.304299999999813],76,0,76,0,1,5d47d84a4555540001a4ae83,Mężczyzna,25,2021-07-13_21h51.47.490,rantool2,2021.1.4,Win32,60.22282445,5d47d84a4555540001a4ae83,60d9d14f4a8a35a482e0d9bf,60edee7544681fa0a1189361,,,,,,,,,,,,
"[""comma"",""period""]",0,"[0.5854999999999961,1.0678000000007444]",77,0,77,0,1,5d47d84a4555540001a4ae83,Mężczyzna,25,2021-07-13_21h51.47.490,rantool2,2021.1.4,Win32,60.22282445,5d47d84a4555540001a4ae83,60d9d14f4a8a35a482e0d9bf,60edee7544681fa0a1189361,,,,,,,,,,,,
"[""period"",""comma""]",0,"[0.4841000000005522,0.625]",78,0,78,0,1,5d47d84a4555540001a4ae83,Mężczyzna,25,2021-07-13_21h51.47.490,rantool2,2021.1.4,Win32,60.22282445,5d47d84a4555540001a4ae83,60d9d14f4a8a35a482e0d9bf,60edee7544681fa0a1189361,,,,,,,,,,,,
"[""period""]",0,[0.5882999999998333],79,0,79,0,1,5d47d84a4555540001a4ae83,Mężczyzna,25,2021-07-13_21h51.47.490,rantool2,2021.1.4,Win32,60.22282445,5d47d84a4555540001a4ae83,60d9d14f4a8a35a482e0d9bf,60edee7544681fa0a1189361,,,,,,,,,,,,
"[""comma""]",0,[0.28439999999943666],80,0,80,0,1,5d47d84a4555540001a4ae83,Mężczyzna,25,2021-07-13_21h51.47.490,rantool2,2021.1.4,Win32,60.22282445,5d47d84a4555540001a4ae83,60d9d14f4a8a35a482e0d9bf,60edee7544681fa0a1189361,,,,,,,,,,,,
"[""period""]",0,[0.3511000000005424],81,0,81,0,1,5d47d84a4555540001a4ae83,Mężczyzna,25,2021-07-13_21h51.47.490,rantool2,2021.1.4,Win32,60.22282445,5d47d84a4555540001a4ae83,60d9d14f4a8a35a482e0d9bf,60edee7544681fa0a1189361,,,,,,,,,,,,
"[""comma""]",0,[0.40529999999981214],82,0,82,0,1,5d47d84a4555540001a4ae83,Mężczyzna,25,2021-07-13_21h51.47.490,rantool2,2021.1.4,Win32,60.22282445,5d47d84a4555540001a4ae83,60d9d14f4a8a35a482e0d9bf,60edee7544681fa0a1189361,,,,,,,,,,,,
"[""period""]",0,[0.38540000000037367],83,0,83,0,1,5d47d84a4555540001a4ae83,Mężczyzna,25,2021-07-13_21h51.47.490,rantool2,2021.1.4,Win32,60.22282445,5d47d84a4555540001a4ae83,60d9d14f4a8a35a482e0d9bf,60edee7544681fa0a1189361,,,,,,,,,,,,
"[""comma""]",0,[0.4522999999998092],84,0,84,0,1,5d47d84a4555540001a4ae83,Mężczyzna,25,2021-07-13_21h51.47.490,rantool2,2021.1.4,Win32,60.22282445,5d47d84a4555540001a4ae83,60d9d14f4a8a35a482e0d9bf,60edee7544681fa0a1189361,,,,,,,,,,,,
"[""comma""]",0,[0.6754000000003657],85,0,85,0,1,5d47d84a4555540001a4ae83,Mężczyzna,25,2021-07-13_21h51.47.490,rantool2,2021.1.4,Win32,60.22282445,5d47d84a4555540001a4ae83,60d9d14f4a8a35a482e0d9bf,60edee7544681fa0a1189361,,,,,,,,,,,,
"[""period""]",0,[0.5191000000005488],86,0,86,0,1,5d47d84a4555540001a4ae83,Mężczyzna,25,2021-07-13_21h51.47.490,rantool2,2021.1.4,Win32,60.22282445,5d47d84a4555540001a4ae83,60d9d14f4a8a35a482e0d9bf,60edee7544681fa0a1189361,,,,,,,,,,,,
"[""comma""]",0,[0.3949999999999818],87,0,87,0,1,5d47d84a4555540001a4ae83,Mężczyzna,25,2021-07-13_21h51.47.490,rantool2,2021.1.4,Win32,60.22282445,5d47d84a4555540001a4ae83,60d9d14f4a8a35a482e0d9bf,60edee7544681fa0a1189361,,,,,,,,,,,,
"[""period""]",0,[0.4192000000001883],88,0,88,0,1,5d47d84a4555540001a4ae83,Mężczyzna,25,2021-07-13_21h51.47.490,rantool2,2021.1.4,Win32,60.22282445,5d47d84a4555540001a4ae83,60d9d14f4a8a35a482e0d9bf,60edee7544681fa0a1189361,,,,,,,,,,,,
"[""period""]",0,[0.6380999999996106],89,0,89,0,1,5d47d84a4555540001a4ae83,Mężczyzna,25,2021-07-13_21h51.47.490,rantool2,2021.1.4,Win32,60.22282445,5d47d84a4555540001a4ae83,60d9d14f4a8a35a482e0d9bf,60edee7544681fa0a1189361,,,,,,,,,,,,
"[""comma""]",0,[0.604299999999796],90,0,90,0,1,5d47d84a4555540001a4ae83,Mężczyzna,25,2021-07-13_21h51.47.490,rantool2,2021.1.4,Win32,60.22282445,5d47d84a4555540001a4ae83,60d9d14f4a8a35a482e0d9bf,60edee7544681fa0a1189361,,,,,,,,,,,,
"[""period"",""comma""]",0,"[0.3278999999994312,1.4180999999995834]",91,0,91,0,1,5d47d84a4555540001a4ae83,Mężczyzna,25,2021-07-13_21h51.47.490,rantool2,2021.1.4,Win32,60.22282445,5d47d84a4555540001a4ae83,60d9d14f4a8a35a482e0d9bf,60edee7544681fa0a1189361,,,,,,,,,,,,
"[""comma""]",0,[0.2895999999996093],92,0,92,0,1,5d47d84a4555540001a4ae83,Mężczyzna,25,2021-07-13_21h51.47.490,rantool2,2021.1.4,Win32,60.22282445,5d47d84a4555540001a4ae83,60d9d14f4a8a35a482e0d9bf,60edee7544681fa0a1189361,,,,,,,,,,,,
"[""period""]",0,[0.4072999999998501],93,0,93,0,1,5d47d84a4555540001a4ae83,Mężczyzna,25,2021-07-13_21h51.47.490,rantool2,2021.1.4,Win32,60.22282445,5d47d84a4555540001a4ae83,60d9d14f4a8a35a482e0d9bf,60edee7544681fa0a1189361,,,,,,,,,,,,
"[""comma""]",0,[0.3023000000007414],94,0,94,0,1,5d47d84a4555540001a4ae83,Mężczyzna,25,2021-07-13_21h51.47.490,rantool2,2021.1.4,Win32,60.22282445,5d47d84a4555540001a4ae83,60d9d14f4a8a35a482e0d9bf,60edee7544681fa0a1189361,,,,,,,,,,,,
"[""period"",""comma""]",0,"[0.36810000000053833,1.353400000000363]",95,0,95,0,1,5d47d84a4555540001a4ae83,Mężczyzna,25,2021-07-13_21h51.47.490,rantool2,2021.1.4,Win32,60.22282445,5d47d84a4555540001a4ae83,60d9d14f4a8a35a482e0d9bf,60edee7544681fa0a1189361,,,,,,,,,,,,
"[""comma""]",0,[0.6857999999998015],96,0,96,0,1,5d47d84a4555540001a4ae83,Mężczyzna,25,2021-07-13_21h51.47.490,rantool2,2021.1.4,Win32,60.22282445,5d47d84a4555540001a4ae83,60d9d14f4a8a35a482e0d9bf,60edee7544681fa0a1189361,,,,,,,,,,,,
"[""period""]",0,[0.38370000000020354],97,0,97,0,1,5d47d84a4555540001a4ae83,Mężczyzna,25,2021-07-13_21h51.47.490,rantool2,2021.1.4,Win32,60.22282445,5d47d84a4555540001a4ae83,60d9d14f4a8a35a482e0d9bf,60edee7544681fa0a1189361,,,,,,,,,,,,
"[""period""]",0,[0.46860000000054924],98,0,98,0,1,5d47d84a4555540001a4ae83,Mężczyzna,25,2021-07-13_21h51.47.490,rantool2,2021.1.4,Win32,60.22282445,5d47d84a4555540001a4ae83,60d9d14f4a8a35a482e0d9bf,60edee7544681fa0a1189361,,,,,,,,,,,,
"[""comma""]",0,[0.8687000000001603],99,0,99,0,1,5d47d84a4555540001a4ae83,Mężczyzna,25,2021-07-13_21h51.47.490,rantool2,2021.1.4,Win32,60.22282445,5d47d84a4555540001a4ae83,60d9d14f4a8a35a482e0d9bf,60edee7544681fa0a1189361,,,,,,,,,,,,
"[""period""]",0,[0.6374999999999886],100,0,100,0,1,5d47d84a4555540001a4ae83,Mężczyzna,25,2021-07-13_21h51.47.490,rantool2,2021.1.4,Win32,60.22282445,5d47d84a4555540001a4ae83,60d9d14f4a8a35a482e0d9bf,60edee7544681fa0a1189361,,,,,,,,,,,,
"[""comma"",""comma""]",0,"[0.18430000000074642,1.5561000000005265]",101,0,101,0,1,5d47d84a4555540001a4ae83,Mężczyzna,25,2021-07-13_21h51.47.490,rantool2,2021.1.4,Win32,60.22282445,5d47d84a4555540001a4ae83,60d9d14f4a8a35a482e0d9bf,60edee7544681fa0a1189361,,,,,,,,,,,,
"[""comma""]",0,[0.6022999999998433],102,0,102,0,1,5d47d84a4555540001a4ae83,Mężczyzna,25,2021-07-13_21h51.47.490,rantool2,2021.1.4,Win32,60.22282445,5d47d84a4555540001a4ae83,60d9d14f4a8a35a482e0d9bf,60edee7544681fa0a1189361,,,,,,,,,,,,
"[""period""]",0,[0.4900000000000091],103,0,103,0,1,5d47d84a4555540001a4ae83,Mężczyzna,25,2021-07-13_21h51.47.490,rantool2,2021.1.4,Win32,60.22282445,5d47d84a4555540001a4ae83,60d9d14f4a8a35a482e0d9bf,60edee7544681fa0a1189361,,,,,,,,,,,,
"[""comma""]",0,[0.5411000000005401],104,0,104,0,1,5d47d84a4555540001a4ae83,Mężczyzna,25,2021-07-13_21h51.47.490,rantool2,2021.1.4,Win32,60.22282445,5d47d84a4555540001a4ae83,60d9d14f4a8a35a482e0d9bf,60edee7544681fa0a1189361,,,,,,,,,,,,
"[""period""]",0,[0.4682000000001949],105,0,105,0,1,5d47d84a4555540001a4ae83,Mężczyzna,25,2021-07-13_21h51.47.490,rantool2,2021.1.4,Win32,60.22282445,5d47d84a4555540001a4ae83,60d9d14f4a8a35a482e0d9bf,60edee7544681fa0a1189361,,,,,,,,,,,,
"[""comma""]",0,[0.7364999999999782],106,0,106,0,1,5d47d84a4555540001a4ae83,Mężczyzna,25,2021-07-13_21h51.47.490,rantool2,2021.1.4,Win32,60.22282445,5d47d84a4555540001a4ae83,60d9d14f4a8a35a482e0d9bf,60edee7544681fa0a1189361,,,,,,,,,,,,
"[""period""]",0,[0.4230000000000018],107,0,107,0,1,5d47d84a4555540001a4ae83,Mężczyzna,25,2021-07-13_21h51.47.490,rantool2,2021.1.4,Win32,60.22282445,5d47d84a4555540001a4ae83,60d9d14f4a8a35a482e0d9bf,60edee7544681fa0a1189361,,,,,,,,,,,,
"[""comma""]",0,[0.2842999999998028],108,0,108,0,1,5d47d84a4555540001a4ae83,Mężczyzna,25,2021-07-13_21h51.47.490,rantool2,2021.1.4,Win32,60.22282445,5d47d84a4555540001a4ae83,60d9d14f4a8a35a482e0d9bf,60edee7544681fa0a1189361,,,,,,,,,,,,
"[""period""]",0,[0.25930000000073505],109,0,109,0,1,5d47d84a4555540001a4ae83,Mężczyzna,25,2021-07-13_21h51.47.490,rantool2,2021.1.4,Win32,60.22282445,5d47d84a4555540001a4ae83,60d9d14f4a8a35a482e0d9bf,60edee7544681fa0a1189361,,,,,,,,,,,,
"[""comma""]",0,[0.0010999999996101906],110,0,110,0,1,5d47d84a4555540001a4ae83,Mężczyzna,25,2021-07-13_21h51.47.490,rantool2,2021.1.4,Win32,60.22282445,5d47d84a4555540001a4ae83,60d9d14f4a8a35a482e0d9bf,60edee7544681fa0a1189361,,,,,,,,,,,,
"[""period""]",0,[0.41790000000037253],111,0,111,0,1,5d47d84a4555540001a4ae83,Mężczyzna,25,2021-07-13_21h51.47.490,rantool2,2021.1.4,Win32,60.22282445,5d47d84a4555540001a4ae83,60d9d14f4a8a35a482e0d9bf,60edee7544681fa0a1189361,,,,,,,,,,,,
"[""comma""]",0,[0.8018999999994207],112,0,112,0,1,5d47d84a4555540001a4ae83,Mężczyzna,25,2021-07-13_21h51.47.490,rantool2,2021.1.4,Win32,60.22282445,5d47d84a4555540001a4ae83,60d9d14f4a8a35a482e0d9bf,60edee7544681fa0a1189361,,,,,,,,,,,,
"[""period""]",0,[0.6540000000000532],113,0,113,0,1,5d47d84a4555540001a4ae83,Mężczyzna,25,2021-07-13_21h51.47.490,rantool2,2021.1.4,Win32,60.22282445,5d47d84a4555540001a4ae83,60d9d14f4a8a35a482e0d9bf,60edee7544681fa0a1189361,,,,,,,,,,,,
"[""comma""]",0,[0.2874999999999659],114,0,114,0,1,5d47d84a4555540001a4ae83,Mężczyzna,25,2021-07-13_21h51.47.490,rantool2,2021.1.4,Win32,60.22282445,5d47d84a4555540001a4ae83,60d9d14f4a8a35a482e0d9bf,60edee7544681fa0a1189361,,,,,,,,,,,,
"[""period""]",0,[0.9057000000001949],115,0,115,0,1,5d47d84a4555540001a4ae83,Mężczyzna,25,2021-07-13_21h51.47.490,rantool2,2021.1.4,Win32,60.22282445,5d47d84a4555540001a4ae83,60d9d14f4a8a35a482e0d9bf,60edee7544681fa0a1189361,,,,,,,,,,,,
"[""comma""]",0,[0.42410000000057835],116,0,116,0,1,5d47d84a4555540001a4ae83,Mężczyzna,25,2021-07-13_21h51.47.490,rantool2,2021.1.4,Win32,60.22282445,5d47d84a4555540001a4ae83,60d9d14f4a8a35a482e0d9bf,60edee7544681fa0a1189361,,,,,,,,,,,,
"[""comma""]",0,[0.6031000000006088],117,0,117,0,1,5d47d84a4555540001a4ae83,Mężczyzna,25,2021-07-13_21h51.47.490,rantool2,2021.1.4,Win32,60.22282445,5d47d84a4555540001a4ae83,60d9d14f4a8a35a482e0d9bf,60edee7544681fa0a1189361,,,,,,,,,,,,
"[""period""]",0,[0.12680000000074187],118,0,118,0,1,5d47d84a4555540001a4ae83,Mężczyzna,25,2021-07-13_21h51.47.490,rantool2,2021.1.4,Win32,60.22282445,5d47d84a4555540001a4ae83,60d9d14f4a8a35a482e0d9bf,60edee7544681fa0a1189361,,,,,,,,,,,,
"[""comma""]",0,[1.0842999999998142],119,0,119,0,1,5d47d84a4555540001a4ae83,Mężczyzna,25,2021-07-13_21h51.47.490,rantool2,2021.1.4,Win32,60.22282445,5d47d84a4555540001a4ae83,60d9d14f4a8a35a482e0d9bf,60edee7544681fa0a1189361,,,,,,,,,,,,
,,,,,,,,5d47d84a4555540001a4ae83,Mężczyzna,25,2021-07-13_21h51.47.490,rantool2,2021.1.4,Win32,60.22282445,5d47d84a4555540001a4ae83,60d9d14f4a8a35a482e0d9bf,60edee7544681fa0a1189361,j,3.2049,0,0,0,55,1,RRORRRO,RRORRRR,21.56657303,21.21223021,series_0
,,,,,,,,5d47d84a4555540001a4ae83,Mężczyzna,25,2021-07-13_21h51.47.490,rantool2,2021.1.4,Win32,60.22282445,5d47d84a4555540001a4ae83,60d9d14f4a8a35a482e0d9bf,60edee7544681fa0a1189361,f,2.6683,0,1,1,43,1,RORORRO,RORORRR,20.71309134,21.07490964,series_1
,,,,,,,,5d47d84a4555540001a4ae83,Mężczyzna,25,2021-07-13_21h51.47.490,rantool2,2021.1.4,Win32,60.22282445,5d47d84a4555540001a4ae83,60d9d14f4a8a35a482e0d9bf,60edee7544681fa0a1189361,j,2.2082,0,2,2,61,1,RRRRORO,RRRRORR,21.81333602,21.17347734,series_0
,,,,,,,,5d47d84a4555540001a4ae83,Mężczyzna,25,2021-07-13_21h51.47.490,rantool2,2021.1.4,Win32,60.22282445,5d47d84a4555540001a4ae83,60d9d14f4a8a35a482e0d9bf,60edee7544681fa0a1189361,j,1.6778,0,3,3,46,1,RORRROO,RORRROR,22.00300695,21.24781509,series_0
,,,,,,,,5d47d84a4555540001a4ae83,Mężczyzna,25,2021-07-13_21h51.47.490,rantool2,2021.1.4,Win32,60.22282445,5d47d84a4555540001a4ae83,60d9d14f4a8a35a482e0d9bf,60edee7544681fa0a1189361,j,3.3685,0,4,4,53,1,RRORORO,RRORORR,20.71309134,21.90565814,series_1
,,,,,,,,5d47d84a4555540001a4ae83,Mężczyzna,25,2021-07-13_21h51.47.490,rantool2,2021.1.4,Win32,60.22282445,5d47d84a4555540001a4ae83,60d9d14f4a8a35a482e0d9bf,60edee7544681fa0a1189361,f,1.5506,0,5,5,27,1,ORRORRO,ORRORRR,21.55250791,22.2428857,series_1
,,,,,,,,5d47d84a4555540001a4ae83,Mężczyzna,25,2021-07-13_21h51.47.490,rantool2,2021.1.4,Win32,60.22282445,5d47d84a4555540001a4ae83,60d9d14f4a8a35a482e0d9bf,60edee7544681fa0a1189361,f,2.4048,0,6,6,40,1,ROROOOO,ROROOOR,20.87963819,21.37121559,series_1
,,,,,,,,5d47d84a4555540001a4ae83,Mężczyzna,25,2021-07-13_21h51.47.490,rantool2,2021.1.4,Win32,60.22282445,5d47d84a4555540001a4ae83,60d9d14f4a8a35a482e0d9bf,60edee7544681fa0a1189361,f,1.4187,0,7,7,2,1,OOOOROO,OOOOROR,20.43051175,21.02936224,series_1
,,,,,,,,5d47d84a4555540001a4ae83,Mężczyzna,25,2021-07-13_21h51.47.490,rantool2,2021.1.4,Win32,60.22282445,5d47d84a4555540001a4ae83,60d9d14f4a8a35a482e0d9bf,60edee7544681fa0a1189361,f,1.6336,0,8,8,42,1,ROROROO,ROROROR,20.39515459,19.8361834,series_0
,,,,,,,,5d47d84a4555540001a4ae83,Mężczyzna,25,2021-07-13_21h51.47.490,rantool2,2021.1.4,Win32,60.22282445,5d47d84a4555540001a4ae83,60d9d14f4a8a35a482e0d9bf,60edee7544681fa0a1189361,j,1.1531,0,9,9,41,1,ROROORO,ROROORR,20.42602454,21.71443381,series_1
,,,,,,,,5d47d84a4555540001a4ae83,Mężczyzna,25,2021-07-13_21h51.47.490,rantool2,2021.1.4,Win32,60.22282445,5d47d84a4555540001a4ae83,60d9d14f4a8a35a482e0d9bf,60edee7544681fa0a1189361,j,1.1847,0,10,10,30,1,ORRRROO,ORRRROR,22.46748491,22.03072203,series_0
,,,,,,,,5d47d84a4555540001a4ae83,Mężczyzna,25,2021-07-13_21h51.47.490,rantool2,2021.1.4,Win32,60.22282445,5d47d84a4555540001a4ae83,60d9d14f4a8a35a482e0d9bf,60edee7544681fa0a1189361,f,1.3498,0,11,11,5,1,OOORORO,OOORORR,20.87963819,21.9921709,series_1
,,,,,,,,5d47d84a4555540001a4ae83,Mężczyzna,25,2021-07-13_21h51.47.490,rantool2,2021.1.4,Win32,60.22282445,5d47d84a4555540001a4ae83,60d9d14f4a8a35a482e0d9bf,60edee7544681fa0a1189361,j,1.4694,0,12,12,37,1,ROORORO,ROORORR,20.42602454,21.57657071,series_1
,,,,,,,,5d47d84a4555540001a4ae83,Mężczyzna,25,2021-07-13_21h51.47.490,rantool2,2021.1.4,Win32,60.22282445,5d47d84a4555540001a4ae83,60d9d14f4a8a35a482e0d9bf,60edee7544681fa0a1189361,f,1.2204,0,13,13,4,1,OOOROOO,OOOROOR,19.91402015,21.21223021,series_1
,,,,,,,,5d47d84a4555540001a4ae83,Mężczyzna,25,2021-07-13_21h51.47.490,rantool2,2021.1.4,Win32,60.22282445,5d47d84a4555540001a4ae83,60d9d14f4a8a35a482e0d9bf,60edee7544681fa0a1189361,f,1.246,0,14,14,34,1,ROOOROO,ROOOROR,21.03750787,21.24781509,series_1
,,,,,,,,5d47d84a4555540001a4ae83,Mężczyzna,25,2021-07-13_21h51.47.490,rantool2,2021.1.4,Win32,60.22282445,5d47d84a4555540001a4ae83,60d9d14f4a8a35a482e0d9bf,60edee7544681fa0a1189361,j,1.3523,0,15,15,63,1,RRRRRRO,RRRRRRR,21.35278725,19.62521613,series_0
,,,,,,,,5d47d84a4555540001a4ae83,Mężczyzna,25,2021-07-13_21h51.47.490,rantool2,2021.1.4,Win32,60.22282445,5d47d84a4555540001a4ae83,60d9d14f4a8a35a482e0d9bf,60edee7544681fa0a1189361,j,1.9466,0,16,16,59,1,RRRORRO,RRRORRR,21.56657303,20.89823192,series_0
,,,,,,,,5d47d84a4555540001a4ae83,Mężczyzna,25,2021-07-13_21h51.47.490,rantool2,2021.1.4,Win32,60.22282445,5d47d84a4555540001a4ae83,60d9d14f4a8a35a482e0d9bf,60edee7544681fa0a1189361,j,2.2222,0,17,17,1,1,OOOOORO,OOOOORR,19.92253567,20.74050628,series_1
,,,,,,,,5d47d84a4555540001a4ae83,Mężczyzna,25,2021-07-13_21h51.47.490,rantool2,2021.1.4,Win32,60.22282445,5d47d84a4555540001a4ae83,60d9d14f4a8a35a482e0d9bf,60edee7544681fa0a1189361,f,1.4655,0,18,18,6,1,OOORROO,OOORROR,21.12383932,21.38562617,series_1
,,,,,,,,5d47d84a4555540001a4ae83,Mężczyzna,25,2021-07-13_21h51.47.490,rantool2,2021.1.4,Win32,60.22282445,5d47d84a4555540001a4ae83,60d9d14f4a8a35a482e0d9bf,60edee7544681fa0a1189361,f,2.031,0,19,19,56,1,RRROOOO,RRROOOR,21.6194508,22.31681875,series_1
,,,,,,,,5d47d84a4555540001a4ae83,Mężczyzna,25,2021-07-13_21h51.47.490,rantool2,2021.1.4,Win32,60.22282445,5d47d84a4555540001a4ae83,60d9d14f4a8a35a482e0d9bf,60edee7544681fa0a1189361,j,1.9134,0,20,20,11,1,OORORRO,OORORRR,22.18365867,22.6797523,series_1
,,,,,,,,5d47d84a4555540001a4ae83,Mężczyzna,25,2021-07-13_21h51.47.490,rantool2,2021.1.4,Win32,60.22282445,5d47d84a4555540001a4ae83,60d9d14f4a8a35a482e0d9bf,60edee7544681fa0a1189361,f,1.7862,0,21,21,24,1,ORROOOO,ORROOOR,21.12383932,22.07102821,series_1
,,,,,,,,5d47d84a4555540001a4ae83,Mężczyzna,25,2021-07-13_21h51.47.490,rantool2,2021.1.4,Win32,60.22282445,5d47d84a4555540001a4ae83,60d9d14f4a8a35a482e0d9bf,60edee7544681fa0a1189361,j,3.0348,0,22,22,9,1,OOROORO,OOROORR,21.07991943,22.2428857,series_1
,,,,,,,,5d47d84a4555540001a4ae83,Mężczyzna,25,2021-07-13_21h51.47.490,rantool2,2021.1.4,Win32,60.22282445,5d47d84a4555540001a4ae83,60d9d14f4a8a35a482e0d9bf,60edee7544681fa0a1189361,f,2.2753,0,23,23,20,1,OROROOO,OROROOR,21.31236711,21.90565814,series_1
,,,,,,,,5d47d84a4555540001a4ae83,Mężczyzna,25,2021-07-13_21h51.47.490,rantool2,2021.1.4,Win32,60.22282445,5d47d84a4555540001a4ae83,60d9d14f4a8a35a482e0d9bf,60edee7544681fa0a1189361,f,2.6284,0,24,24,18,1,OROOROO,OROOROR,20.84860893,21.22513037,series_1
,,,,,,,,5d47d84a4555540001a4ae83,Mężczyzna,25,2021-07-13_21h51.47.490,rantool2,2021.1.4,Win32,60.22282445,5d47d84a4555540001a4ae83,60d9d14f4a8a35a482e0d9bf,60edee7544681fa0a1189361,j,1.5523,0,25,25,38,1,ROORROO,ROORROR,21.79500819,21.36812781,series_0
,,,,,,,,5d47d84a4555540001a4ae83,Mężczyzna,25,2021-07-13_21h51.47.490,rantool2,2021.1.4,Win32,60.22282445,5d47d84a4555540001a4ae83,60d9d14f4a8a35a482e0d9bf,60edee7544681fa0a1189361,f,3.5808,0,26,26,58,1,RRROROO,RRROROR,22.1285618,21.37121559,series_0
,,,,,,,,5d47d84a4555540001a4ae83,Mężczyzna,25,2021-07-13_21h51.47.490,rantool2,2021.1.4,Win32,60.22282445,5d47d84a4555540001a4ae83,60d9d14f4a8a35a482e0d9bf,60edee7544681fa0a1189361,j,1.5534,0,27,27,23,1,ORORRRO,ORORRRR,22.1285618,21.9921709,series_0
,,,,,,,,5d47d84a4555540001a4ae83,Mężczyzna,25,2021-07-13_21h51.47.490,rantool2,2021.1.4,Win32,60.22282445,5d47d84a4555540001a4ae83,60d9d14f4a8a35a482e0d9bf,60edee7544681fa0a1189361,j,3.0911,0,28,28,19,1,OROORRO,OROORRR,21.73568164,22.11181017,series_1
,,,,,,,,5d47d84a4555540001a4ae83,Mężczyzna,25,2021-07-13_21h51.47.490,rantool2,2021.1.4,Win32,60.22282445,5d47d84a4555540001a4ae83,60d9d14f4a8a35a482e0d9bf,60edee7544681fa0a1189361,f,2.0698,0,29,29,28,1,ORRROOO,ORRROOR,22.24142883,22.53364006,series_1
,,,,,,,,5d47d84a4555540001a4ae83,Mężczyzna,25,2021-07-13_21h51.47.490,rantool2,2021.1.4,Win32,60.22282445,5d47d84a4555540001a4ae83,60d9d14f4a8a35a482e0d9bf,60edee7544681fa0a1189361,j,1.3976,0,30,30,54,1,RRORROO,RRORROR,21.55250791,20.9984461,series_0
,,,,,,,,5d47d84a4555540001a4ae83,Mężczyzna,25,2021-07-13_21h51.47.490,rantool2,2021.1.4,Win32,60.22282445,5d47d84a4555540001a4ae83,60d9d14f4a8a35a482e0d9bf,60edee7544681fa0a1189361,f,2.4135,0,31,31,10,1,OOROROO,OOROROR,21.31236711,21.07490964,series_0
,,,,,,,,5d47d84a4555540001a4ae83,Mężczyzna,25,2021-07-13_21h51.47.490,rantool2,2021.1.4,Win32,60.22282445,5d47d84a4555540001a4ae83,60d9d14f4a8a35a482e0d9bf,60edee7544681fa0a1189361,j,2.1396,0,32,32,29,1,ORRRORO,ORRRORR,22.00300695,22.12173012,series_1
,,,,,,,,5d47d84a4555540001a4ae83,Mężczyzna,25,2021-07-13_21h51.47.490,rantool2,2021.1.4,Win32,60.22282445,5d47d84a4555540001a4ae83,60d9d14f4a8a35a482e0d9bf,60edee7544681fa0a1189361,f,1.4662,0,33,33,16,1,OROOOOO,OROOOOR,20.43051175,21.17347734,series_1
,,,,,,,,5d47d84a4555540001a4ae83,Mężczyzna,25,2021-07-13_21h51.47.490,rantool2,2021.1.4,Win32,60.22282445,5d47d84a4555540001a4ae83,60d9d14f4a8a35a482e0d9bf,60edee7544681fa0a1189361,j,2.8208,0,34,34,32,1,ROOOOOO,ROOOOOR,19.92253567,21.27974287,series_1
,,,,,,,,5d47d84a4555540001a4ae83,Mężczyzna,25,2021-07-13_21h51.47.490,rantool2,2021.1.4,Win32,60.22282445,5d47d84a4555540001a4ae83,60d9d14f4a8a35a482e0d9bf,60edee7544681fa0a1189361,j,2.3458,0,35,35,36,1,ROOROOO,ROOROOR,21.07991943,20.9984461,series_0
,,,,,,,,5d47d84a4555540001a4ae83,Mężczyzna,25,2021-07-13_21h51.47.490,rantool2,2021.1.4,Win32,60.22282445,5d47d84a4555540001a4ae83,60d9d14f4a8a35a482e0d9bf,60edee7544681fa0a1189361,f,1.0643,0,36,36,17,1,OROOORO,OROOORR,21.03750787,22.12173012,series_1
,,,,,,,,5d47d84a4555540001a4ae83,Mężczyzna,25,2021-07-13_21h51.47.490,rantool2,2021.1.4,Win32,60.22282445,5d47d84a4555540001a4ae83,60d9d14f4a8a35a482e0d9bf,60edee7544681fa0a1189361,j,1.0143,0,37,37,33,1,ROOOORO,ROOOORR,20.83779602,22.03072203,series_1
,,,,,,,,5d47d84a4555540001a4ae83,Mężczyzna,25,2021-07-13_21h51.47.490,rantool2,2021.1.4,Win32,60.22282445,5d47d84a4555540001a4ae83,60d9d14f4a8a35a482e0d9bf,60edee7544681fa0a1189361,j,1.1013,0,38,38,45,1,RORRORO,RORRORR,20.78182524,21.22513037,series_1
,,,,,,,,5d47d84a4555540001a4ae83,Mężczyzna,25,2021-07-13_21h51.47.490,rantool2,2021.1.4,Win32,60.22282445,5d47d84a4555540001a4ae83,60d9d14f4a8a35a482e0d9bf,60edee7544681fa0a1189361,j,1.2157,0,39,39,12,1,OORROOO,OORROOR,21.30250474,22.02786418,series_1
,,,,,,,,5d47d84a4555540001a4ae83,Mężczyzna,25,2021-07-13_21h51.47.490,rantool2,2021.1.4,Win32,60.22282445,5d47d84a4555540001a4ae83,60d9d14f4a8a35a482e0d9bf,60edee7544681fa0a1189361,j,1.7053,0,40,40,21,1,ORORORO,ORORORR,20.39515459,22.06781359,series_1
,,,,,,,,5d47d84a4555540001a4ae83,Mężczyzna,25,2021-07-13_21h51.47.490,rantool2,2021.1.4,Win32,60.22282445,5d47d84a4555540001a4ae83,60d9d14f4a8a35a482e0d9bf,60edee7544681fa0a1189361,j,1.9832,0,41,41,60,1,RRRROOO,RRRROOR,22.10108823,22.15934078,series_1
,,,,,,,,5d47d84a4555540001a4ae83,Mężczyzna,25,2021-07-13_21h51.47.490,rantool2,2021.1.4,Win32,60.22282445,5d47d84a4555540001a4ae83,60d9d14f4a8a35a482e0d9bf,60edee7544681fa0a1189361,j,1.8638,0,42,42,3,1,OOOORRO,OOOORRR,20.90986523,21.74922619,series_1
,,,,,,,,5d47d84a4555540001a4ae83,Mężczyzna,25,2021-07-13_21h51.47.490,rantool2,2021.1.4,Win32,60.22282445,5d47d84a4555540001a4ae83,60d9d14f4a8a35a482e0d9bf,60edee7544681fa0a1189361,f,2.3901,0,43,43,22,1,ORORROO,ORORROR,22.02732763,21.57657071,series_0
,,,,,,,,5d47d84a4555540001a4ae83,Mężczyzna,25,2021-07-13_21h51.47.490,rantool2,2021.1.4,Win32,60.22282445,5d47d84a4555540001a4ae83,60d9d14f4a8a35a482e0d9bf,60edee7544681fa0a1189361,j,1.7747,0,44,44,8,1,OOROOOO,OOROOOR,19.91402015,20.89823192,series_1
,,,,,,,,5d47d84a4555540001a4ae83,Mężczyzna,25,2021-07-13_21h51.47.490,rantool2,2021.1.4,Win32,60.22282445,5d47d84a4555540001a4ae83,60d9d14f4a8a35a482e0d9bf,60edee7544681fa0a1189361,f,1.2804,0,45,45,50,1,RROOROO,RROOROR,21.73568164,22.02566557,series_1
,,,,,,,,5d47d84a4555540001a4ae83,Mężczyzna,25,2021-07-13_21h51.47.490,rantool2,2021.1.4,Win32,60.22282445,5d47d84a4555540001a4ae83,60d9d14f4a8a35a482e0d9bf,60edee7544681fa0a1189361,j,1.269,0,46,46,39,1,ROORRRO,ROORRRR,21.82425538,21.38562617,series_0
,,,,,,,,5d47d84a4555540001a4ae83,Mężczyzna,25,2021-07-13_21h51.47.490,rantool2,2021.1.4,Win32,60.22282445,5d47d84a4555540001a4ae83,60d9d14f4a8a35a482e0d9bf,60edee7544681fa0a1189361,j,1.518,0,47,47,14,1,OORRROO,OORRROR,22.24142883,22.16977179,series_0
,,,,,,,,5d47d84a4555540001a4ae83,Mężczyzna,25,2021-07-13_21h51.47.490,rantool2,2021.1.4,Win32,60.22282445,5d47d84a4555540001a4ae83,60d9d14f4a8a35a482e0d9bf,60edee7544681fa0a1189361,f,1.9849,0,48,48,13,1,OORRORO,OORRORR,21.66733484,22.11181017,series_1
,,,,,,,,5d47d84a4555540001a4ae83,Mężczyzna,25,2021-07-13_21h51.47.490,rantool2,2021.1.4,Win32,60.22282445,5d47d84a4555540001a4ae83,60d9d14f4a8a35a482e0d9bf,60edee7544681fa0a1189361,j,1.3732,0,49,49,62,1,RRRRROO,RRRRROR,22.16413392,21.27974287,series_0
,,,,,,,,5d47d84a4555540001a4ae83,Mężczyzna,25,2021-07-13_21h51.47.490,rantool2,2021.1.4,Win32,60.22282445,5d47d84a4555540001a4ae83,60d9d14f4a8a35a482e0d9bf,60edee7544681fa0a1189361,j,1.1659,0,50,50,51,1,RROORRO,RROORRR,21.89852628,22.02786418,series_1
,,,,,,,,5d47d84a4555540001a4ae83,Mężczyzna,25,2021-07-13_21h51.47.490,rantool2,2021.1.4,Win32,60.22282445,5d47d84a4555540001a4ae83,60d9d14f4a8a35a482e0d9bf,60edee7544681fa0a1189361,f,1.1133,0,51,51,52,1,RROROOO,RROROOR,22.18365867,22.11097995,series_0
,,,,,,,,5d47d84a4555540001a4ae83,Mężczyzna,25,2021-07-13_21h51.47.490,rantool2,2021.1.4,Win32,60.22282445,5d47d84a4555540001a4ae83,60d9d14f4a8a35a482e0d9bf,60edee7544681fa0a1189361,f,1.3585,0,52,52,44,1,RORROOO,RORROOR,21.66733484,22.02566557,series_1
,,,,,,,,5d47d84a4555540001a4ae83,Mężczyzna,25,2021-07-13_21h51.47.490,rantool2,2021.1.4,Win32,60.22282445,5d47d84a4555540001a4ae83,60d9d14f4a8a35a482e0d9bf,60edee7544681fa0a1189361,f,1.4846,0,53,53,31,1,ORRRRRO,ORRRRRR,22.16413392,20.74050628,series_0
,,,,,,,,5d47d84a4555540001a4ae83,Mężczyzna,25,2021-07-13_21h51.47.490,rantool2,2021.1.4,Win32,60.22282445,5d47d84a4555540001a4ae83,60d9d14f4a8a35a482e0d9bf,60edee7544681fa0a1189361,f,1.4374,0,54,54,7,1,OOORRRO,OOORRRR,21.6194508,21.899017,series_1
,,,,,,,,5d47d84a4555540001a4ae83,Mężczyzna,25,2021-07-13_21h51.47.490,rantool2,2021.1.4,Win32,60.22282445,5d47d84a4555540001a4ae83,60d9d14f4a8a35a482e0d9bf,60edee7544681fa0a1189361,j,1.8658,0,55,55,48,1,RROOOOO,RROOOOR,20.90986523,22.15934078,series_1
,,,,,,,,5d47d84a4555540001a4ae83,Mężczyzna,25,2021-07-13_21h51.47.490,rantool2,2021.1.4,Win32,60.22282445,5d47d84a4555540001a4ae83,60d9d14f4a8a35a482e0d9bf,60edee7544681fa0a1189361,j,1.218,0,56,56,0,1,OOOOOOO,OOOOOOR,18.52739004,19.62521613,series_1
,,,,,,,,5d47d84a4555540001a4ae83,Mężczyzna,25,2021-07-13_21h51.47.490,rantool2,2021.1.4,Win32,60.22282445,5d47d84a4555540001a4ae83,60d9d14f4a8a35a482e0d9bf,60edee7544681fa0a1189361,f,1.6335,0,57,57,57,1,RRROORO,RRROORR,21.82425538,22.07102821,series_1
,,,,,,,,5d47d84a4555540001a4ae83,Mężczyzna,25,2021-07-13_21h51.47.490,rantool2,2021.1.4,Win32,60.22282445,5d47d84a4555540001a4ae83,60d9d14f4a8a35a482e0d9bf,60edee7544681fa0a1189361,f,1.5532,0,58,58,35,1,ROOORRO,ROOORRR,21.76276513,22.16977179,series_1
,,,,,,,,5d47d84a4555540001a4ae83,Mężczyzna,25,2021-07-13_21h51.47.490,rantool2,2021.1.4,Win32,60.22282445,5d47d84a4555540001a4ae83,60d9d14f4a8a35a482e0d9bf,60edee7544681fa0a1189361,f,1.0829,0,59,59,49,1,RROOORO,RROOORR,21.76276513,22.53364006,series_1
,,,,,,,,5d47d84a4555540001a4ae83,Mężczyzna,25,2021-07-13_21h51.47.490,rantool2,2021.1.4,Win32,60.22282445,5d47d84a4555540001a4ae83,60d9d14f4a8a35a482e0d9bf,60edee7544681fa0a1189361,f,1.6149,0,60,60,26,1,ORROROO,ORROROR,22.02732763,21.71443381,series_0
,,,,,,,,5d47d84a4555540001a4ae83,Mężczyzna,25,2021-07-13_21h51.47.490,rantool2,2021.1.4,Win32,60.22282445,5d47d84a4555540001a4ae83,60d9d14f4a8a35a482e0d9bf,60edee7544681fa0a1189361,f,1.2204,0,61,61,47,1,RORRRRO,RORRRRR,21.81333602,21.02936224,series_0
,,,,,,,,5d47d84a4555540001a4ae83,Mężczyzna,25,2021-07-13_21h51.47.490,rantool2,2021.1.4,Win32,60.22282445,5d47d84a4555540001a4ae83,60d9d14f4a8a35a482e0d9bf,60edee7544681fa0a1189361,f,1.1124,0,62,62,25,1,ORROORO,ORROORR,21.79500819,22.61624387,series_1
,,,,,,,,5d47d84a4555540001a4ae83,Mężczyzna,25,2021-07-13_21h51.47.490,rantool2,2021.1.4,Win32,60.22282445,5d47d84a4555540001a4ae83,60d9d14f4a8a35a482e0d9bf,60edee7544681fa0a1189361,f,1.5351,0,63,63,15,1,OORRRRO,OORRRRR,22.10108823,21.74922619,series_0
