key_resp_7.keys,key_resp_7.rt,trials_2.thisRepN,trials_2.thisTrialN,trials_2.thisN,trials_2.thisIndex,trials_2.ran,id,series_0,series_1,acss_0,acss_1,comparison,id*,Płeć*,Wiek*,date,expName,psychopyVersion,OS,frameRate,STUDY_ID,SESSION_ID,key_resp_5.keys,key_resp_5.corr,key_resp_5.rt,trials.thisRepN,trials.thisTrialN,trials.thisN,trials.thisIndex,trials.ran
f,1.7697,0,0,0,57,1,5fd9e1d77215292fd745a186,RRROORO,RRROORR,21.82425538,22.07102821,series_1,5fd9e1d77215292fd745a186,Mężczyzna,19,2021-09-06_19h26.11.552,rantool2,2021.1.4,Win32,59.97001499,6135e006383e6ea6c3d06a28,61364ef3a570bbd26f8b9186,,,,,,,,
f,2.3627,0,1,1,60,1,5fd9e1d77215292fd745a186,RRRROOO,RRRROOR,22.10108823,22.15934078,series_1,5fd9e1d77215292fd745a186,Mężczyzna,19,2021-09-06_19h26.11.552,rantool2,2021.1.4,Win32,59.97001499,6135e006383e6ea6c3d06a28,61364ef3a570bbd26f8b9186,,,,,,,,
f,1.6238,0,2,2,27,1,5fd9e1d77215292fd745a186,ORRORRO,ORRORRR,21.55250791,22.2428857,series_1,5fd9e1d77215292fd745a186,Mężczyzna,19,2021-09-06_19h26.11.552,rantool2,2021.1.4,Win32,59.97001499,6135e006383e6ea6c3d06a28,61364ef3a570bbd26f8b9186,,,,,,,,
j,3.1331,0,3,3,45,1,5fd9e1d77215292fd745a186,RORRORO,RORRORR,20.78182524,21.22513037,series_1,5fd9e1d77215292fd745a186,Mężczyzna,19,2021-09-06_19h26.11.552,rantool2,2021.1.4,Win32,59.97001499,6135e006383e6ea6c3d06a28,61364ef3a570bbd26f8b9186,,,,,,,,
f,2.3793,0,4,4,29,1,5fd9e1d77215292fd745a186,ORRRORO,ORRRORR,22.00300695,22.12173012,series_1,5fd9e1d77215292fd745a186,Mężczyzna,19,2021-09-06_19h26.11.552,rantool2,2021.1.4,Win32,59.97001499,6135e006383e6ea6c3d06a28,61364ef3a570bbd26f8b9186,,,,,,,,
f,1.1944,0,5,5,0,1,5fd9e1d77215292fd745a186,OOOOOOO,OOOOOOR,18.52739004,19.62521613,series_1,5fd9e1d77215292fd745a186,Mężczyzna,19,2021-09-06_19h26.11.552,rantool2,2021.1.4,Win32,59.97001499,6135e006383e6ea6c3d06a28,61364ef3a570bbd26f8b9186,,,,,,,,
f,1.7393,0,6,6,33,1,5fd9e1d77215292fd745a186,ROOOORO,ROOOORR,20.83779602,22.03072203,series_1,5fd9e1d77215292fd745a186,Mężczyzna,19,2021-09-06_19h26.11.552,rantool2,2021.1.4,Win32,59.97001499,6135e006383e6ea6c3d06a28,61364ef3a570bbd26f8b9186,,,,,,,,
f,1.3143,0,7,7,6,1,5fd9e1d77215292fd745a186,OOORROO,OOORROR,21.12383932,21.38562617,series_1,5fd9e1d77215292fd745a186,Mężczyzna,19,2021-09-06_19h26.11.552,rantool2,2021.1.4,Win32,59.97001499,6135e006383e6ea6c3d06a28,61364ef3a570bbd26f8b9186,,,,,,,,
f,2.1338,0,8,8,43,1,5fd9e1d77215292fd745a186,RORORRO,RORORRR,20.71309134,21.07490964,series_1,5fd9e1d77215292fd745a186,Mężczyzna,19,2021-09-06_19h26.11.552,rantool2,2021.1.4,Win32,59.97001499,6135e006383e6ea6c3d06a28,61364ef3a570bbd26f8b9186,,,,,,,,
f,1.9564,0,9,9,20,1,5fd9e1d77215292fd745a186,OROROOO,OROROOR,21.31236711,21.90565814,series_1,5fd9e1d77215292fd745a186,Mężczyzna,19,2021-09-06_19h26.11.552,rantool2,2021.1.4,Win32,59.97001499,6135e006383e6ea6c3d06a28,61364ef3a570bbd26f8b9186,,,,,,,,
j,1.8704,0,10,10,52,1,5fd9e1d77215292fd745a186,RROROOO,RROROOR,22.18365867,22.11097995,series_0,5fd9e1d77215292fd745a186,Mężczyzna,19,2021-09-06_19h26.11.552,rantool2,2021.1.4,Win32,59.97001499,6135e006383e6ea6c3d06a28,61364ef3a570bbd26f8b9186,,,,,,,,
f,1.272,0,11,11,12,1,5fd9e1d77215292fd745a186,OORROOO,OORROOR,21.30250474,22.02786418,series_1,5fd9e1d77215292fd745a186,Mężczyzna,19,2021-09-06_19h26.11.552,rantool2,2021.1.4,Win32,59.97001499,6135e006383e6ea6c3d06a28,61364ef3a570bbd26f8b9186,,,,,,,,
f,1.3045,0,12,12,31,1,5fd9e1d77215292fd745a186,ORRRRRO,ORRRRRR,22.16413392,20.74050628,series_0,5fd9e1d77215292fd745a186,Mężczyzna,19,2021-09-06_19h26.11.552,rantool2,2021.1.4,Win32,59.97001499,6135e006383e6ea6c3d06a28,61364ef3a570bbd26f8b9186,,,,,,,,
j,1.8075,0,13,13,21,1,5fd9e1d77215292fd745a186,ORORORO,ORORORR,20.39515459,22.06781359,series_1,5fd9e1d77215292fd745a186,Mężczyzna,19,2021-09-06_19h26.11.552,rantool2,2021.1.4,Win32,59.97001499,6135e006383e6ea6c3d06a28,61364ef3a570bbd26f8b9186,,,,,,,,
j,1.2428,0,14,14,18,1,5fd9e1d77215292fd745a186,OROOROO,OROOROR,20.84860893,21.22513037,series_1,5fd9e1d77215292fd745a186,Mężczyzna,19,2021-09-06_19h26.11.552,rantool2,2021.1.4,Win32,59.97001499,6135e006383e6ea6c3d06a28,61364ef3a570bbd26f8b9186,,,,,,,,
j,1.4589,0,15,15,19,1,5fd9e1d77215292fd745a186,OROORRO,OROORRR,21.73568164,22.11181017,series_1,5fd9e1d77215292fd745a186,Mężczyzna,19,2021-09-06_19h26.11.552,rantool2,2021.1.4,Win32,59.97001499,6135e006383e6ea6c3d06a28,61364ef3a570bbd26f8b9186,,,,,,,,
j,1.4538,0,16,16,22,1,5fd9e1d77215292fd745a186,ORORROO,ORORROR,22.02732763,21.57657071,series_0,5fd9e1d77215292fd745a186,Mężczyzna,19,2021-09-06_19h26.11.552,rantool2,2021.1.4,Win32,59.97001499,6135e006383e6ea6c3d06a28,61364ef3a570bbd26f8b9186,,,,,,,,
j,1.9973,0,17,17,15,1,5fd9e1d77215292fd745a186,OORRRRO,OORRRRR,22.10108823,21.74922619,series_0,5fd9e1d77215292fd745a186,Mężczyzna,19,2021-09-06_19h26.11.552,rantool2,2021.1.4,Win32,59.97001499,6135e006383e6ea6c3d06a28,61364ef3a570bbd26f8b9186,,,,,,,,
f,1.5228,0,18,18,5,1,5fd9e1d77215292fd745a186,OOORORO,OOORORR,20.87963819,21.9921709,series_1,5fd9e1d77215292fd745a186,Mężczyzna,19,2021-09-06_19h26.11.552,rantool2,2021.1.4,Win32,59.97001499,6135e006383e6ea6c3d06a28,61364ef3a570bbd26f8b9186,,,,,,,,
j,1.5575,0,19,19,39,1,5fd9e1d77215292fd745a186,ROORRRO,ROORRRR,21.82425538,21.38562617,series_0,5fd9e1d77215292fd745a186,Mężczyzna,19,2021-09-06_19h26.11.552,rantool2,2021.1.4,Win32,59.97001499,6135e006383e6ea6c3d06a28,61364ef3a570bbd26f8b9186,,,,,,,,
j,2.0268,0,20,20,40,1,5fd9e1d77215292fd745a186,ROROOOO,ROROOOR,20.87963819,21.37121559,series_1,5fd9e1d77215292fd745a186,Mężczyzna,19,2021-09-06_19h26.11.552,rantool2,2021.1.4,Win32,59.97001499,6135e006383e6ea6c3d06a28,61364ef3a570bbd26f8b9186,,,,,,,,
j,1.9089,0,21,21,59,1,5fd9e1d77215292fd745a186,RRRORRO,RRRORRR,21.56657303,20.89823192,series_0,5fd9e1d77215292fd745a186,Mężczyzna,19,2021-09-06_19h26.11.552,rantool2,2021.1.4,Win32,59.97001499,6135e006383e6ea6c3d06a28,61364ef3a570bbd26f8b9186,,,,,,,,
f,2.0297,0,22,22,17,1,5fd9e1d77215292fd745a186,OROOORO,OROOORR,21.03750787,22.12173012,series_1,5fd9e1d77215292fd745a186,Mężczyzna,19,2021-09-06_19h26.11.552,rantool2,2021.1.4,Win32,59.97001499,6135e006383e6ea6c3d06a28,61364ef3a570bbd26f8b9186,,,,,,,,
f,1.7828,0,23,23,56,1,5fd9e1d77215292fd745a186,RRROOOO,RRROOOR,21.6194508,22.31681875,series_1,5fd9e1d77215292fd745a186,Mężczyzna,19,2021-09-06_19h26.11.552,rantool2,2021.1.4,Win32,59.97001499,6135e006383e6ea6c3d06a28,61364ef3a570bbd26f8b9186,,,,,,,,
f,1.5483,0,24,24,23,1,5fd9e1d77215292fd745a186,ORORRRO,ORORRRR,22.1285618,21.9921709,series_0,5fd9e1d77215292fd745a186,Mężczyzna,19,2021-09-06_19h26.11.552,rantool2,2021.1.4,Win32,59.97001499,6135e006383e6ea6c3d06a28,61364ef3a570bbd26f8b9186,,,,,,,,
f,2.4703,0,25,25,50,1,5fd9e1d77215292fd745a186,RROOROO,RROOROR,21.73568164,22.02566557,series_1,5fd9e1d77215292fd745a186,Mężczyzna,19,2021-09-06_19h26.11.552,rantool2,2021.1.4,Win32,59.97001499,6135e006383e6ea6c3d06a28,61364ef3a570bbd26f8b9186,,,,,,,,
f,2.124,0,26,26,51,1,5fd9e1d77215292fd745a186,RROORRO,RROORRR,21.89852628,22.02786418,series_1,5fd9e1d77215292fd745a186,Mężczyzna,19,2021-09-06_19h26.11.552,rantool2,2021.1.4,Win32,59.97001499,6135e006383e6ea6c3d06a28,61364ef3a570bbd26f8b9186,,,,,,,,
f,1.9719,0,27,27,38,1,5fd9e1d77215292fd745a186,ROORROO,ROORROR,21.79500819,21.36812781,series_0,5fd9e1d77215292fd745a186,Mężczyzna,19,2021-09-06_19h26.11.552,rantool2,2021.1.4,Win32,59.97001499,6135e006383e6ea6c3d06a28,61364ef3a570bbd26f8b9186,,,,,,,,
f,1.2926,0,28,28,61,1,5fd9e1d77215292fd745a186,RRRRORO,RRRRORR,21.81333602,21.17347734,series_0,5fd9e1d77215292fd745a186,Mężczyzna,19,2021-09-06_19h26.11.552,rantool2,2021.1.4,Win32,59.97001499,6135e006383e6ea6c3d06a28,61364ef3a570bbd26f8b9186,,,,,,,,
j,1.4287,0,29,29,1,1,5fd9e1d77215292fd745a186,OOOOORO,OOOOORR,19.92253567,20.74050628,series_1,5fd9e1d77215292fd745a186,Mężczyzna,19,2021-09-06_19h26.11.552,rantool2,2021.1.4,Win32,59.97001499,6135e006383e6ea6c3d06a28,61364ef3a570bbd26f8b9186,,,,,,,,
j,1.3052,0,30,30,36,1,5fd9e1d77215292fd745a186,ROOROOO,ROOROOR,21.07991943,20.9984461,series_0,5fd9e1d77215292fd745a186,Mężczyzna,19,2021-09-06_19h26.11.552,rantool2,2021.1.4,Win32,59.97001499,6135e006383e6ea6c3d06a28,61364ef3a570bbd26f8b9186,,,,,,,,
f,1.163,0,31,31,54,1,5fd9e1d77215292fd745a186,RRORROO,RRORROR,21.55250791,20.9984461,series_0,5fd9e1d77215292fd745a186,Mężczyzna,19,2021-09-06_19h26.11.552,rantool2,2021.1.4,Win32,59.97001499,6135e006383e6ea6c3d06a28,61364ef3a570bbd26f8b9186,,,,,,,,
f,1.3518,0,32,32,49,1,5fd9e1d77215292fd745a186,RROOORO,RROOORR,21.76276513,22.53364006,series_1,5fd9e1d77215292fd745a186,Mężczyzna,19,2021-09-06_19h26.11.552,rantool2,2021.1.4,Win32,59.97001499,6135e006383e6ea6c3d06a28,61364ef3a570bbd26f8b9186,,,,,,,,
j,2.5394,0,33,33,37,1,5fd9e1d77215292fd745a186,ROORORO,ROORORR,20.42602454,21.57657071,series_1,5fd9e1d77215292fd745a186,Mężczyzna,19,2021-09-06_19h26.11.552,rantool2,2021.1.4,Win32,59.97001499,6135e006383e6ea6c3d06a28,61364ef3a570bbd26f8b9186,,,,,,,,
j,1.489,0,34,34,62,1,5fd9e1d77215292fd745a186,RRRRROO,RRRRROR,22.16413392,21.27974287,series_0,5fd9e1d77215292fd745a186,Mężczyzna,19,2021-09-06_19h26.11.552,rantool2,2021.1.4,Win32,59.97001499,6135e006383e6ea6c3d06a28,61364ef3a570bbd26f8b9186,,,,,,,,
j,2.2804,0,35,35,53,1,5fd9e1d77215292fd745a186,RRORORO,RRORORR,20.71309134,21.90565814,series_1,5fd9e1d77215292fd745a186,Mężczyzna,19,2021-09-06_19h26.11.552,rantool2,2021.1.4,Win32,59.97001499,6135e006383e6ea6c3d06a28,61364ef3a570bbd26f8b9186,,,,,,,,
f,2.1048,0,36,36,58,1,5fd9e1d77215292fd745a186,RRROROO,RRROROR,22.1285618,21.37121559,series_0,5fd9e1d77215292fd745a186,Mężczyzna,19,2021-09-06_19h26.11.552,rantool2,2021.1.4,Win32,59.97001499,6135e006383e6ea6c3d06a28,61364ef3a570bbd26f8b9186,,,,,,,,
j,0.0361,0,37,37,9,1,5fd9e1d77215292fd745a186,OOROORO,OOROORR,21.07991943,22.2428857,series_1,5fd9e1d77215292fd745a186,Mężczyzna,19,2021-09-06_19h26.11.552,rantool2,2021.1.4,Win32,59.97001499,6135e006383e6ea6c3d06a28,61364ef3a570bbd26f8b9186,,,,,,,,
f,1.633,0,38,38,55,1,5fd9e1d77215292fd745a186,RRORRRO,RRORRRR,21.56657303,21.21223021,series_0,5fd9e1d77215292fd745a186,Mężczyzna,19,2021-09-06_19h26.11.552,rantool2,2021.1.4,Win32,59.97001499,6135e006383e6ea6c3d06a28,61364ef3a570bbd26f8b9186,,,,,,,,
j,2.1052,0,39,39,13,1,5fd9e1d77215292fd745a186,OORRORO,OORRORR,21.66733484,22.11181017,series_1,5fd9e1d77215292fd745a186,Mężczyzna,19,2021-09-06_19h26.11.552,rantool2,2021.1.4,Win32,59.97001499,6135e006383e6ea6c3d06a28,61364ef3a570bbd26f8b9186,,,,,,,,
j,1.5576,0,40,40,48,1,5fd9e1d77215292fd745a186,RROOOOO,RROOOOR,20.90986523,22.15934078,series_1,5fd9e1d77215292fd745a186,Mężczyzna,19,2021-09-06_19h26.11.552,rantool2,2021.1.4,Win32,59.97001499,6135e006383e6ea6c3d06a28,61364ef3a570bbd26f8b9186,,,,,,,,
f,2.1681,0,41,41,26,1,5fd9e1d77215292fd745a186,ORROROO,ORROROR,22.02732763,21.71443381,series_0,5fd9e1d77215292fd745a186,Mężczyzna,19,2021-09-06_19h26.11.552,rantool2,2021.1.4,Win32,59.97001499,6135e006383e6ea6c3d06a28,61364ef3a570bbd26f8b9186,,,,,,,,
j,1.361,0,42,42,28,1,5fd9e1d77215292fd745a186,ORRROOO,ORRROOR,22.24142883,22.53364006,series_1,5fd9e1d77215292fd745a186,Mężczyzna,19,2021-09-06_19h26.11.552,rantool2,2021.1.4,Win32,59.97001499,6135e006383e6ea6c3d06a28,61364ef3a570bbd26f8b9186,,,,,,,,
f,1.1211,0,43,43,16,1,5fd9e1d77215292fd745a186,OROOOOO,OROOOOR,20.43051175,21.17347734,series_1,5fd9e1d77215292fd745a186,Mężczyzna,19,2021-09-06_19h26.11.552,rantool2,2021.1.4,Win32,59.97001499,6135e006383e6ea6c3d06a28,61364ef3a570bbd26f8b9186,,,,,,,,
j,1.0101,0,44,44,24,1,5fd9e1d77215292fd745a186,ORROOOO,ORROOOR,21.12383932,22.07102821,series_1,5fd9e1d77215292fd745a186,Mężczyzna,19,2021-09-06_19h26.11.552,rantool2,2021.1.4,Win32,59.97001499,6135e006383e6ea6c3d06a28,61364ef3a570bbd26f8b9186,,,,,,,,
f,1.1073,0,45,45,2,1,5fd9e1d77215292fd745a186,OOOOROO,OOOOROR,20.43051175,21.02936224,series_1,5fd9e1d77215292fd745a186,Mężczyzna,19,2021-09-06_19h26.11.552,rantool2,2021.1.4,Win32,59.97001499,6135e006383e6ea6c3d06a28,61364ef3a570bbd26f8b9186,,,,,,,,
j,1.9788,0,46,46,46,1,5fd9e1d77215292fd745a186,RORRROO,RORRROR,22.00300695,21.24781509,series_0,5fd9e1d77215292fd745a186,Mężczyzna,19,2021-09-06_19h26.11.552,rantool2,2021.1.4,Win32,59.97001499,6135e006383e6ea6c3d06a28,61364ef3a570bbd26f8b9186,,,,,,,,
j,1.153,0,47,47,3,1,5fd9e1d77215292fd745a186,OOOORRO,OOOORRR,20.90986523,21.74922619,series_1,5fd9e1d77215292fd745a186,Mężczyzna,19,2021-09-06_19h26.11.552,rantool2,2021.1.4,Win32,59.97001499,6135e006383e6ea6c3d06a28,61364ef3a570bbd26f8b9186,,,,,,,,
j,1.8081,0,48,48,34,1,5fd9e1d77215292fd745a186,ROOOROO,ROOOROR,21.03750787,21.24781509,series_1,5fd9e1d77215292fd745a186,Mężczyzna,19,2021-09-06_19h26.11.552,rantool2,2021.1.4,Win32,59.97001499,6135e006383e6ea6c3d06a28,61364ef3a570bbd26f8b9186,,,,,,,,
j,1.297,0,49,49,11,1,5fd9e1d77215292fd745a186,OORORRO,OORORRR,22.18365867,22.6797523,series_1,5fd9e1d77215292fd745a186,Mężczyzna,19,2021-09-06_19h26.11.552,rantool2,2021.1.4,Win32,59.97001499,6135e006383e6ea6c3d06a28,61364ef3a570bbd26f8b9186,,,,,,,,
j,1.7425,0,50,50,10,1,5fd9e1d77215292fd745a186,OOROROO,OOROROR,21.31236711,21.07490964,series_0,5fd9e1d77215292fd745a186,Mężczyzna,19,2021-09-06_19h26.11.552,rantool2,2021.1.4,Win32,59.97001499,6135e006383e6ea6c3d06a28,61364ef3a570bbd26f8b9186,,,,,,,,
j,2.0202,0,51,51,41,1,5fd9e1d77215292fd745a186,ROROORO,ROROORR,20.42602454,21.71443381,series_1,5fd9e1d77215292fd745a186,Mężczyzna,19,2021-09-06_19h26.11.552,rantool2,2021.1.4,Win32,59.97001499,6135e006383e6ea6c3d06a28,61364ef3a570bbd26f8b9186,,,,,,,,
j,1.4943,0,52,52,42,1,5fd9e1d77215292fd745a186,ROROROO,ROROROR,20.39515459,19.8361834,series_0,5fd9e1d77215292fd745a186,Mężczyzna,19,2021-09-06_19h26.11.552,rantool2,2021.1.4,Win32,59.97001499,6135e006383e6ea6c3d06a28,61364ef3a570bbd26f8b9186,,,,,,,,
j,1.0389,0,53,53,63,1,5fd9e1d77215292fd745a186,RRRRRRO,RRRRRRR,21.35278725,19.62521613,series_0,5fd9e1d77215292fd745a186,Mężczyzna,19,2021-09-06_19h26.11.552,rantool2,2021.1.4,Win32,59.97001499,6135e006383e6ea6c3d06a28,61364ef3a570bbd26f8b9186,,,,,,,,
j,1.5672,0,54,54,30,1,5fd9e1d77215292fd745a186,ORRRROO,ORRRROR,22.46748491,22.03072203,series_0,5fd9e1d77215292fd745a186,Mężczyzna,19,2021-09-06_19h26.11.552,rantool2,2021.1.4,Win32,59.97001499,6135e006383e6ea6c3d06a28,61364ef3a570bbd26f8b9186,,,,,,,,
f,1.5251,0,55,55,44,1,5fd9e1d77215292fd745a186,RORROOO,RORROOR,21.66733484,22.02566557,series_1,5fd9e1d77215292fd745a186,Mężczyzna,19,2021-09-06_19h26.11.552,rantool2,2021.1.4,Win32,59.97001499,6135e006383e6ea6c3d06a28,61364ef3a570bbd26f8b9186,,,,,,,,
j,2.4172,0,56,56,14,1,5fd9e1d77215292fd745a186,OORRROO,OORRROR,22.24142883,22.16977179,series_0,5fd9e1d77215292fd745a186,Mężczyzna,19,2021-09-06_19h26.11.552,rantool2,2021.1.4,Win32,59.97001499,6135e006383e6ea6c3d06a28,61364ef3a570bbd26f8b9186,,,,,,,,
j,1.8045,0,57,57,25,1,5fd9e1d77215292fd745a186,ORROORO,ORROORR,21.79500819,22.61624387,series_1,5fd9e1d77215292fd745a186,Mężczyzna,19,2021-09-06_19h26.11.552,rantool2,2021.1.4,Win32,59.97001499,6135e006383e6ea6c3d06a28,61364ef3a570bbd26f8b9186,,,,,,,,
f,1.4865,0,58,58,47,1,5fd9e1d77215292fd745a186,RORRRRO,RORRRRR,21.81333602,21.02936224,series_0,5fd9e1d77215292fd745a186,Mężczyzna,19,2021-09-06_19h26.11.552,rantool2,2021.1.4,Win32,59.97001499,6135e006383e6ea6c3d06a28,61364ef3a570bbd26f8b9186,,,,,,,,
j,2.35,0,59,59,35,1,5fd9e1d77215292fd745a186,ROOORRO,ROOORRR,21.76276513,22.16977179,series_1,5fd9e1d77215292fd745a186,Mężczyzna,19,2021-09-06_19h26.11.552,rantool2,2021.1.4,Win32,59.97001499,6135e006383e6ea6c3d06a28,61364ef3a570bbd26f8b9186,,,,,,,,
f,1.4535,0,60,60,7,1,5fd9e1d77215292fd745a186,OOORRRO,OOORRRR,21.6194508,21.899017,series_1,5fd9e1d77215292fd745a186,Mężczyzna,19,2021-09-06_19h26.11.552,rantool2,2021.1.4,Win32,59.97001499,6135e006383e6ea6c3d06a28,61364ef3a570bbd26f8b9186,,,,,,,,
f,1.1331,0,61,61,32,1,5fd9e1d77215292fd745a186,ROOOOOO,ROOOOOR,19.92253567,21.27974287,series_1,5fd9e1d77215292fd745a186,Mężczyzna,19,2021-09-06_19h26.11.552,rantool2,2021.1.4,Win32,59.97001499,6135e006383e6ea6c3d06a28,61364ef3a570bbd26f8b9186,,,,,,,,
j,1.0423,0,62,62,4,1,5fd9e1d77215292fd745a186,OOOROOO,OOOROOR,19.91402015,21.21223021,series_1,5fd9e1d77215292fd745a186,Mężczyzna,19,2021-09-06_19h26.11.552,rantool2,2021.1.4,Win32,59.97001499,6135e006383e6ea6c3d06a28,61364ef3a570bbd26f8b9186,,,,,,,,
f,1.2529,0,63,63,8,1,5fd9e1d77215292fd745a186,OOROOOO,OOROOOR,19.91402015,20.89823192,series_1,5fd9e1d77215292fd745a186,Mężczyzna,19,2021-09-06_19h26.11.552,rantool2,2021.1.4,Win32,59.97001499,6135e006383e6ea6c3d06a28,61364ef3a570bbd26f8b9186,,,,,,,,
,,,,,,,5fd9e1d77215292fd745a186,,,,,,5fd9e1d77215292fd745a186,Mężczyzna,19,2021-09-06_19h26.11.552,rantool2,2021.1.4,Win32,59.97001499,6135e006383e6ea6c3d06a28,61364ef3a570bbd26f8b9186,0,,,0,0,0,0,1
,,,,,,,5fd9e1d77215292fd745a186,,,,,,5fd9e1d77215292fd745a186,Mężczyzna,19,2021-09-06_19h26.11.552,rantool2,2021.1.4,Win32,59.97001499,6135e006383e6ea6c3d06a28,61364ef3a570bbd26f8b9186,"[""comma""]",0,[0.7223000000118986],1,0,1,0,1
,,,,,,,5fd9e1d77215292fd745a186,,,,,,5fd9e1d77215292fd745a186,Mężczyzna,19,2021-09-06_19h26.11.552,rantool2,2021.1.4,Win32,59.97001499,6135e006383e6ea6c3d06a28,61364ef3a570bbd26f8b9186,"[""period""]",0,[0.8299999999999841],2,0,2,0,1
,,,,,,,5fd9e1d77215292fd745a186,,,,,,5fd9e1d77215292fd745a186,Mężczyzna,19,2021-09-06_19h26.11.552,rantool2,2021.1.4,Win32,59.97001499,6135e006383e6ea6c3d06a28,61364ef3a570bbd26f8b9186,"[""comma""]",0,[0.4666999999880659],3,0,3,0,1
,,,,,,,5fd9e1d77215292fd745a186,,,,,,5fd9e1d77215292fd745a186,Mężczyzna,19,2021-09-06_19h26.11.552,rantool2,2021.1.4,Win32,59.97001499,6135e006383e6ea6c3d06a28,61364ef3a570bbd26f8b9186,"[""period""]",0,[0.5910000000000082],4,0,4,0,1
,,,,,,,5fd9e1d77215292fd745a186,,,,,,5fd9e1d77215292fd745a186,Mężczyzna,19,2021-09-06_19h26.11.552,rantool2,2021.1.4,Win32,59.97001499,6135e006383e6ea6c3d06a28,61364ef3a570bbd26f8b9186,"[""comma"",""period""]",0,"[0.22999999999996135,1.7583000000119]",5,0,5,0,1
,,,,,,,5fd9e1d77215292fd745a186,,,,,,5fd9e1d77215292fd745a186,Mężczyzna,19,2021-09-06_19h26.11.552,rantool2,2021.1.4,Win32,59.97001499,6135e006383e6ea6c3d06a28,61364ef3a570bbd26f8b9186,"[""comma""]",0,[1.940600000023835],6,0,6,0,1
,,,,,,,5fd9e1d77215292fd745a186,,,,,,5fd9e1d77215292fd745a186,Mężczyzna,19,2021-09-06_19h26.11.552,rantool2,2021.1.4,Win32,59.97001499,6135e006383e6ea6c3d06a28,61364ef3a570bbd26f8b9186,0,0,,7,0,7,0,1
,,,,,,,5fd9e1d77215292fd745a186,,,,,,5fd9e1d77215292fd745a186,Mężczyzna,19,2021-09-06_19h26.11.552,rantool2,2021.1.4,Win32,59.97001499,6135e006383e6ea6c3d06a28,61364ef3a570bbd26f8b9186,"[""period""]",0,[0.43819999998811454],8,0,8,0,1
,,,,,,,5fd9e1d77215292fd745a186,,,,,,5fd9e1d77215292fd745a186,Mężczyzna,19,2021-09-06_19h26.11.552,rantool2,2021.1.4,Win32,59.97001499,6135e006383e6ea6c3d06a28,61364ef3a570bbd26f8b9186,"[""comma""]",0,[0.6997000000476987],9,0,9,0,1
,,,,,,,5fd9e1d77215292fd745a186,,,,,,5fd9e1d77215292fd745a186,Mężczyzna,19,2021-09-06_19h26.11.552,rantool2,2021.1.4,Win32,59.97001499,6135e006383e6ea6c3d06a28,61364ef3a570bbd26f8b9186,"[""period"",""period""]",0,"[0.0383999999762068,0.5520000000000209]",10,0,10,0,1
,,,,,,,5fd9e1d77215292fd745a186,,,,,,5fd9e1d77215292fd745a186,Mężczyzna,19,2021-09-06_19h26.11.552,rantool2,2021.1.4,Win32,59.97001499,6135e006383e6ea6c3d06a28,61364ef3a570bbd26f8b9186,0,0,,11,0,11,0,1
,,,,,,,5fd9e1d77215292fd745a186,,,,,,5fd9e1d77215292fd745a186,Mężczyzna,19,2021-09-06_19h26.11.552,rantool2,2021.1.4,Win32,59.97001499,6135e006383e6ea6c3d06a28,61364ef3a570bbd26f8b9186,"[""comma""]",0,[0.18980000001187136],12,0,12,0,1
,,,,,,,5fd9e1d77215292fd745a186,,,,,,5fd9e1d77215292fd745a186,Mężczyzna,19,2021-09-06_19h26.11.552,rantool2,2021.1.4,Win32,59.97001499,6135e006383e6ea6c3d06a28,61364ef3a570bbd26f8b9186,"[""period""]",0,[0.30069999998806907],13,0,13,0,1
,,,,,,,5fd9e1d77215292fd745a186,,,,,,5fd9e1d77215292fd745a186,Mężczyzna,19,2021-09-06_19h26.11.552,rantool2,2021.1.4,Win32,59.97001499,6135e006383e6ea6c3d06a28,61364ef3a570bbd26f8b9186,0,0,,14,0,14,0,1
,,,,,,,5fd9e1d77215292fd745a186,,,,,,5fd9e1d77215292fd745a186,Mężczyzna,19,2021-09-06_19h26.11.552,rantool2,2021.1.4,Win32,59.97001499,6135e006383e6ea6c3d06a28,61364ef3a570bbd26f8b9186,"[""period""]",0,[0.06049999999999045],15,0,15,0,1
,,,,,,,5fd9e1d77215292fd745a186,,,,,,5fd9e1d77215292fd745a186,Mężczyzna,19,2021-09-06_19h26.11.552,rantool2,2021.1.4,Win32,59.97001499,6135e006383e6ea6c3d06a28,61364ef3a570bbd26f8b9186,"[""period"",""comma"",""comma""]",0,"[0.2325999999642363,0.38469999998807225,1.8929999999999723]",16,0,16,0,1
,,,,,,,5fd9e1d77215292fd745a186,,,,,,5fd9e1d77215292fd745a186,Mężczyzna,19,2021-09-06_19h26.11.552,rantool2,2021.1.4,Win32,59.97001499,6135e006383e6ea6c3d06a28,61364ef3a570bbd26f8b9186,"[""comma""]",0,[0.7843999999761877],17,0,17,0,1
,,,,,,,5fd9e1d77215292fd745a186,,,,,,5fd9e1d77215292fd745a186,Mężczyzna,19,2021-09-06_19h26.11.552,rantool2,2021.1.4,Win32,59.97001499,6135e006383e6ea6c3d06a28,61364ef3a570bbd26f8b9186,"[""period""]",0,[0.48680000001195367],18,0,18,0,1
,,,,,,,5fd9e1d77215292fd745a186,,,,,,5fd9e1d77215292fd745a186,Mężczyzna,19,2021-09-06_19h26.11.552,rantool2,2021.1.4,Win32,59.97001499,6135e006383e6ea6c3d06a28,61364ef3a570bbd26f8b9186,"[""period""]",0,[0.42109999996421266],19,0,19,0,1
,,,,,,,5fd9e1d77215292fd745a186,,,,,,5fd9e1d77215292fd745a186,Mężczyzna,19,2021-09-06_19h26.11.552,rantool2,2021.1.4,Win32,59.97001499,6135e006383e6ea6c3d06a28,61364ef3a570bbd26f8b9186,"[""comma""]",0,[0.3113999999761745],20,0,20,0,1
,,,,,,,5fd9e1d77215292fd745a186,,,,,,5fd9e1d77215292fd745a186,Mężczyzna,19,2021-09-06_19h26.11.552,rantool2,2021.1.4,Win32,59.97001499,6135e006383e6ea6c3d06a28,61364ef3a570bbd26f8b9186,"[""comma"",""comma""]",0,"[0.05260000002385823,1.8253000000119641]",21,0,21,0,1
,,,,,,,5fd9e1d77215292fd745a186,,,,,,5fd9e1d77215292fd745a186,Mężczyzna,19,2021-09-06_19h26.11.552,rantool2,2021.1.4,Win32,59.97001499,6135e006383e6ea6c3d06a28,61364ef3a570bbd26f8b9186,0,0,,22,0,22,0,1
,,,,,,,5fd9e1d77215292fd745a186,,,,,,5fd9e1d77215292fd745a186,Mężczyzna,19,2021-09-06_19h26.11.552,rantool2,2021.1.4,Win32,59.97001499,6135e006383e6ea6c3d06a28,61364ef3a570bbd26f8b9186,"[""period""]",0,[0.2633000000119523],23,0,23,0,1
,,,,,,,5fd9e1d77215292fd745a186,,,,,,5fd9e1d77215292fd745a186,Mężczyzna,19,2021-09-06_19h26.11.552,rantool2,2021.1.4,Win32,59.97001499,6135e006383e6ea6c3d06a28,61364ef3a570bbd26f8b9186,"[""period""]",0,[0.5402999999523104],24,0,24,0,1
,,,,,,,5fd9e1d77215292fd745a186,,,,,,5fd9e1d77215292fd745a186,Mężczyzna,19,2021-09-06_19h26.11.552,rantool2,2021.1.4,Win32,59.97001499,6135e006383e6ea6c3d06a28,61364ef3a570bbd26f8b9186,"[""period""]",0,[0.3550000000000182],25,0,25,0,1
,,,,,,,5fd9e1d77215292fd745a186,,,,,,5fd9e1d77215292fd745a186,Mężczyzna,19,2021-09-06_19h26.11.552,rantool2,2021.1.4,Win32,59.97001499,6135e006383e6ea6c3d06a28,61364ef3a570bbd26f8b9186,"[""period""]",0,[0.5278000000118936],26,0,26,0,1
,,,,,,,5fd9e1d77215292fd745a186,,,,,,5fd9e1d77215292fd745a186,Mężczyzna,19,2021-09-06_19h26.11.552,rantool2,2021.1.4,Win32,59.97001499,6135e006383e6ea6c3d06a28,61364ef3a570bbd26f8b9186,"[""period""]",0,[0.4774999999999636],27,0,27,0,1
,,,,,,,5fd9e1d77215292fd745a186,,,,,,5fd9e1d77215292fd745a186,Mężczyzna,19,2021-09-06_19h26.11.552,rantool2,2021.1.4,Win32,59.97001499,6135e006383e6ea6c3d06a28,61364ef3a570bbd26f8b9186,0,0,,28,0,28,0,1
,,,,,,,5fd9e1d77215292fd745a186,,,,,,5fd9e1d77215292fd745a186,Mężczyzna,19,2021-09-06_19h26.11.552,rantool2,2021.1.4,Win32,59.97001499,6135e006383e6ea6c3d06a28,61364ef3a570bbd26f8b9186,"[""period"",""comma""]",0,"[0.5413000000119155,1.9702000000476687]",29,0,29,0,1
,,,,,,,5fd9e1d77215292fd745a186,,,,,,5fd9e1d77215292fd745a186,Mężczyzna,19,2021-09-06_19h26.11.552,rantool2,2021.1.4,Win32,59.97001499,6135e006383e6ea6c3d06a28,61364ef3a570bbd26f8b9186,0,0,,30,0,30,0,1
,,,,,,,5fd9e1d77215292fd745a186,,,,,,5fd9e1d77215292fd745a186,Mężczyzna,19,2021-09-06_19h26.11.552,rantool2,2021.1.4,Win32,59.97001499,6135e006383e6ea6c3d06a28,61364ef3a570bbd26f8b9186,"[""comma""]",0,[0.2741000000237932],31,0,31,0,1
,,,,,,,5fd9e1d77215292fd745a186,,,,,,5fd9e1d77215292fd745a186,Mężczyzna,19,2021-09-06_19h26.11.552,rantool2,2021.1.4,Win32,59.97001499,6135e006383e6ea6c3d06a28,61364ef3a570bbd26f8b9186,"[""comma""]",0,[0.7278000000118823],32,0,32,0,1
,,,,,,,5fd9e1d77215292fd745a186,,,,,,5fd9e1d77215292fd745a186,Mężczyzna,19,2021-09-06_19h26.11.552,rantool2,2021.1.4,Win32,59.97001499,6135e006383e6ea6c3d06a28,61364ef3a570bbd26f8b9186,"[""comma""]",0,[0.45050000000003365],33,0,33,0,1
,,,,,,,5fd9e1d77215292fd745a186,,,,,,5fd9e1d77215292fd745a186,Mężczyzna,19,2021-09-06_19h26.11.552,rantool2,2021.1.4,Win32,59.97001499,6135e006383e6ea6c3d06a28,61364ef3a570bbd26f8b9186,0,0,,34,0,34,0,1
,,,,,,,5fd9e1d77215292fd745a186,,,,,,5fd9e1d77215292fd745a186,Mężczyzna,19,2021-09-06_19h26.11.552,rantool2,2021.1.4,Win32,59.97001499,6135e006383e6ea6c3d06a28,61364ef3a570bbd26f8b9186,"[""comma""]",0,[0.614100000023825],35,0,35,0,1
,,,,,,,5fd9e1d77215292fd745a186,,,,,,5fd9e1d77215292fd745a186,Mężczyzna,19,2021-09-06_19h26.11.552,rantool2,2021.1.4,Win32,59.97001499,6135e006383e6ea6c3d06a28,61364ef3a570bbd26f8b9186,"[""comma""]",0,[0.38059999996426086],36,0,36,0,1
,,,,,,,5fd9e1d77215292fd745a186,,,,,,5fd9e1d77215292fd745a186,Mężczyzna,19,2021-09-06_19h26.11.552,rantool2,2021.1.4,Win32,59.97001499,6135e006383e6ea6c3d06a28,61364ef3a570bbd26f8b9186,"[""comma"",""comma""]",0,"[0.6704000000357837,1.7533000000119614]",37,0,37,0,1
,,,,,,,5fd9e1d77215292fd745a186,,,,,,5fd9e1d77215292fd745a186,Mężczyzna,19,2021-09-06_19h26.11.552,rantool2,2021.1.4,Win32,59.97001499,6135e006383e6ea6c3d06a28,61364ef3a570bbd26f8b9186,"[""period""]",0,[0.5044000000357869],38,0,38,0,1
,,,,,,,5fd9e1d77215292fd745a186,,,,,,5fd9e1d77215292fd745a186,Mężczyzna,19,2021-09-06_19h26.11.552,rantool2,2021.1.4,Win32,59.97001499,6135e006383e6ea6c3d06a28,61364ef3a570bbd26f8b9186,"[""period"",""comma""]",0,"[0.8026999999880786,0.8196000000238541]",39,0,39,0,1
,,,,,,,5fd9e1d77215292fd745a186,,,,,,5fd9e1d77215292fd745a186,Mężczyzna,19,2021-09-06_19h26.11.552,rantool2,2021.1.4,Win32,59.97001499,6135e006383e6ea6c3d06a28,61364ef3a570bbd26f8b9186,"[""period""]",0,[0.4194999999999709],40,0,40,0,1
,,,,,,,5fd9e1d77215292fd745a186,,,,,,5fd9e1d77215292fd745a186,Mężczyzna,19,2021-09-06_19h26.11.552,rantool2,2021.1.4,Win32,59.97001499,6135e006383e6ea6c3d06a28,61364ef3a570bbd26f8b9186,"[""period""]",0,[0.7855000000000132],41,0,41,0,1
,,,,,,,5fd9e1d77215292fd745a186,,,,,,5fd9e1d77215292fd745a186,Mężczyzna,19,2021-09-06_19h26.11.552,rantool2,2021.1.4,Win32,59.97001499,6135e006383e6ea6c3d06a28,61364ef3a570bbd26f8b9186,"[""period""]",0,[0.6074000000357387],42,0,42,0,1
,,,,,,,5fd9e1d77215292fd745a186,,,,,,5fd9e1d77215292fd745a186,Mężczyzna,19,2021-09-06_19h26.11.552,rantool2,2021.1.4,Win32,59.97001499,6135e006383e6ea6c3d06a28,61364ef3a570bbd26f8b9186,"[""period""]",0,[0.6758000000119182],43,0,43,0,1
,,,,,,,5fd9e1d77215292fd745a186,,,,,,5fd9e1d77215292fd745a186,Mężczyzna,19,2021-09-06_19h26.11.552,rantool2,2021.1.4,Win32,59.97001499,6135e006383e6ea6c3d06a28,61364ef3a570bbd26f8b9186,"[""period""]",0,[0.20839999997616587],44,0,44,0,1
,,,,,,,5fd9e1d77215292fd745a186,,,,,,5fd9e1d77215292fd745a186,Mężczyzna,19,2021-09-06_19h26.11.552,rantool2,2021.1.4,Win32,59.97001499,6135e006383e6ea6c3d06a28,61364ef3a570bbd26f8b9186,"[""period""]",0,[0.5451999999880854],45,0,45,0,1
,,,,,,,5fd9e1d77215292fd745a186,,,,,,5fd9e1d77215292fd745a186,Mężczyzna,19,2021-09-06_19h26.11.552,rantool2,2021.1.4,Win32,59.97001499,6135e006383e6ea6c3d06a28,61364ef3a570bbd26f8b9186,"[""comma""]",0,[0.5104999999999791],46,0,46,0,1
,,,,,,,5fd9e1d77215292fd745a186,,,,,,5fd9e1d77215292fd745a186,Mężczyzna,19,2021-09-06_19h26.11.552,rantool2,2021.1.4,Win32,59.97001499,6135e006383e6ea6c3d06a28,61364ef3a570bbd26f8b9186,"[""comma""]",0,[0.5045000000000073],47,0,47,0,1
,,,,,,,5fd9e1d77215292fd745a186,,,,,,5fd9e1d77215292fd745a186,Mężczyzna,19,2021-09-06_19h26.11.552,rantool2,2021.1.4,Win32,59.97001499,6135e006383e6ea6c3d06a28,61364ef3a570bbd26f8b9186,"[""comma""]",0,[0.7437000000476814],48,0,48,0,1
,,,,,,,5fd9e1d77215292fd745a186,,,,,,5fd9e1d77215292fd745a186,Mężczyzna,19,2021-09-06_19h26.11.552,rantool2,2021.1.4,Win32,59.97001499,6135e006383e6ea6c3d06a28,61364ef3a570bbd26f8b9186,0,0,,49,0,49,0,1
,,,,,,,5fd9e1d77215292fd745a186,,,,,,5fd9e1d77215292fd745a186,Mężczyzna,19,2021-09-06_19h26.11.552,rantool2,2021.1.4,Win32,59.97001499,6135e006383e6ea6c3d06a28,61364ef3a570bbd26f8b9186,"[""comma""]",0,[0.07310000002382822],50,0,50,0,1
,,,,,,,5fd9e1d77215292fd745a186,,,,,,5fd9e1d77215292fd745a186,Mężczyzna,19,2021-09-06_19h26.11.552,rantool2,2021.1.4,Win32,59.97001499,6135e006383e6ea6c3d06a28,61364ef3a570bbd26f8b9186,"[""period""]",0,[0.5500000000000114],51,0,51,0,1
,,,,,,,5fd9e1d77215292fd745a186,,,,,,5fd9e1d77215292fd745a186,Mężczyzna,19,2021-09-06_19h26.11.552,rantool2,2021.1.4,Win32,59.97001499,6135e006383e6ea6c3d06a28,61364ef3a570bbd26f8b9186,"[""period""]",0,[1.5966999999880613],52,0,52,0,1
,,,,,,,5fd9e1d77215292fd745a186,,,,,,5fd9e1d77215292fd745a186,Mężczyzna,19,2021-09-06_19h26.11.552,rantool2,2021.1.4,Win32,59.97001499,6135e006383e6ea6c3d06a28,61364ef3a570bbd26f8b9186,"[""period""]",0,[0.3673000000119373],53,0,53,0,1
,,,,,,,5fd9e1d77215292fd745a186,,,,,,5fd9e1d77215292fd745a186,Mężczyzna,19,2021-09-06_19h26.11.552,rantool2,2021.1.4,Win32,59.97001499,6135e006383e6ea6c3d06a28,61364ef3a570bbd26f8b9186,"[""period""]",0,[0.6567999999523408],54,0,54,0,1
,,,,,,,5fd9e1d77215292fd745a186,,,,,,5fd9e1d77215292fd745a186,Mężczyzna,19,2021-09-06_19h26.11.552,rantool2,2021.1.4,Win32,59.97001499,6135e006383e6ea6c3d06a28,61364ef3a570bbd26f8b9186,0,0,,55,0,55,0,1
,,,,,,,5fd9e1d77215292fd745a186,,,,,,5fd9e1d77215292fd745a186,Mężczyzna,19,2021-09-06_19h26.11.552,rantool2,2021.1.4,Win32,59.97001499,6135e006383e6ea6c3d06a28,61364ef3a570bbd26f8b9186,0,0,,56,0,56,0,1
,,,,,,,5fd9e1d77215292fd745a186,,,,,,5fd9e1d77215292fd745a186,Mężczyzna,19,2021-09-06_19h26.11.552,rantool2,2021.1.4,Win32,59.97001499,6135e006383e6ea6c3d06a28,61364ef3a570bbd26f8b9186,"[""period""]",0,[0.21610000002385732],57,0,57,0,1
,,,,,,,5fd9e1d77215292fd745a186,,,,,,5fd9e1d77215292fd745a186,Mężczyzna,19,2021-09-06_19h26.11.552,rantool2,2021.1.4,Win32,59.97001499,6135e006383e6ea6c3d06a28,61364ef3a570bbd26f8b9186,"[""period""]",0,[0.6394000000357778],58,0,58,0,1
,,,,,,,5fd9e1d77215292fd745a186,,,,,,5fd9e1d77215292fd745a186,Mężczyzna,19,2021-09-06_19h26.11.552,rantool2,2021.1.4,Win32,59.97001499,6135e006383e6ea6c3d06a28,61364ef3a570bbd26f8b9186,"[""period""]",0,[0.5681000000238328],59,0,59,0,1
,,,,,,,5fd9e1d77215292fd745a186,,,,,,5fd9e1d77215292fd745a186,Mężczyzna,19,2021-09-06_19h26.11.552,rantool2,2021.1.4,Win32,59.97001499,6135e006383e6ea6c3d06a28,61364ef3a570bbd26f8b9186,0,0,,60,0,60,0,1
,,,,,,,5fd9e1d77215292fd745a186,,,,,,5fd9e1d77215292fd745a186,Mężczyzna,19,2021-09-06_19h26.11.552,rantool2,2021.1.4,Win32,59.97001499,6135e006383e6ea6c3d06a28,61364ef3a570bbd26f8b9186,"[""period""]",0,[0.7236999999880709],61,0,61,0,1
,,,,,,,5fd9e1d77215292fd745a186,,,,,,5fd9e1d77215292fd745a186,Mężczyzna,19,2021-09-06_19h26.11.552,rantool2,2021.1.4,Win32,59.97001499,6135e006383e6ea6c3d06a28,61364ef3a570bbd26f8b9186,"[""period""]",0,[0.34769999998809453],62,0,62,0,1
,,,,,,,5fd9e1d77215292fd745a186,,,,,,5fd9e1d77215292fd745a186,Mężczyzna,19,2021-09-06_19h26.11.552,rantool2,2021.1.4,Win32,59.97001499,6135e006383e6ea6c3d06a28,61364ef3a570bbd26f8b9186,"[""comma"",""period""]",0,"[0.64730000001191,1.73960000002387]",63,0,63,0,1
,,,,,,,5fd9e1d77215292fd745a186,,,,,,5fd9e1d77215292fd745a186,Mężczyzna,19,2021-09-06_19h26.11.552,rantool2,2021.1.4,Win32,59.97001499,6135e006383e6ea6c3d06a28,61364ef3a570bbd26f8b9186,"[""period""]",0,[0.40100000000001046],64,0,64,0,1
,,,,,,,5fd9e1d77215292fd745a186,,,,,,5fd9e1d77215292fd745a186,Mężczyzna,19,2021-09-06_19h26.11.552,rantool2,2021.1.4,Win32,59.97001499,6135e006383e6ea6c3d06a28,61364ef3a570bbd26f8b9186,"[""comma"",""period""]",0,"[0.3981999999880941,1.7736000000238619]",65,0,65,0,1
,,,,,,,5fd9e1d77215292fd745a186,,,,,,5fd9e1d77215292fd745a186,Mężczyzna,19,2021-09-06_19h26.11.552,rantool2,2021.1.4,Win32,59.97001499,6135e006383e6ea6c3d06a28,61364ef3a570bbd26f8b9186,"[""period"",""period""]",0,"[0.18250000000000455,1.9495000000000005]",66,0,66,0,1
,,,,,,,5fd9e1d77215292fd745a186,,,,,,5fd9e1d77215292fd745a186,Mężczyzna,19,2021-09-06_19h26.11.552,rantool2,2021.1.4,Win32,59.97001499,6135e006383e6ea6c3d06a28,61364ef3a570bbd26f8b9186,0,0,,67,0,67,0,1
,,,,,,,5fd9e1d77215292fd745a186,,,,,,5fd9e1d77215292fd745a186,Mężczyzna,19,2021-09-06_19h26.11.552,rantool2,2021.1.4,Win32,59.97001499,6135e006383e6ea6c3d06a28,61364ef3a570bbd26f8b9186,"[""period""]",0,[0.3066999999880409],68,0,68,0,1
,,,,,,,5fd9e1d77215292fd745a186,,,,,,5fd9e1d77215292fd745a186,Mężczyzna,19,2021-09-06_19h26.11.552,rantool2,2021.1.4,Win32,59.97001499,6135e006383e6ea6c3d06a28,61364ef3a570bbd26f8b9186,"[""period""]",0,[1.0007000000476864],69,0,69,0,1
,,,,,,,5fd9e1d77215292fd745a186,,,,,,5fd9e1d77215292fd745a186,Mężczyzna,19,2021-09-06_19h26.11.552,rantool2,2021.1.4,Win32,59.97001499,6135e006383e6ea6c3d06a28,61364ef3a570bbd26f8b9186,"[""period"",""period""]",0,"[0.024499999999989086,1.8726000000238514]",70,0,70,0,1
,,,,,,,5fd9e1d77215292fd745a186,,,,,,5fd9e1d77215292fd745a186,Mężczyzna,19,2021-09-06_19h26.11.552,rantool2,2021.1.4,Win32,59.97001499,6135e006383e6ea6c3d06a28,61364ef3a570bbd26f8b9186,"[""comma""]",0,[1.8791000000238682],71,0,71,0,1
,,,,,,,5fd9e1d77215292fd745a186,,,,,,5fd9e1d77215292fd745a186,Mężczyzna,19,2021-09-06_19h26.11.552,rantool2,2021.1.4,Win32,59.97001499,6135e006383e6ea6c3d06a28,61364ef3a570bbd26f8b9186,0,0,,72,0,72,0,1
,,,,,,,5fd9e1d77215292fd745a186,,,,,,5fd9e1d77215292fd745a186,Mężczyzna,19,2021-09-06_19h26.11.552,rantool2,2021.1.4,Win32,59.97001499,6135e006383e6ea6c3d06a28,61364ef3a570bbd26f8b9186,0,0,,73,0,73,0,1
,,,,,,,5fd9e1d77215292fd745a186,,,,,,5fd9e1d77215292fd745a186,Mężczyzna,19,2021-09-06_19h26.11.552,rantool2,2021.1.4,Win32,59.97001499,6135e006383e6ea6c3d06a28,61364ef3a570bbd26f8b9186,"[""period""]",0,[0.7878999999761618],74,0,74,0,1
,,,,,,,5fd9e1d77215292fd745a186,,,,,,5fd9e1d77215292fd745a186,Mężczyzna,19,2021-09-06_19h26.11.552,rantool2,2021.1.4,Win32,59.97001499,6135e006383e6ea6c3d06a28,61364ef3a570bbd26f8b9186,0,0,,75,0,75,0,1
,,,,,,,5fd9e1d77215292fd745a186,,,,,,5fd9e1d77215292fd745a186,Mężczyzna,19,2021-09-06_19h26.11.552,rantool2,2021.1.4,Win32,59.97001499,6135e006383e6ea6c3d06a28,61364ef3a570bbd26f8b9186,"[""period"",""comma""]",0,"[0.08400000000000318,1.7183999999761568]",76,0,76,0,1
,,,,,,,5fd9e1d77215292fd745a186,,,,,,5fd9e1d77215292fd745a186,Mężczyzna,19,2021-09-06_19h26.11.552,rantool2,2021.1.4,Win32,59.97001499,6135e006383e6ea6c3d06a28,61364ef3a570bbd26f8b9186,"[""period""]",0,[1.0540000000000305],77,0,77,0,1
,,,,,,,5fd9e1d77215292fd745a186,,,,,,5fd9e1d77215292fd745a186,Mężczyzna,19,2021-09-06_19h26.11.552,rantool2,2021.1.4,Win32,59.97001499,6135e006383e6ea6c3d06a28,61364ef3a570bbd26f8b9186,0,0,,78,0,78,0,1
,,,,,,,5fd9e1d77215292fd745a186,,,,,,5fd9e1d77215292fd745a186,Mężczyzna,19,2021-09-06_19h26.11.552,rantool2,2021.1.4,Win32,59.97001499,6135e006383e6ea6c3d06a28,61364ef3a570bbd26f8b9186,0,0,,79,0,79,0,1
,,,,,,,5fd9e1d77215292fd745a186,,,,,,5fd9e1d77215292fd745a186,Mężczyzna,19,2021-09-06_19h26.11.552,rantool2,2021.1.4,Win32,59.97001499,6135e006383e6ea6c3d06a28,61364ef3a570bbd26f8b9186,"[""period""]",0,[0.605400000035786],80,0,80,0,1
,,,,,,,5fd9e1d77215292fd745a186,,,,,,5fd9e1d77215292fd745a186,Mężczyzna,19,2021-09-06_19h26.11.552,rantool2,2021.1.4,Win32,59.97001499,6135e006383e6ea6c3d06a28,61364ef3a570bbd26f8b9186,"[""comma""]",0,[0.8188999999761677],81,0,81,0,1
,,,,,,,5fd9e1d77215292fd745a186,,,,,,5fd9e1d77215292fd745a186,Mężczyzna,19,2021-09-06_19h26.11.552,rantool2,2021.1.4,Win32,59.97001499,6135e006383e6ea6c3d06a28,61364ef3a570bbd26f8b9186,"[""comma""]",0,[0.6338999999761654],82,0,82,0,1
,,,,,,,5fd9e1d77215292fd745a186,,,,,,5fd9e1d77215292fd745a186,Mężczyzna,19,2021-09-06_19h26.11.552,rantool2,2021.1.4,Win32,59.97001499,6135e006383e6ea6c3d06a28,61364ef3a570bbd26f8b9186,"[""comma""]",0,[0.04269999998808771],83,0,83,0,1
,,,,,,,5fd9e1d77215292fd745a186,,,,,,5fd9e1d77215292fd745a186,Mężczyzna,19,2021-09-06_19h26.11.552,rantool2,2021.1.4,Win32,59.97001499,6135e006383e6ea6c3d06a28,61364ef3a570bbd26f8b9186,"[""period""]",0,[0.5100999999642113],84,0,84,0,1
,,,,,,,5fd9e1d77215292fd745a186,,,,,,5fd9e1d77215292fd745a186,Mężczyzna,19,2021-09-06_19h26.11.552,rantool2,2021.1.4,Win32,59.97001499,6135e006383e6ea6c3d06a28,61364ef3a570bbd26f8b9186,"[""period""]",0,[1.6083999999761431],85,0,85,0,1
,,,,,,,5fd9e1d77215292fd745a186,,,,,,5fd9e1d77215292fd745a186,Mężczyzna,19,2021-09-06_19h26.11.552,rantool2,2021.1.4,Win32,59.97001499,6135e006383e6ea6c3d06a28,61364ef3a570bbd26f8b9186,0,0,,86,0,86,0,1
,,,,,,,5fd9e1d77215292fd745a186,,,,,,5fd9e1d77215292fd745a186,Mężczyzna,19,2021-09-06_19h26.11.552,rantool2,2021.1.4,Win32,59.97001499,6135e006383e6ea6c3d06a28,61364ef3a570bbd26f8b9186,"[""period""]",0,[0.06079999995228036],87,0,87,0,1
,,,,,,,5fd9e1d77215292fd745a186,,,,,,5fd9e1d77215292fd745a186,Mężczyzna,19,2021-09-06_19h26.11.552,rantool2,2021.1.4,Win32,59.97001499,6135e006383e6ea6c3d06a28,61364ef3a570bbd26f8b9186,"[""period""]",0,[0.05289999997614814],88,0,88,0,1
,,,,,,,5fd9e1d77215292fd745a186,,,,,,5fd9e1d77215292fd745a186,Mężczyzna,19,2021-09-06_19h26.11.552,rantool2,2021.1.4,Win32,59.97001499,6135e006383e6ea6c3d06a28,61364ef3a570bbd26f8b9186,"[""period""]",0,[0.4211999999880618],89,0,89,0,1
,,,,,,,5fd9e1d77215292fd745a186,,,,,,5fd9e1d77215292fd745a186,Mężczyzna,19,2021-09-06_19h26.11.552,rantool2,2021.1.4,Win32,59.97001499,6135e006383e6ea6c3d06a28,61364ef3a570bbd26f8b9186,"[""period""]",0,[1.3208000000119569],90,0,90,0,1
,,,,,,,5fd9e1d77215292fd745a186,,,,,,5fd9e1d77215292fd745a186,Mężczyzna,19,2021-09-06_19h26.11.552,rantool2,2021.1.4,Win32,59.97001499,6135e006383e6ea6c3d06a28,61364ef3a570bbd26f8b9186,"[""period""]",0,[0.9440000000000168],91,0,91,0,1
,,,,,,,5fd9e1d77215292fd745a186,,,,,,5fd9e1d77215292fd745a186,Mężczyzna,19,2021-09-06_19h26.11.552,rantool2,2021.1.4,Win32,59.97001499,6135e006383e6ea6c3d06a28,61364ef3a570bbd26f8b9186,"[""comma""]",0,[0.2880000000000109],92,0,92,0,1
,,,,,,,5fd9e1d77215292fd745a186,,,,,,5fd9e1d77215292fd745a186,Mężczyzna,19,2021-09-06_19h26.11.552,rantool2,2021.1.4,Win32,59.97001499,6135e006383e6ea6c3d06a28,61364ef3a570bbd26f8b9186,"[""comma""]",0,[0.511799999952359],93,0,93,0,1
,,,,,,,5fd9e1d77215292fd745a186,,,,,,5fd9e1d77215292fd745a186,Mężczyzna,19,2021-09-06_19h26.11.552,rantool2,2021.1.4,Win32,59.97001499,6135e006383e6ea6c3d06a28,61364ef3a570bbd26f8b9186,"[""comma"",""period"",""comma"",""period"",""comma"",""period""]",0,"[0.08700000000004593,0.9546999999881223,1.3080000000000496,1.5376999999880923,1.742599999964284,1.89859999996429]",94,0,94,0,1
,,,,,,,5fd9e1d77215292fd745a186,,,,,,5fd9e1d77215292fd745a186,Mężczyzna,19,2021-09-06_19h26.11.552,rantool2,2021.1.4,Win32,59.97001499,6135e006383e6ea6c3d06a28,61364ef3a570bbd26f8b9186,"[""comma"",""period"",""comma"",""period"",""comma"",""period"",""comma"",""period""]",0,"[0.03760000002381503,0.17849999999998545,0.30769999998807407,0.42250000000001364,0.6000000000000227,0.7353999999761527,0.8908999999761704,0.992999999999995]",95,0,95,0,1
,,,,,,,5fd9e1d77215292fd745a186,,,,,,5fd9e1d77215292fd745a186,Mężczyzna,19,2021-09-06_19h26.11.552,rantool2,2021.1.4,Win32,59.97001499,6135e006383e6ea6c3d06a28,61364ef3a570bbd26f8b9186,"[""comma""]",0,[0.6901999999880672],96,0,96,0,1
,,,,,,,5fd9e1d77215292fd745a186,,,,,,5fd9e1d77215292fd745a186,Mężczyzna,19,2021-09-06_19h26.11.552,rantool2,2021.1.4,Win32,59.97001499,6135e006383e6ea6c3d06a28,61364ef3a570bbd26f8b9186,"[""comma"",""period"",""comma"",""period"",""comma""]",0,"[0.006800000011935481,0.46649999999999636,0.7762000000476519,1.4334000000357605,1.6374000000357682]",97,0,97,0,1
,,,,,,,5fd9e1d77215292fd745a186,,,,,,5fd9e1d77215292fd745a186,Mężczyzna,19,2021-09-06_19h26.11.552,rantool2,2021.1.4,Win32,59.97001499,6135e006383e6ea6c3d06a28,61364ef3a570bbd26f8b9186,"[""period"",""period""]",0,"[0.020000000000038654,1.3331999999880964]",98,0,98,0,1
,,,,,,,5fd9e1d77215292fd745a186,,,,,,5fd9e1d77215292fd745a186,Mężczyzna,19,2021-09-06_19h26.11.552,rantool2,2021.1.4,Win32,59.97001499,6135e006383e6ea6c3d06a28,61364ef3a570bbd26f8b9186,"[""period"",""period""]",0,"[1.126300000011895,1.8985999999642331]",99,0,99,0,1
,,,,,,,5fd9e1d77215292fd745a186,,,,,,5fd9e1d77215292fd745a186,Mężczyzna,19,2021-09-06_19h26.11.552,rantool2,2021.1.4,Win32,59.97001499,6135e006383e6ea6c3d06a28,61364ef3a570bbd26f8b9186,"[""comma"",""period""]",0,"[0.8218000000119332,1.1583000000118773]",100,0,100,0,1
,,,,,,,5fd9e1d77215292fd745a186,,,,,,5fd9e1d77215292fd745a186,Mężczyzna,19,2021-09-06_19h26.11.552,rantool2,2021.1.4,Win32,59.97001499,6135e006383e6ea6c3d06a28,61364ef3a570bbd26f8b9186,"[""period""]",0,[0.3090999999642463],101,0,101,0,1
,,,,,,,5fd9e1d77215292fd745a186,,,,,,5fd9e1d77215292fd745a186,Mężczyzna,19,2021-09-06_19h26.11.552,rantool2,2021.1.4,Win32,59.97001499,6135e006383e6ea6c3d06a28,61364ef3a570bbd26f8b9186,"[""comma"",""period""]",0,"[0.1886000000238255,0.5748999999761395]",102,0,102,0,1
,,,,,,,5fd9e1d77215292fd745a186,,,,,,5fd9e1d77215292fd745a186,Mężczyzna,19,2021-09-06_19h26.11.552,rantool2,2021.1.4,Win32,59.97001499,6135e006383e6ea6c3d06a28,61364ef3a570bbd26f8b9186,"[""period"",""period""]",0,"[0.11819999998806452,0.9440999999642372]",103,0,103,0,1
,,,,,,,5fd9e1d77215292fd745a186,,,,,,5fd9e1d77215292fd745a186,Mężczyzna,19,2021-09-06_19h26.11.552,rantool2,2021.1.4,Win32,59.97001499,6135e006383e6ea6c3d06a28,61364ef3a570bbd26f8b9186,"[""period"",""period"",""period""]",0,"[-0.01719999998806543,0.5114000000357919,1.6161000000238346]",104,0,104,0,1
,,,,,,,5fd9e1d77215292fd745a186,,,,,,5fd9e1d77215292fd745a186,Mężczyzna,19,2021-09-06_19h26.11.552,rantool2,2021.1.4,Win32,59.97001499,6135e006383e6ea6c3d06a28,61364ef3a570bbd26f8b9186,0,0,,105,0,105,0,1
,,,,,,,5fd9e1d77215292fd745a186,,,,,,5fd9e1d77215292fd745a186,Mężczyzna,19,2021-09-06_19h26.11.552,rantool2,2021.1.4,Win32,59.97001499,6135e006383e6ea6c3d06a28,61364ef3a570bbd26f8b9186,"[""period""]",0,[0.005300000011914108],106,0,106,0,1
,,,,,,,5fd9e1d77215292fd745a186,,,,,,5fd9e1d77215292fd745a186,Mężczyzna,19,2021-09-06_19h26.11.552,rantool2,2021.1.4,Win32,59.97001499,6135e006383e6ea6c3d06a28,61364ef3a570bbd26f8b9186,"[""period"",""period"",""comma"",""comma""]",0,"[0.16739999997616906,0.44659999996423494,0.7025000000000432,1.672199999988095]",107,0,107,0,1
,,,,,,,5fd9e1d77215292fd745a186,,,,,,5fd9e1d77215292fd745a186,Mężczyzna,19,2021-09-06_19h26.11.552,rantool2,2021.1.4,Win32,59.97001499,6135e006383e6ea6c3d06a28,61364ef3a570bbd26f8b9186,"[""comma""]",0,[1.0311000000237982],108,0,108,0,1
,,,,,,,5fd9e1d77215292fd745a186,,,,,,5fd9e1d77215292fd745a186,Mężczyzna,19,2021-09-06_19h26.11.552,rantool2,2021.1.4,Win32,59.97001499,6135e006383e6ea6c3d06a28,61364ef3a570bbd26f8b9186,"[""period"",""comma"",""period""]",0,"[1.1221000000238064,1.5073000000119237,1.886800000011931]",109,0,109,0,1
,,,,,,,5fd9e1d77215292fd745a186,,,,,,5fd9e1d77215292fd745a186,Mężczyzna,19,2021-09-06_19h26.11.552,rantool2,2021.1.4,Win32,59.97001499,6135e006383e6ea6c3d06a28,61364ef3a570bbd26f8b9186,"[""period"",""comma""]",0,"[1.52230000001191,1.6671999999880427]",110,0,110,0,1
,,,,,,,5fd9e1d77215292fd745a186,,,,,,5fd9e1d77215292fd745a186,Mężczyzna,19,2021-09-06_19h26.11.552,rantool2,2021.1.4,Win32,59.97001499,6135e006383e6ea6c3d06a28,61364ef3a570bbd26f8b9186,"[""comma""]",0,[0.7529000000357655],111,0,111,0,1
,,,,,,,5fd9e1d77215292fd745a186,,,,,,5fd9e1d77215292fd745a186,Mężczyzna,19,2021-09-06_19h26.11.552,rantool2,2021.1.4,Win32,59.97001499,6135e006383e6ea6c3d06a28,61364ef3a570bbd26f8b9186,0,0,,112,0,112,0,1
,,,,,,,5fd9e1d77215292fd745a186,,,,,,5fd9e1d77215292fd745a186,Mężczyzna,19,2021-09-06_19h26.11.552,rantool2,2021.1.4,Win32,59.97001499,6135e006383e6ea6c3d06a28,61364ef3a570bbd26f8b9186,"[""period"",""comma""]",0,"[0.777499999999975,0.9431000000238328]",113,0,113,0,1
,,,,,,,5fd9e1d77215292fd745a186,,,,,,5fd9e1d77215292fd745a186,Mężczyzna,19,2021-09-06_19h26.11.552,rantool2,2021.1.4,Win32,59.97001499,6135e006383e6ea6c3d06a28,61364ef3a570bbd26f8b9186,"[""comma""]",0,[1.802500000000009],114,0,114,0,1
,,,,,,,5fd9e1d77215292fd745a186,,,,,,5fd9e1d77215292fd745a186,Mężczyzna,19,2021-09-06_19h26.11.552,rantool2,2021.1.4,Win32,59.97001499,6135e006383e6ea6c3d06a28,61364ef3a570bbd26f8b9186,0,0,,115,0,115,0,1
,,,,,,,5fd9e1d77215292fd745a186,,,,,,5fd9e1d77215292fd745a186,Mężczyzna,19,2021-09-06_19h26.11.552,rantool2,2021.1.4,Win32,59.97001499,6135e006383e6ea6c3d06a28,61364ef3a570bbd26f8b9186,0,0,,116,0,116,0,1
,,,,,,,5fd9e1d77215292fd745a186,,,,,,5fd9e1d77215292fd745a186,Mężczyzna,19,2021-09-06_19h26.11.552,rantool2,2021.1.4,Win32,59.97001499,6135e006383e6ea6c3d06a28,61364ef3a570bbd26f8b9186,"[""period"",""comma"",""period"",""comma"",""comma""]",0,"[0.7542000000476605,0.933200000047691,1.0839000000357828,1.3514999999999873,1.7892000000476855]",117,0,117,0,1
,,,,,,,5fd9e1d77215292fd745a186,,,,,,5fd9e1d77215292fd745a186,Mężczyzna,19,2021-09-06_19h26.11.552,rantool2,2021.1.4,Win32,59.97001499,6135e006383e6ea6c3d06a28,61364ef3a570bbd26f8b9186,"[""period"",""period"",""period"",""period"",""comma""]",0,"[0.12659999996424176,0.4954999999999927,0.8671999999880882,1.6280999999642631,1.8368999999761968]",118,0,118,0,1
,,,,,,,5fd9e1d77215292fd745a186,,,,,,5fd9e1d77215292fd745a186,Mężczyzna,19,2021-09-06_19h26.11.552,rantool2,2021.1.4,Win32,59.97001499,6135e006383e6ea6c3d06a28,61364ef3a570bbd26f8b9186,"[""period""]",0,[1.8708000000119682],119,0,119,0,1
