key_resp_5.keys,key_resp_5.corr,key_resp_5.rt,trials.thisRepN,trials.thisTrialN,trials.thisN,trials.thisIndex,trials.ran,id*,Płeć*,Wiek*,date,expName,psychopyVersion,OS,frameRate,id,STUDY_ID,SESSION_ID,key_resp_7.keys,key_resp_7.rt,trials_2.thisRepN,trials_2.thisTrialN,trials_2.thisN,trials_2.thisIndex,trials_2.ran,series_0,series_1,acss_0,acss_1,comparison
"[""period""]",0,[1.4228000000119323],0,0,0,0,1,60e6f40a0e1467233ddce325,Kobieta,20,2021-07-13_21h48.54.414,rantool2,2021.1.4,Win32,59.79788315,60e6f40a0e1467233ddce325,60d9d14f4a8a35a482e0d9bf,60edee0a748825db5c8b69d2,,,,,,,,,,,,
"[""period""]",0,[1.3031000000238322],1,0,1,0,1,60e6f40a0e1467233ddce325,Kobieta,20,2021-07-13_21h48.54.414,rantool2,2021.1.4,Win32,59.79788315,60e6f40a0e1467233ddce325,60d9d14f4a8a35a482e0d9bf,60edee0a748825db5c8b69d2,,,,,,,,,,,,
"[""comma""]",0,[0.8684999999999974],2,0,2,0,1,60e6f40a0e1467233ddce325,Kobieta,20,2021-07-13_21h48.54.414,rantool2,2021.1.4,Win32,59.79788315,60e6f40a0e1467233ddce325,60d9d14f4a8a35a482e0d9bf,60edee0a748825db5c8b69d2,,,,,,,,,,,,
"[""period""]",0,[0.7395000000000067],3,0,3,0,1,60e6f40a0e1467233ddce325,Kobieta,20,2021-07-13_21h48.54.414,rantool2,2021.1.4,Win32,59.79788315,60e6f40a0e1467233ddce325,60d9d14f4a8a35a482e0d9bf,60edee0a748825db5c8b69d2,,,,,,,,,,,,
"[""period""]",0,[0.9013000000119291],4,0,4,0,1,60e6f40a0e1467233ddce325,Kobieta,20,2021-07-13_21h48.54.414,rantool2,2021.1.4,Win32,59.79788315,60e6f40a0e1467233ddce325,60d9d14f4a8a35a482e0d9bf,60edee0a748825db5c8b69d2,,,,,,,,,,,,
"[""comma""]",0,[0.4946000000238371],5,0,5,0,1,60e6f40a0e1467233ddce325,Kobieta,20,2021-07-13_21h48.54.414,rantool2,2021.1.4,Win32,59.79788315,60e6f40a0e1467233ddce325,60d9d14f4a8a35a482e0d9bf,60edee0a748825db5c8b69d2,,,,,,,,,,,,
"[""period""]",0,[0.73090000003576],6,0,6,0,1,60e6f40a0e1467233ddce325,Kobieta,20,2021-07-13_21h48.54.414,rantool2,2021.1.4,Win32,59.79788315,60e6f40a0e1467233ddce325,60d9d14f4a8a35a482e0d9bf,60edee0a748825db5c8b69d2,,,,,,,,,,,,
"[""comma""]",0,[0.5898000000119197],7,0,7,0,1,60e6f40a0e1467233ddce325,Kobieta,20,2021-07-13_21h48.54.414,rantool2,2021.1.4,Win32,59.79788315,60e6f40a0e1467233ddce325,60d9d14f4a8a35a482e0d9bf,60edee0a748825db5c8b69d2,,,,,,,,,,,,
"[""comma""]",0,[1.5726999999880746],8,0,8,0,1,60e6f40a0e1467233ddce325,Kobieta,20,2021-07-13_21h48.54.414,rantool2,2021.1.4,Win32,59.79788315,60e6f40a0e1467233ddce325,60d9d14f4a8a35a482e0d9bf,60edee0a748825db5c8b69d2,,,,,,,,,,,,
"[""period""]",0,[0.7851999999880803],9,0,9,0,1,60e6f40a0e1467233ddce325,Kobieta,20,2021-07-13_21h48.54.414,rantool2,2021.1.4,Win32,59.79788315,60e6f40a0e1467233ddce325,60d9d14f4a8a35a482e0d9bf,60edee0a748825db5c8b69d2,,,,,,,,,,,,
"[""comma""]",0,[0.6123000000119276],10,0,10,0,1,60e6f40a0e1467233ddce325,Kobieta,20,2021-07-13_21h48.54.414,rantool2,2021.1.4,Win32,59.79788315,60e6f40a0e1467233ddce325,60d9d14f4a8a35a482e0d9bf,60edee0a748825db5c8b69d2,,,,,,,,,,,,
"[""period""]",0,[0.5125999999642374],11,0,11,0,1,60e6f40a0e1467233ddce325,Kobieta,20,2021-07-13_21h48.54.414,rantool2,2021.1.4,Win32,59.79788315,60e6f40a0e1467233ddce325,60d9d14f4a8a35a482e0d9bf,60edee0a748825db5c8b69d2,,,,,,,,,,,,
"[""comma"",""comma""]",0,"[0.36299999999999955,1.538499999999999]",12,0,12,0,1,60e6f40a0e1467233ddce325,Kobieta,20,2021-07-13_21h48.54.414,rantool2,2021.1.4,Win32,59.79788315,60e6f40a0e1467233ddce325,60d9d14f4a8a35a482e0d9bf,60edee0a748825db5c8b69d2,,,,,,,,,,,,
"[""comma""]",0,[0.8804999999999836],13,0,13,0,1,60e6f40a0e1467233ddce325,Kobieta,20,2021-07-13_21h48.54.414,rantool2,2021.1.4,Win32,59.79788315,60e6f40a0e1467233ddce325,60d9d14f4a8a35a482e0d9bf,60edee0a748825db5c8b69d2,,,,,,,,,,,,
"[""period""]",0,[0.30050000000002797],14,0,14,0,1,60e6f40a0e1467233ddce325,Kobieta,20,2021-07-13_21h48.54.414,rantool2,2021.1.4,Win32,59.79788315,60e6f40a0e1467233ddce325,60d9d14f4a8a35a482e0d9bf,60edee0a748825db5c8b69d2,,,,,,,,,,,,
"[""comma""]",0,[0.2674000000357637],15,0,15,0,1,60e6f40a0e1467233ddce325,Kobieta,20,2021-07-13_21h48.54.414,rantool2,2021.1.4,Win32,59.79788315,60e6f40a0e1467233ddce325,60d9d14f4a8a35a482e0d9bf,60edee0a748825db5c8b69d2,,,,,,,,,,,,
"[""period""]",0,[0.29639999997615973],16,0,16,0,1,60e6f40a0e1467233ddce325,Kobieta,20,2021-07-13_21h48.54.414,rantool2,2021.1.4,Win32,59.79788315,60e6f40a0e1467233ddce325,60d9d14f4a8a35a482e0d9bf,60edee0a748825db5c8b69d2,,,,,,,,,,,,
"[""comma""]",0,[0.7955999999642529],17,0,17,0,1,60e6f40a0e1467233ddce325,Kobieta,20,2021-07-13_21h48.54.414,rantool2,2021.1.4,Win32,59.79788315,60e6f40a0e1467233ddce325,60d9d14f4a8a35a482e0d9bf,60edee0a748825db5c8b69d2,,,,,,,,,,,,
"[""period""]",0,[0.36309999996424835],18,0,18,0,1,60e6f40a0e1467233ddce325,Kobieta,20,2021-07-13_21h48.54.414,rantool2,2021.1.4,Win32,59.79788315,60e6f40a0e1467233ddce325,60d9d14f4a8a35a482e0d9bf,60edee0a748825db5c8b69d2,,,,,,,,,,,,
"[""period""]",0,[0.2078999999761777],19,0,19,0,1,60e6f40a0e1467233ddce325,Kobieta,20,2021-07-13_21h48.54.414,rantool2,2021.1.4,Win32,59.79788315,60e6f40a0e1467233ddce325,60d9d14f4a8a35a482e0d9bf,60edee0a748825db5c8b69d2,,,,,,,,,,,,
"[""period""]",0,[0.6309999999999718],20,0,20,0,1,60e6f40a0e1467233ddce325,Kobieta,20,2021-07-13_21h48.54.414,rantool2,2021.1.4,Win32,59.79788315,60e6f40a0e1467233ddce325,60d9d14f4a8a35a482e0d9bf,60edee0a748825db5c8b69d2,,,,,,,,,,,,
"[""period""]",0,[0.39500000000001023],21,0,21,0,1,60e6f40a0e1467233ddce325,Kobieta,20,2021-07-13_21h48.54.414,rantool2,2021.1.4,Win32,59.79788315,60e6f40a0e1467233ddce325,60d9d14f4a8a35a482e0d9bf,60edee0a748825db5c8b69d2,,,,,,,,,,,,
"[""comma""]",0,[0.46819999998808726],22,0,22,0,1,60e6f40a0e1467233ddce325,Kobieta,20,2021-07-13_21h48.54.414,rantool2,2021.1.4,Win32,59.79788315,60e6f40a0e1467233ddce325,60d9d14f4a8a35a482e0d9bf,60edee0a748825db5c8b69d2,,,,,,,,,,,,
"[""comma""]",0,[0.578399999976142],23,0,23,0,1,60e6f40a0e1467233ddce325,Kobieta,20,2021-07-13_21h48.54.414,rantool2,2021.1.4,Win32,59.79788315,60e6f40a0e1467233ddce325,60d9d14f4a8a35a482e0d9bf,60edee0a748825db5c8b69d2,,,,,,,,,,,,
"[""period""]",0,[0.40930000001191047],24,0,24,0,1,60e6f40a0e1467233ddce325,Kobieta,20,2021-07-13_21h48.54.414,rantool2,2021.1.4,Win32,59.79788315,60e6f40a0e1467233ddce325,60d9d14f4a8a35a482e0d9bf,60edee0a748825db5c8b69d2,,,,,,,,,,,,
"[""comma""]",0,[0.9350000000000023],25,0,25,0,1,60e6f40a0e1467233ddce325,Kobieta,20,2021-07-13_21h48.54.414,rantool2,2021.1.4,Win32,59.79788315,60e6f40a0e1467233ddce325,60d9d14f4a8a35a482e0d9bf,60edee0a748825db5c8b69d2,,,,,,,,,,,,
"[""period""]",0,[0.3504999999999825],26,0,26,0,1,60e6f40a0e1467233ddce325,Kobieta,20,2021-07-13_21h48.54.414,rantool2,2021.1.4,Win32,59.79788315,60e6f40a0e1467233ddce325,60d9d14f4a8a35a482e0d9bf,60edee0a748825db5c8b69d2,,,,,,,,,,,,
"[""comma""]",0,[0.2528999999761652],27,0,27,0,1,60e6f40a0e1467233ddce325,Kobieta,20,2021-07-13_21h48.54.414,rantool2,2021.1.4,Win32,59.79788315,60e6f40a0e1467233ddce325,60d9d14f4a8a35a482e0d9bf,60edee0a748825db5c8b69d2,,,,,,,,,,,,
"[""period""]",0,[0.3616999999880761],28,0,28,0,1,60e6f40a0e1467233ddce325,Kobieta,20,2021-07-13_21h48.54.414,rantool2,2021.1.4,Win32,59.79788315,60e6f40a0e1467233ddce325,60d9d14f4a8a35a482e0d9bf,60edee0a748825db5c8b69d2,,,,,,,,,,,,
"[""period""]",0,[0.27230000001191],29,0,29,0,1,60e6f40a0e1467233ddce325,Kobieta,20,2021-07-13_21h48.54.414,rantool2,2021.1.4,Win32,59.79788315,60e6f40a0e1467233ddce325,60d9d14f4a8a35a482e0d9bf,60edee0a748825db5c8b69d2,,,,,,,,,,,,
"[""comma""]",0,[0.42549999999999955],30,0,30,0,1,60e6f40a0e1467233ddce325,Kobieta,20,2021-07-13_21h48.54.414,rantool2,2021.1.4,Win32,59.79788315,60e6f40a0e1467233ddce325,60d9d14f4a8a35a482e0d9bf,60edee0a748825db5c8b69d2,,,,,,,,,,,,
"[""comma"",""period""]",0,"[0.30169999998810226,0.7741999999880989]",31,0,31,0,1,60e6f40a0e1467233ddce325,Kobieta,20,2021-07-13_21h48.54.414,rantool2,2021.1.4,Win32,59.79788315,60e6f40a0e1467233ddce325,60d9d14f4a8a35a482e0d9bf,60edee0a748825db5c8b69d2,,,,,,,,,,,,
"[""period""]",0,[1.477499999999992],32,0,32,0,1,60e6f40a0e1467233ddce325,Kobieta,20,2021-07-13_21h48.54.414,rantool2,2021.1.4,Win32,59.79788315,60e6f40a0e1467233ddce325,60d9d14f4a8a35a482e0d9bf,60edee0a748825db5c8b69d2,,,,,,,,,,,,
"[""comma""]",0,[0.8628000000119016],33,0,33,0,1,60e6f40a0e1467233ddce325,Kobieta,20,2021-07-13_21h48.54.414,rantool2,2021.1.4,Win32,59.79788315,60e6f40a0e1467233ddce325,60d9d14f4a8a35a482e0d9bf,60edee0a748825db5c8b69d2,,,,,,,,,,,,
"[""comma""]",0,[0.5191000000238546],34,0,34,0,1,60e6f40a0e1467233ddce325,Kobieta,20,2021-07-13_21h48.54.414,rantool2,2021.1.4,Win32,59.79788315,60e6f40a0e1467233ddce325,60d9d14f4a8a35a482e0d9bf,60edee0a748825db5c8b69d2,,,,,,,,,,,,
"[""period""]",0,[0.42689999997614336],35,0,35,0,1,60e6f40a0e1467233ddce325,Kobieta,20,2021-07-13_21h48.54.414,rantool2,2021.1.4,Win32,59.79788315,60e6f40a0e1467233ddce325,60d9d14f4a8a35a482e0d9bf,60edee0a748825db5c8b69d2,,,,,,,,,,,,
"[""comma""]",0,[0.37699999999998113],36,0,36,0,1,60e6f40a0e1467233ddce325,Kobieta,20,2021-07-13_21h48.54.414,rantool2,2021.1.4,Win32,59.79788315,60e6f40a0e1467233ddce325,60d9d14f4a8a35a482e0d9bf,60edee0a748825db5c8b69d2,,,,,,,,,,,,
"[""period""]",0,[0.26200000000000045],37,0,37,0,1,60e6f40a0e1467233ddce325,Kobieta,20,2021-07-13_21h48.54.414,rantool2,2021.1.4,Win32,59.79788315,60e6f40a0e1467233ddce325,60d9d14f4a8a35a482e0d9bf,60edee0a748825db5c8b69d2,,,,,,,,,,,,
"[""comma""]",0,[0.30810000002384186],38,0,38,0,1,60e6f40a0e1467233ddce325,Kobieta,20,2021-07-13_21h48.54.414,rantool2,2021.1.4,Win32,59.79788315,60e6f40a0e1467233ddce325,60d9d14f4a8a35a482e0d9bf,60edee0a748825db5c8b69d2,,,,,,,,,,,,
"[""period"",""comma""]",0,"[0.3574999999999875,0.8633000000119182]",39,0,39,0,1,60e6f40a0e1467233ddce325,Kobieta,20,2021-07-13_21h48.54.414,rantool2,2021.1.4,Win32,59.79788315,60e6f40a0e1467233ddce325,60d9d14f4a8a35a482e0d9bf,60edee0a748825db5c8b69d2,,,,,,,,,,,,
"[""comma""]",0,[0.6246000000238325],40,0,40,0,1,60e6f40a0e1467233ddce325,Kobieta,20,2021-07-13_21h48.54.414,rantool2,2021.1.4,Win32,59.79788315,60e6f40a0e1467233ddce325,60d9d14f4a8a35a482e0d9bf,60edee0a748825db5c8b69d2,,,,,,,,,,,,
"[""period""]",0,[0.6011999999880686],41,0,41,0,1,60e6f40a0e1467233ddce325,Kobieta,20,2021-07-13_21h48.54.414,rantool2,2021.1.4,Win32,59.79788315,60e6f40a0e1467233ddce325,60d9d14f4a8a35a482e0d9bf,60edee0a748825db5c8b69d2,,,,,,,,,,,,
"[""period""]",0,[0.5233000000119148],42,0,42,0,1,60e6f40a0e1467233ddce325,Kobieta,20,2021-07-13_21h48.54.414,rantool2,2021.1.4,Win32,59.79788315,60e6f40a0e1467233ddce325,60d9d14f4a8a35a482e0d9bf,60edee0a748825db5c8b69d2,,,,,,,,,,,,
"[""comma""]",0,[0.40119999998805156],43,0,43,0,1,60e6f40a0e1467233ddce325,Kobieta,20,2021-07-13_21h48.54.414,rantool2,2021.1.4,Win32,59.79788315,60e6f40a0e1467233ddce325,60d9d14f4a8a35a482e0d9bf,60edee0a748825db5c8b69d2,,,,,,,,,,,,
"[""period""]",0,[0.2700999999642306],44,0,44,0,1,60e6f40a0e1467233ddce325,Kobieta,20,2021-07-13_21h48.54.414,rantool2,2021.1.4,Win32,59.79788315,60e6f40a0e1467233ddce325,60d9d14f4a8a35a482e0d9bf,60edee0a748825db5c8b69d2,,,,,,,,,,,,
"[""comma""]",0,[0.2559000000357514],45,0,45,0,1,60e6f40a0e1467233ddce325,Kobieta,20,2021-07-13_21h48.54.414,rantool2,2021.1.4,Win32,59.79788315,60e6f40a0e1467233ddce325,60d9d14f4a8a35a482e0d9bf,60edee0a748825db5c8b69d2,,,,,,,,,,,,
"[""period""]",0,[0.3071999999880859],46,0,46,0,1,60e6f40a0e1467233ddce325,Kobieta,20,2021-07-13_21h48.54.414,rantool2,2021.1.4,Win32,59.79788315,60e6f40a0e1467233ddce325,60d9d14f4a8a35a482e0d9bf,60edee0a748825db5c8b69d2,,,,,,,,,,,,
"[""comma""]",0,[0.6183000000119137],47,0,47,0,1,60e6f40a0e1467233ddce325,Kobieta,20,2021-07-13_21h48.54.414,rantool2,2021.1.4,Win32,59.79788315,60e6f40a0e1467233ddce325,60d9d14f4a8a35a482e0d9bf,60edee0a748825db5c8b69d2,,,,,,,,,,,,
"[""period""]",0,[0.6075000000000159],48,0,48,0,1,60e6f40a0e1467233ddce325,Kobieta,20,2021-07-13_21h48.54.414,rantool2,2021.1.4,Win32,59.79788315,60e6f40a0e1467233ddce325,60d9d14f4a8a35a482e0d9bf,60edee0a748825db5c8b69d2,,,,,,,,,,,,
"[""comma""]",0,[0.31680000001193775],49,0,49,0,1,60e6f40a0e1467233ddce325,Kobieta,20,2021-07-13_21h48.54.414,rantool2,2021.1.4,Win32,59.79788315,60e6f40a0e1467233ddce325,60d9d14f4a8a35a482e0d9bf,60edee0a748825db5c8b69d2,,,,,,,,,,,,
"[""period""]",0,[0.2513999999761438],50,0,50,0,1,60e6f40a0e1467233ddce325,Kobieta,20,2021-07-13_21h48.54.414,rantool2,2021.1.4,Win32,59.79788315,60e6f40a0e1467233ddce325,60d9d14f4a8a35a482e0d9bf,60edee0a748825db5c8b69d2,,,,,,,,,,,,
"[""comma""]",0,[0.2786999999880777],51,0,51,0,1,60e6f40a0e1467233ddce325,Kobieta,20,2021-07-13_21h48.54.414,rantool2,2021.1.4,Win32,59.79788315,60e6f40a0e1467233ddce325,60d9d14f4a8a35a482e0d9bf,60edee0a748825db5c8b69d2,,,,,,,,,,,,
"[""comma"",""comma""]",0,"[0.26030000001190956,1.935800000011909]",52,0,52,0,1,60e6f40a0e1467233ddce325,Kobieta,20,2021-07-13_21h48.54.414,rantool2,2021.1.4,Win32,59.79788315,60e6f40a0e1467233ddce325,60d9d14f4a8a35a482e0d9bf,60edee0a748825db5c8b69d2,,,,,,,,,,,,
"[""comma""]",0,[1.4855000000000018],53,0,53,0,1,60e6f40a0e1467233ddce325,Kobieta,20,2021-07-13_21h48.54.414,rantool2,2021.1.4,Win32,59.79788315,60e6f40a0e1467233ddce325,60d9d14f4a8a35a482e0d9bf,60edee0a748825db5c8b69d2,,,,,,,,,,,,
"[""period"",""period""]",0,"[0.4008000000119125,1.8234999999999957]",54,0,54,0,1,60e6f40a0e1467233ddce325,Kobieta,20,2021-07-13_21h48.54.414,rantool2,2021.1.4,Win32,59.79788315,60e6f40a0e1467233ddce325,60d9d14f4a8a35a482e0d9bf,60edee0a748825db5c8b69d2,,,,,,,,,,,,
"[""comma""]",0,[1.0194999999999936],55,0,55,0,1,60e6f40a0e1467233ddce325,Kobieta,20,2021-07-13_21h48.54.414,rantool2,2021.1.4,Win32,59.79788315,60e6f40a0e1467233ddce325,60d9d14f4a8a35a482e0d9bf,60edee0a748825db5c8b69d2,,,,,,,,,,,,
"[""period""]",0,[0.5351999999880661],56,0,56,0,1,60e6f40a0e1467233ddce325,Kobieta,20,2021-07-13_21h48.54.414,rantool2,2021.1.4,Win32,59.79788315,60e6f40a0e1467233ddce325,60d9d14f4a8a35a482e0d9bf,60edee0a748825db5c8b69d2,,,,,,,,,,,,
"[""comma"",""period""]",0,"[0.31289999997616746,1.4393000000119116]",57,0,57,0,1,60e6f40a0e1467233ddce325,Kobieta,20,2021-07-13_21h48.54.414,rantool2,2021.1.4,Win32,59.79788315,60e6f40a0e1467233ddce325,60d9d14f4a8a35a482e0d9bf,60edee0a748825db5c8b69d2,,,,,,,,,,,,
"[""period""]",0,[1.0423000000119202],58,0,58,0,1,60e6f40a0e1467233ddce325,Kobieta,20,2021-07-13_21h48.54.414,rantool2,2021.1.4,Win32,59.79788315,60e6f40a0e1467233ddce325,60d9d14f4a8a35a482e0d9bf,60edee0a748825db5c8b69d2,,,,,,,,,,,,
"[""comma"",""period""]",0,"[0.24320000004769327,1.7689000000357566]",59,0,59,0,1,60e6f40a0e1467233ddce325,Kobieta,20,2021-07-13_21h48.54.414,rantool2,2021.1.4,Win32,59.79788315,60e6f40a0e1467233ddce325,60d9d14f4a8a35a482e0d9bf,60edee0a748825db5c8b69d2,,,,,,,,,,,,
"[""comma""]",0,[0.8308000000119193],60,0,60,0,1,60e6f40a0e1467233ddce325,Kobieta,20,2021-07-13_21h48.54.414,rantool2,2021.1.4,Win32,59.79788315,60e6f40a0e1467233ddce325,60d9d14f4a8a35a482e0d9bf,60edee0a748825db5c8b69d2,,,,,,,,,,,,
"[""period"",""comma""]",0,"[0.4549999999999841,1.8025999999642295]",61,0,61,0,1,60e6f40a0e1467233ddce325,Kobieta,20,2021-07-13_21h48.54.414,rantool2,2021.1.4,Win32,59.79788315,60e6f40a0e1467233ddce325,60d9d14f4a8a35a482e0d9bf,60edee0a748825db5c8b69d2,,,,,,,,,,,,
"[""comma""]",0,[0.9214999999999804],62,0,62,0,1,60e6f40a0e1467233ddce325,Kobieta,20,2021-07-13_21h48.54.414,rantool2,2021.1.4,Win32,59.79788315,60e6f40a0e1467233ddce325,60d9d14f4a8a35a482e0d9bf,60edee0a748825db5c8b69d2,,,,,,,,,,,,
"[""comma"",""comma""]",0,"[0.02069999998809635,1.0059000000357798]",63,0,63,0,1,60e6f40a0e1467233ddce325,Kobieta,20,2021-07-13_21h48.54.414,rantool2,2021.1.4,Win32,59.79788315,60e6f40a0e1467233ddce325,60d9d14f4a8a35a482e0d9bf,60edee0a748825db5c8b69d2,,,,,,,,,,,,
"[""period"",""period""]",0,"[0.3061999999880811,1.7687999999523072]",64,0,64,0,1,60e6f40a0e1467233ddce325,Kobieta,20,2021-07-13_21h48.54.414,rantool2,2021.1.4,Win32,59.79788315,60e6f40a0e1467233ddce325,60d9d14f4a8a35a482e0d9bf,60edee0a748825db5c8b69d2,,,,,,,,,,,,
"[""comma"",""period""]",0,"[0.925899999976167,1.9451999999880627]",65,0,65,0,1,60e6f40a0e1467233ddce325,Kobieta,20,2021-07-13_21h48.54.414,rantool2,2021.1.4,Win32,59.79788315,60e6f40a0e1467233ddce325,60d9d14f4a8a35a482e0d9bf,60edee0a748825db5c8b69d2,,,,,,,,,,,,
"[""comma""]",0,[1.0953000000119175],66,0,66,0,1,60e6f40a0e1467233ddce325,Kobieta,20,2021-07-13_21h48.54.414,rantool2,2021.1.4,Win32,59.79788315,60e6f40a0e1467233ddce325,60d9d14f4a8a35a482e0d9bf,60edee0a748825db5c8b69d2,,,,,,,,,,,,
"[""period"",""comma""]",0,"[0.35710000002384845,1.3464999999999918]",67,0,67,0,1,60e6f40a0e1467233ddce325,Kobieta,20,2021-07-13_21h48.54.414,rantool2,2021.1.4,Win32,59.79788315,60e6f40a0e1467233ddce325,60d9d14f4a8a35a482e0d9bf,60edee0a748825db5c8b69d2,,,,,,,,,,,,
"[""period""]",0,[0.4416000000238398],68,0,68,0,1,60e6f40a0e1467233ddce325,Kobieta,20,2021-07-13_21h48.54.414,rantool2,2021.1.4,Win32,59.79788315,60e6f40a0e1467233ddce325,60d9d14f4a8a35a482e0d9bf,60edee0a748825db5c8b69d2,,,,,,,,,,,,
"[""period"",""comma""]",0,"[0.3014000000357555,1.6519000000357664]",69,0,69,0,1,60e6f40a0e1467233ddce325,Kobieta,20,2021-07-13_21h48.54.414,rantool2,2021.1.4,Win32,59.79788315,60e6f40a0e1467233ddce325,60d9d14f4a8a35a482e0d9bf,60edee0a748825db5c8b69d2,,,,,,,,,,,,
"[""period""]",0,[0.8113000000118973],70,0,70,0,1,60e6f40a0e1467233ddce325,Kobieta,20,2021-07-13_21h48.54.414,rantool2,2021.1.4,Win32,59.79788315,60e6f40a0e1467233ddce325,60d9d14f4a8a35a482e0d9bf,60edee0a748825db5c8b69d2,,,,,,,,,,,,
"[""comma""]",0,[0.369800000011935],71,0,71,0,1,60e6f40a0e1467233ddce325,Kobieta,20,2021-07-13_21h48.54.414,rantool2,2021.1.4,Win32,59.79788315,60e6f40a0e1467233ddce325,60d9d14f4a8a35a482e0d9bf,60edee0a748825db5c8b69d2,,,,,,,,,,,,
"[""period""]",0,[0.05689999997616724],72,0,72,0,1,60e6f40a0e1467233ddce325,Kobieta,20,2021-07-13_21h48.54.414,rantool2,2021.1.4,Win32,59.79788315,60e6f40a0e1467233ddce325,60d9d14f4a8a35a482e0d9bf,60edee0a748825db5c8b69d2,,,,,,,,,,,,
"[""comma"",""period""]",0,"[0.06760000002381616,0.7184000000357571]",73,0,73,0,1,60e6f40a0e1467233ddce325,Kobieta,20,2021-07-13_21h48.54.414,rantool2,2021.1.4,Win32,59.79788315,60e6f40a0e1467233ddce325,60d9d14f4a8a35a482e0d9bf,60edee0a748825db5c8b69d2,,,,,,,,,,,,
"[""period""]",0,[0.35609999996421493],74,0,74,0,1,60e6f40a0e1467233ddce325,Kobieta,20,2021-07-13_21h48.54.414,rantool2,2021.1.4,Win32,59.79788315,60e6f40a0e1467233ddce325,60d9d14f4a8a35a482e0d9bf,60edee0a748825db5c8b69d2,,,,,,,,,,,,
"[""comma""]",0,[0.11769999998807634],75,0,75,0,1,60e6f40a0e1467233ddce325,Kobieta,20,2021-07-13_21h48.54.414,rantool2,2021.1.4,Win32,59.79788315,60e6f40a0e1467233ddce325,60d9d14f4a8a35a482e0d9bf,60edee0a748825db5c8b69d2,,,,,,,,,,,,
"[""period""]",0,[0.6350999999642113],76,0,76,0,1,60e6f40a0e1467233ddce325,Kobieta,20,2021-07-13_21h48.54.414,rantool2,2021.1.4,Win32,59.79788315,60e6f40a0e1467233ddce325,60d9d14f4a8a35a482e0d9bf,60edee0a748825db5c8b69d2,,,,,,,,,,,,
"[""comma""]",0,[0.10069999998808044],77,0,77,0,1,60e6f40a0e1467233ddce325,Kobieta,20,2021-07-13_21h48.54.414,rantool2,2021.1.4,Win32,59.79788315,60e6f40a0e1467233ddce325,60d9d14f4a8a35a482e0d9bf,60edee0a748825db5c8b69d2,,,,,,,,,,,,
"[""comma"",""period""]",0,"[0.2973000000118873,1.5276999999880445]",78,0,78,0,1,60e6f40a0e1467233ddce325,Kobieta,20,2021-07-13_21h48.54.414,rantool2,2021.1.4,Win32,59.79788315,60e6f40a0e1467233ddce325,60d9d14f4a8a35a482e0d9bf,60edee0a748825db5c8b69d2,,,,,,,,,,,,
0,0,,79,0,79,0,1,60e6f40a0e1467233ddce325,Kobieta,20,2021-07-13_21h48.54.414,rantool2,2021.1.4,Win32,59.79788315,60e6f40a0e1467233ddce325,60d9d14f4a8a35a482e0d9bf,60edee0a748825db5c8b69d2,,,,,,,,,,,,
"[""period""]",0,[0.08619999998808225],80,0,80,0,1,60e6f40a0e1467233ddce325,Kobieta,20,2021-07-13_21h48.54.414,rantool2,2021.1.4,Win32,59.79788315,60e6f40a0e1467233ddce325,60d9d14f4a8a35a482e0d9bf,60edee0a748825db5c8b69d2,,,,,,,,,,,,
"[""comma"",""period""]",0,"[0.1793999999761695,1.7858000000119318]",81,0,81,0,1,60e6f40a0e1467233ddce325,Kobieta,20,2021-07-13_21h48.54.414,rantool2,2021.1.4,Win32,59.79788315,60e6f40a0e1467233ddce325,60d9d14f4a8a35a482e0d9bf,60edee0a748825db5c8b69d2,,,,,,,,,,,,
"[""comma""]",0,[1.5561999999880527],82,0,82,0,1,60e6f40a0e1467233ddce325,Kobieta,20,2021-07-13_21h48.54.414,rantool2,2021.1.4,Win32,59.79788315,60e6f40a0e1467233ddce325,60d9d14f4a8a35a482e0d9bf,60edee0a748825db5c8b69d2,,,,,,,,,,,,
"[""period""]",0,[0.6848000000119328],83,0,83,0,1,60e6f40a0e1467233ddce325,Kobieta,20,2021-07-13_21h48.54.414,rantool2,2021.1.4,Win32,59.79788315,60e6f40a0e1467233ddce325,60d9d14f4a8a35a482e0d9bf,60edee0a748825db5c8b69d2,,,,,,,,,,,,
"[""comma""]",0,[0.40550000000001774],84,0,84,0,1,60e6f40a0e1467233ddce325,Kobieta,20,2021-07-13_21h48.54.414,rantool2,2021.1.4,Win32,59.79788315,60e6f40a0e1467233ddce325,60d9d14f4a8a35a482e0d9bf,60edee0a748825db5c8b69d2,,,,,,,,,,,,
"[""period"",""comma""]",0,"[0.31380000001195185,0.8878000000119073]",85,0,85,0,1,60e6f40a0e1467233ddce325,Kobieta,20,2021-07-13_21h48.54.414,rantool2,2021.1.4,Win32,59.79788315,60e6f40a0e1467233ddce325,60d9d14f4a8a35a482e0d9bf,60edee0a748825db5c8b69d2,,,,,,,,,,,,
"[""period"",""comma""]",0,"[0.39289999997617997,1.6350999999642681]",86,0,86,0,1,60e6f40a0e1467233ddce325,Kobieta,20,2021-07-13_21h48.54.414,rantool2,2021.1.4,Win32,59.79788315,60e6f40a0e1467233ddce325,60d9d14f4a8a35a482e0d9bf,60edee0a748825db5c8b69d2,,,,,,,,,,,,
"[""comma"",""comma""]",0,"[0.3878999999761277,1.8861999999880368]",87,0,87,0,1,60e6f40a0e1467233ddce325,Kobieta,20,2021-07-13_21h48.54.414,rantool2,2021.1.4,Win32,59.79788315,60e6f40a0e1467233ddce325,60d9d14f4a8a35a482e0d9bf,60edee0a748825db5c8b69d2,,,,,,,,,,,,
"[""period""]",0,[1.468600000023855],88,0,88,0,1,60e6f40a0e1467233ddce325,Kobieta,20,2021-07-13_21h48.54.414,rantool2,2021.1.4,Win32,59.79788315,60e6f40a0e1467233ddce325,60d9d14f4a8a35a482e0d9bf,60edee0a748825db5c8b69d2,,,,,,,,,,,,
"[""period""]",0,[0.5036999999880436],89,0,89,0,1,60e6f40a0e1467233ddce325,Kobieta,20,2021-07-13_21h48.54.414,rantool2,2021.1.4,Win32,59.79788315,60e6f40a0e1467233ddce325,60d9d14f4a8a35a482e0d9bf,60edee0a748825db5c8b69d2,,,,,,,,,,,,
"[""period"",""comma""]",0,"[0.3638000000119632,1.857600000023865]",90,0,90,0,1,60e6f40a0e1467233ddce325,Kobieta,20,2021-07-13_21h48.54.414,rantool2,2021.1.4,Win32,59.79788315,60e6f40a0e1467233ddce325,60d9d14f4a8a35a482e0d9bf,60edee0a748825db5c8b69d2,,,,,,,,,,,,
"[""period""]",0,[1.03839999997615],91,0,91,0,1,60e6f40a0e1467233ddce325,Kobieta,20,2021-07-13_21h48.54.414,rantool2,2021.1.4,Win32,59.79788315,60e6f40a0e1467233ddce325,60d9d14f4a8a35a482e0d9bf,60edee0a748825db5c8b69d2,,,,,,,,,,,,
"[""comma"",""period""]",0,"[0.20139999997616087,1.0513999999761836]",92,0,92,0,1,60e6f40a0e1467233ddce325,Kobieta,20,2021-07-13_21h48.54.414,rantool2,2021.1.4,Win32,59.79788315,60e6f40a0e1467233ddce325,60d9d14f4a8a35a482e0d9bf,60edee0a748825db5c8b69d2,,,,,,,,,,,,
"[""comma"",""period""]",0,"[0.40840000003578325,1.5528000000119278]",93,0,93,0,1,60e6f40a0e1467233ddce325,Kobieta,20,2021-07-13_21h48.54.414,rantool2,2021.1.4,Win32,59.79788315,60e6f40a0e1467233ddce325,60d9d14f4a8a35a482e0d9bf,60edee0a748825db5c8b69d2,,,,,,,,,,,,
"[""comma""]",0,[0.8849999999999909],94,0,94,0,1,60e6f40a0e1467233ddce325,Kobieta,20,2021-07-13_21h48.54.414,rantool2,2021.1.4,Win32,59.79788315,60e6f40a0e1467233ddce325,60d9d14f4a8a35a482e0d9bf,60edee0a748825db5c8b69d2,,,,,,,,,,,,
"[""period""]",0,[1.2416999999880431],95,0,95,0,1,60e6f40a0e1467233ddce325,Kobieta,20,2021-07-13_21h48.54.414,rantool2,2021.1.4,Win32,59.79788315,60e6f40a0e1467233ddce325,60d9d14f4a8a35a482e0d9bf,60edee0a748825db5c8b69d2,,,,,,,,,,,,
"[""comma""]",0,[0.6338999999761654],96,0,96,0,1,60e6f40a0e1467233ddce325,Kobieta,20,2021-07-13_21h48.54.414,rantool2,2021.1.4,Win32,59.79788315,60e6f40a0e1467233ddce325,60d9d14f4a8a35a482e0d9bf,60edee0a748825db5c8b69d2,,,,,,,,,,,,
"[""comma""]",0,[1.1446000000238428],97,0,97,0,1,60e6f40a0e1467233ddce325,Kobieta,20,2021-07-13_21h48.54.414,rantool2,2021.1.4,Win32,59.79788315,60e6f40a0e1467233ddce325,60d9d14f4a8a35a482e0d9bf,60edee0a748825db5c8b69d2,,,,,,,,,,,,
0,0,,98,0,98,0,1,60e6f40a0e1467233ddce325,Kobieta,20,2021-07-13_21h48.54.414,rantool2,2021.1.4,Win32,59.79788315,60e6f40a0e1467233ddce325,60d9d14f4a8a35a482e0d9bf,60edee0a748825db5c8b69d2,,,,,,,,,,,,
"[""comma""]",0,[0.7763000000118723],99,0,99,0,1,60e6f40a0e1467233ddce325,Kobieta,20,2021-07-13_21h48.54.414,rantool2,2021.1.4,Win32,59.79788315,60e6f40a0e1467233ddce325,60d9d14f4a8a35a482e0d9bf,60edee0a748825db5c8b69d2,,,,,,,,,,,,
"[""comma"",""period""]",0,"[0.21919999998812045,1.1183000000119137]",100,0,100,0,1,60e6f40a0e1467233ddce325,Kobieta,20,2021-07-13_21h48.54.414,rantool2,2021.1.4,Win32,59.79788315,60e6f40a0e1467233ddce325,60d9d14f4a8a35a482e0d9bf,60edee0a748825db5c8b69d2,,,,,,,,,,,,
"[""period""]",0,[0.7684000000357969],101,0,101,0,1,60e6f40a0e1467233ddce325,Kobieta,20,2021-07-13_21h48.54.414,rantool2,2021.1.4,Win32,59.79788315,60e6f40a0e1467233ddce325,60d9d14f4a8a35a482e0d9bf,60edee0a748825db5c8b69d2,,,,,,,,,,,,
"[""period""]",0,[0.4719000000357596],102,0,102,0,1,60e6f40a0e1467233ddce325,Kobieta,20,2021-07-13_21h48.54.414,rantool2,2021.1.4,Win32,59.79788315,60e6f40a0e1467233ddce325,60d9d14f4a8a35a482e0d9bf,60edee0a748825db5c8b69d2,,,,,,,,,,,,
"[""period""]",0,[0.42680000001189455],103,0,103,0,1,60e6f40a0e1467233ddce325,Kobieta,20,2021-07-13_21h48.54.414,rantool2,2021.1.4,Win32,59.79788315,60e6f40a0e1467233ddce325,60d9d14f4a8a35a482e0d9bf,60edee0a748825db5c8b69d2,,,,,,,,,,,,
"[""comma"",""period""]",0,"[0.038199999988080435,1.9578000000119005]",104,0,104,0,1,60e6f40a0e1467233ddce325,Kobieta,20,2021-07-13_21h48.54.414,rantool2,2021.1.4,Win32,59.79788315,60e6f40a0e1467233ddce325,60d9d14f4a8a35a482e0d9bf,60edee0a748825db5c8b69d2,,,,,,,,,,,,
"[""comma""]",0,[1.6359000000357469],105,0,105,0,1,60e6f40a0e1467233ddce325,Kobieta,20,2021-07-13_21h48.54.414,rantool2,2021.1.4,Win32,59.79788315,60e6f40a0e1467233ddce325,60d9d14f4a8a35a482e0d9bf,60edee0a748825db5c8b69d2,,,,,,,,,,,,
"[""period""]",0,[1.5576000000238537],106,0,106,0,1,60e6f40a0e1467233ddce325,Kobieta,20,2021-07-13_21h48.54.414,rantool2,2021.1.4,Win32,59.79788315,60e6f40a0e1467233ddce325,60d9d14f4a8a35a482e0d9bf,60edee0a748825db5c8b69d2,,,,,,,,,,,,
"[""comma""]",0,[0.6469999999999914],107,0,107,0,1,60e6f40a0e1467233ddce325,Kobieta,20,2021-07-13_21h48.54.414,rantool2,2021.1.4,Win32,59.79788315,60e6f40a0e1467233ddce325,60d9d14f4a8a35a482e0d9bf,60edee0a748825db5c8b69d2,,,,,,,,,,,,
"[""comma""]",0,[1.2372000000477215],108,0,108,0,1,60e6f40a0e1467233ddce325,Kobieta,20,2021-07-13_21h48.54.414,rantool2,2021.1.4,Win32,59.79788315,60e6f40a0e1467233ddce325,60d9d14f4a8a35a482e0d9bf,60edee0a748825db5c8b69d2,,,,,,,,,,,,
"[""period"",""comma""]",0,"[0.7560000000000286,1.4445999999642254]",109,0,109,0,1,60e6f40a0e1467233ddce325,Kobieta,20,2021-07-13_21h48.54.414,rantool2,2021.1.4,Win32,59.79788315,60e6f40a0e1467233ddce325,60d9d14f4a8a35a482e0d9bf,60edee0a748825db5c8b69d2,,,,,,,,,,,,
"[""period""]",0,[0.8688999999761791],110,0,110,0,1,60e6f40a0e1467233ddce325,Kobieta,20,2021-07-13_21h48.54.414,rantool2,2021.1.4,Win32,59.79788315,60e6f40a0e1467233ddce325,60d9d14f4a8a35a482e0d9bf,60edee0a748825db5c8b69d2,,,,,,,,,,,,
"[""comma""]",0,[1.497000000000014],111,0,111,0,1,60e6f40a0e1467233ddce325,Kobieta,20,2021-07-13_21h48.54.414,rantool2,2021.1.4,Win32,59.79788315,60e6f40a0e1467233ddce325,60d9d14f4a8a35a482e0d9bf,60edee0a748825db5c8b69d2,,,,,,,,,,,,
"[""period""]",0,[1.3708999999761318],112,0,112,0,1,60e6f40a0e1467233ddce325,Kobieta,20,2021-07-13_21h48.54.414,rantool2,2021.1.4,Win32,59.79788315,60e6f40a0e1467233ddce325,60d9d14f4a8a35a482e0d9bf,60edee0a748825db5c8b69d2,,,,,,,,,,,,
"[""comma""]",0,[0.8892999999522999],113,0,113,0,1,60e6f40a0e1467233ddce325,Kobieta,20,2021-07-13_21h48.54.414,rantool2,2021.1.4,Win32,59.79788315,60e6f40a0e1467233ddce325,60d9d14f4a8a35a482e0d9bf,60edee0a748825db5c8b69d2,,,,,,,,,,,,
"[""period""]",0,[0.4233000000119205],114,0,114,0,1,60e6f40a0e1467233ddce325,Kobieta,20,2021-07-13_21h48.54.414,rantool2,2021.1.4,Win32,59.79788315,60e6f40a0e1467233ddce325,60d9d14f4a8a35a482e0d9bf,60edee0a748825db5c8b69d2,,,,,,,,,,,,
"[""comma""]",0,[1.425699999988126],115,0,115,0,1,60e6f40a0e1467233ddce325,Kobieta,20,2021-07-13_21h48.54.414,rantool2,2021.1.4,Win32,59.79788315,60e6f40a0e1467233ddce325,60d9d14f4a8a35a482e0d9bf,60edee0a748825db5c8b69d2,,,,,,,,,,,,
"[""period""]",0,[1.378100000023835],116,0,116,0,1,60e6f40a0e1467233ddce325,Kobieta,20,2021-07-13_21h48.54.414,rantool2,2021.1.4,Win32,59.79788315,60e6f40a0e1467233ddce325,60d9d14f4a8a35a482e0d9bf,60edee0a748825db5c8b69d2,,,,,,,,,,,,
"[""comma""]",0,[0.6278999999761368],117,0,117,0,1,60e6f40a0e1467233ddce325,Kobieta,20,2021-07-13_21h48.54.414,rantool2,2021.1.4,Win32,59.79788315,60e6f40a0e1467233ddce325,60d9d14f4a8a35a482e0d9bf,60edee0a748825db5c8b69d2,,,,,,,,,,,,
"[""period""]",0,[0.4136000000238482],118,0,118,0,1,60e6f40a0e1467233ddce325,Kobieta,20,2021-07-13_21h48.54.414,rantool2,2021.1.4,Win32,59.79788315,60e6f40a0e1467233ddce325,60d9d14f4a8a35a482e0d9bf,60edee0a748825db5c8b69d2,,,,,,,,,,,,
"[""comma""]",0,[0.2365999999642554],119,0,119,0,1,60e6f40a0e1467233ddce325,Kobieta,20,2021-07-13_21h48.54.414,rantool2,2021.1.4,Win32,59.79788315,60e6f40a0e1467233ddce325,60d9d14f4a8a35a482e0d9bf,60edee0a748825db5c8b69d2,,,,,,,,,,,,
,,,,,,,,60e6f40a0e1467233ddce325,Kobieta,20,2021-07-13_21h48.54.414,rantool2,2021.1.4,Win32,59.79788315,60e6f40a0e1467233ddce325,60d9d14f4a8a35a482e0d9bf,60edee0a748825db5c8b69d2,j,2.6517,0,0,0,49,1,RROOORO,RROOORR,21.76276513,22.53364006,series_1
,,,,,,,,60e6f40a0e1467233ddce325,Kobieta,20,2021-07-13_21h48.54.414,rantool2,2021.1.4,Win32,59.79788315,60e6f40a0e1467233ddce325,60d9d14f4a8a35a482e0d9bf,60edee0a748825db5c8b69d2,f,1.6724,0,1,1,15,1,OORRRRO,OORRRRR,22.10108823,21.74922619,series_0
,,,,,,,,60e6f40a0e1467233ddce325,Kobieta,20,2021-07-13_21h48.54.414,rantool2,2021.1.4,Win32,59.79788315,60e6f40a0e1467233ddce325,60d9d14f4a8a35a482e0d9bf,60edee0a748825db5c8b69d2,j,1.3747,0,2,2,36,1,ROOROOO,ROOROOR,21.07991943,20.9984461,series_0
,,,,,,,,60e6f40a0e1467233ddce325,Kobieta,20,2021-07-13_21h48.54.414,rantool2,2021.1.4,Win32,59.79788315,60e6f40a0e1467233ddce325,60d9d14f4a8a35a482e0d9bf,60edee0a748825db5c8b69d2,f,1.4849,0,3,3,5,1,OOORORO,OOORORR,20.87963819,21.9921709,series_1
,,,,,,,,60e6f40a0e1467233ddce325,Kobieta,20,2021-07-13_21h48.54.414,rantool2,2021.1.4,Win32,59.79788315,60e6f40a0e1467233ddce325,60d9d14f4a8a35a482e0d9bf,60edee0a748825db5c8b69d2,j,1.3961,0,4,4,39,1,ROORRRO,ROORRRR,21.82425538,21.38562617,series_0
,,,,,,,,60e6f40a0e1467233ddce325,Kobieta,20,2021-07-13_21h48.54.414,rantool2,2021.1.4,Win32,59.79788315,60e6f40a0e1467233ddce325,60d9d14f4a8a35a482e0d9bf,60edee0a748825db5c8b69d2,f,1.3185,0,5,5,17,1,OROOORO,OROOORR,21.03750787,22.12173012,series_1
,,,,,,,,60e6f40a0e1467233ddce325,Kobieta,20,2021-07-13_21h48.54.414,rantool2,2021.1.4,Win32,59.79788315,60e6f40a0e1467233ddce325,60d9d14f4a8a35a482e0d9bf,60edee0a748825db5c8b69d2,j,1.3854,0,6,6,61,1,RRRRORO,RRRRORR,21.81333602,21.17347734,series_0
,,,,,,,,60e6f40a0e1467233ddce325,Kobieta,20,2021-07-13_21h48.54.414,rantool2,2021.1.4,Win32,59.79788315,60e6f40a0e1467233ddce325,60d9d14f4a8a35a482e0d9bf,60edee0a748825db5c8b69d2,j,1.1511,0,7,7,6,1,OOORROO,OOORROR,21.12383932,21.38562617,series_1
,,,,,,,,60e6f40a0e1467233ddce325,Kobieta,20,2021-07-13_21h48.54.414,rantool2,2021.1.4,Win32,59.79788315,60e6f40a0e1467233ddce325,60d9d14f4a8a35a482e0d9bf,60edee0a748825db5c8b69d2,f,1.2616,0,8,8,42,1,ROROROO,ROROROR,20.39515459,19.8361834,series_0
,,,,,,,,60e6f40a0e1467233ddce325,Kobieta,20,2021-07-13_21h48.54.414,rantool2,2021.1.4,Win32,59.79788315,60e6f40a0e1467233ddce325,60d9d14f4a8a35a482e0d9bf,60edee0a748825db5c8b69d2,f,1.3598,0,9,9,55,1,RRORRRO,RRORRRR,21.56657303,21.21223021,series_0
,,,,,,,,60e6f40a0e1467233ddce325,Kobieta,20,2021-07-13_21h48.54.414,rantool2,2021.1.4,Win32,59.79788315,60e6f40a0e1467233ddce325,60d9d14f4a8a35a482e0d9bf,60edee0a748825db5c8b69d2,f,1.3937,0,10,10,19,1,OROORRO,OROORRR,21.73568164,22.11181017,series_1
,,,,,,,,60e6f40a0e1467233ddce325,Kobieta,20,2021-07-13_21h48.54.414,rantool2,2021.1.4,Win32,59.79788315,60e6f40a0e1467233ddce325,60d9d14f4a8a35a482e0d9bf,60edee0a748825db5c8b69d2,j,1.6562,0,11,11,35,1,ROOORRO,ROOORRR,21.76276513,22.16977179,series_1
,,,,,,,,60e6f40a0e1467233ddce325,Kobieta,20,2021-07-13_21h48.54.414,rantool2,2021.1.4,Win32,59.79788315,60e6f40a0e1467233ddce325,60d9d14f4a8a35a482e0d9bf,60edee0a748825db5c8b69d2,j,1.4151,0,12,12,32,1,ROOOOOO,ROOOOOR,19.92253567,21.27974287,series_1
,,,,,,,,60e6f40a0e1467233ddce325,Kobieta,20,2021-07-13_21h48.54.414,rantool2,2021.1.4,Win32,59.79788315,60e6f40a0e1467233ddce325,60d9d14f4a8a35a482e0d9bf,60edee0a748825db5c8b69d2,j,2.4415,0,13,13,41,1,ROROORO,ROROORR,20.42602454,21.71443381,series_1
,,,,,,,,60e6f40a0e1467233ddce325,Kobieta,20,2021-07-13_21h48.54.414,rantool2,2021.1.4,Win32,59.79788315,60e6f40a0e1467233ddce325,60d9d14f4a8a35a482e0d9bf,60edee0a748825db5c8b69d2,j,2.2215,0,14,14,60,1,RRRROOO,RRRROOR,22.10108823,22.15934078,series_1
,,,,,,,,60e6f40a0e1467233ddce325,Kobieta,20,2021-07-13_21h48.54.414,rantool2,2021.1.4,Win32,59.79788315,60e6f40a0e1467233ddce325,60d9d14f4a8a35a482e0d9bf,60edee0a748825db5c8b69d2,f,1.9093,0,15,15,7,1,OOORRRO,OOORRRR,21.6194508,21.899017,series_1
,,,,,,,,60e6f40a0e1467233ddce325,Kobieta,20,2021-07-13_21h48.54.414,rantool2,2021.1.4,Win32,59.79788315,60e6f40a0e1467233ddce325,60d9d14f4a8a35a482e0d9bf,60edee0a748825db5c8b69d2,j,1.4569,0,16,16,28,1,ORRROOO,ORRROOR,22.24142883,22.53364006,series_1
,,,,,,,,60e6f40a0e1467233ddce325,Kobieta,20,2021-07-13_21h48.54.414,rantool2,2021.1.4,Win32,59.79788315,60e6f40a0e1467233ddce325,60d9d14f4a8a35a482e0d9bf,60edee0a748825db5c8b69d2,f,1.509,0,17,17,48,1,RROOOOO,RROOOOR,20.90986523,22.15934078,series_1
,,,,,,,,60e6f40a0e1467233ddce325,Kobieta,20,2021-07-13_21h48.54.414,rantool2,2021.1.4,Win32,59.79788315,60e6f40a0e1467233ddce325,60d9d14f4a8a35a482e0d9bf,60edee0a748825db5c8b69d2,f,2.051,0,18,18,21,1,ORORORO,ORORORR,20.39515459,22.06781359,series_1
,,,,,,,,60e6f40a0e1467233ddce325,Kobieta,20,2021-07-13_21h48.54.414,rantool2,2021.1.4,Win32,59.79788315,60e6f40a0e1467233ddce325,60d9d14f4a8a35a482e0d9bf,60edee0a748825db5c8b69d2,j,2.6373,0,19,19,29,1,ORRRORO,ORRRORR,22.00300695,22.12173012,series_1
,,,,,,,,60e6f40a0e1467233ddce325,Kobieta,20,2021-07-13_21h48.54.414,rantool2,2021.1.4,Win32,59.79788315,60e6f40a0e1467233ddce325,60d9d14f4a8a35a482e0d9bf,60edee0a748825db5c8b69d2,f,1.3895,0,20,20,11,1,OORORRO,OORORRR,22.18365867,22.6797523,series_1
,,,,,,,,60e6f40a0e1467233ddce325,Kobieta,20,2021-07-13_21h48.54.414,rantool2,2021.1.4,Win32,59.79788315,60e6f40a0e1467233ddce325,60d9d14f4a8a35a482e0d9bf,60edee0a748825db5c8b69d2,j,2.193,0,21,21,18,1,OROOROO,OROOROR,20.84860893,21.22513037,series_1
,,,,,,,,60e6f40a0e1467233ddce325,Kobieta,20,2021-07-13_21h48.54.414,rantool2,2021.1.4,Win32,59.79788315,60e6f40a0e1467233ddce325,60d9d14f4a8a35a482e0d9bf,60edee0a748825db5c8b69d2,j,2.4481,0,22,22,38,1,ROORROO,ROORROR,21.79500819,21.36812781,series_0
,,,,,,,,60e6f40a0e1467233ddce325,Kobieta,20,2021-07-13_21h48.54.414,rantool2,2021.1.4,Win32,59.79788315,60e6f40a0e1467233ddce325,60d9d14f4a8a35a482e0d9bf,60edee0a748825db5c8b69d2,j,3.0864,0,23,23,57,1,RRROORO,RRROORR,21.82425538,22.07102821,series_1
,,,,,,,,60e6f40a0e1467233ddce325,Kobieta,20,2021-07-13_21h48.54.414,rantool2,2021.1.4,Win32,59.79788315,60e6f40a0e1467233ddce325,60d9d14f4a8a35a482e0d9bf,60edee0a748825db5c8b69d2,j,2.378,0,24,24,23,1,ORORRRO,ORORRRR,22.1285618,21.9921709,series_0
,,,,,,,,60e6f40a0e1467233ddce325,Kobieta,20,2021-07-13_21h48.54.414,rantool2,2021.1.4,Win32,59.79788315,60e6f40a0e1467233ddce325,60d9d14f4a8a35a482e0d9bf,60edee0a748825db5c8b69d2,f,2.4533,0,25,25,44,1,RORROOO,RORROOR,21.66733484,22.02566557,series_1
,,,,,,,,60e6f40a0e1467233ddce325,Kobieta,20,2021-07-13_21h48.54.414,rantool2,2021.1.4,Win32,59.79788315,60e6f40a0e1467233ddce325,60d9d14f4a8a35a482e0d9bf,60edee0a748825db5c8b69d2,f,1.4735,0,26,26,40,1,ROROOOO,ROROOOR,20.87963819,21.37121559,series_1
,,,,,,,,60e6f40a0e1467233ddce325,Kobieta,20,2021-07-13_21h48.54.414,rantool2,2021.1.4,Win32,59.79788315,60e6f40a0e1467233ddce325,60d9d14f4a8a35a482e0d9bf,60edee0a748825db5c8b69d2,j,1.0126,0,27,27,10,1,OOROROO,OOROROR,21.31236711,21.07490964,series_0
,,,,,,,,60e6f40a0e1467233ddce325,Kobieta,20,2021-07-13_21h48.54.414,rantool2,2021.1.4,Win32,59.79788315,60e6f40a0e1467233ddce325,60d9d14f4a8a35a482e0d9bf,60edee0a748825db5c8b69d2,j,1.6986,0,28,28,1,1,OOOOORO,OOOOORR,19.92253567,20.74050628,series_1
,,,,,,,,60e6f40a0e1467233ddce325,Kobieta,20,2021-07-13_21h48.54.414,rantool2,2021.1.4,Win32,59.79788315,60e6f40a0e1467233ddce325,60d9d14f4a8a35a482e0d9bf,60edee0a748825db5c8b69d2,j,1.8272,0,29,29,22,1,ORORROO,ORORROR,22.02732763,21.57657071,series_0
,,,,,,,,60e6f40a0e1467233ddce325,Kobieta,20,2021-07-13_21h48.54.414,rantool2,2021.1.4,Win32,59.79788315,60e6f40a0e1467233ddce325,60d9d14f4a8a35a482e0d9bf,60edee0a748825db5c8b69d2,f,1.4455,0,30,30,25,1,ORROORO,ORROORR,21.79500819,22.61624387,series_1
,,,,,,,,60e6f40a0e1467233ddce325,Kobieta,20,2021-07-13_21h48.54.414,rantool2,2021.1.4,Win32,59.79788315,60e6f40a0e1467233ddce325,60d9d14f4a8a35a482e0d9bf,60edee0a748825db5c8b69d2,f,1.4697,0,31,31,59,1,RRRORRO,RRRORRR,21.56657303,20.89823192,series_0
,,,,,,,,60e6f40a0e1467233ddce325,Kobieta,20,2021-07-13_21h48.54.414,rantool2,2021.1.4,Win32,59.79788315,60e6f40a0e1467233ddce325,60d9d14f4a8a35a482e0d9bf,60edee0a748825db5c8b69d2,j,1.7764,0,32,32,3,1,OOOORRO,OOOORRR,20.90986523,21.74922619,series_1
,,,,,,,,60e6f40a0e1467233ddce325,Kobieta,20,2021-07-13_21h48.54.414,rantool2,2021.1.4,Win32,59.79788315,60e6f40a0e1467233ddce325,60d9d14f4a8a35a482e0d9bf,60edee0a748825db5c8b69d2,f,1.9485,0,33,33,26,1,ORROROO,ORROROR,22.02732763,21.71443381,series_0
,,,,,,,,60e6f40a0e1467233ddce325,Kobieta,20,2021-07-13_21h48.54.414,rantool2,2021.1.4,Win32,59.79788315,60e6f40a0e1467233ddce325,60d9d14f4a8a35a482e0d9bf,60edee0a748825db5c8b69d2,j,1.9365,0,34,34,34,1,ROOOROO,ROOOROR,21.03750787,21.24781509,series_1
,,,,,,,,60e6f40a0e1467233ddce325,Kobieta,20,2021-07-13_21h48.54.414,rantool2,2021.1.4,Win32,59.79788315,60e6f40a0e1467233ddce325,60d9d14f4a8a35a482e0d9bf,60edee0a748825db5c8b69d2,j,2.6599,0,35,35,50,1,RROOROO,RROOROR,21.73568164,22.02566557,series_1
,,,,,,,,60e6f40a0e1467233ddce325,Kobieta,20,2021-07-13_21h48.54.414,rantool2,2021.1.4,Win32,59.79788315,60e6f40a0e1467233ddce325,60d9d14f4a8a35a482e0d9bf,60edee0a748825db5c8b69d2,f,2.4819,0,36,36,45,1,RORRORO,RORRORR,20.78182524,21.22513037,series_1
,,,,,,,,60e6f40a0e1467233ddce325,Kobieta,20,2021-07-13_21h48.54.414,rantool2,2021.1.4,Win32,59.79788315,60e6f40a0e1467233ddce325,60d9d14f4a8a35a482e0d9bf,60edee0a748825db5c8b69d2,f,1.8023,0,37,37,31,1,ORRRRRO,ORRRRRR,22.16413392,20.74050628,series_0
,,,,,,,,60e6f40a0e1467233ddce325,Kobieta,20,2021-07-13_21h48.54.414,rantool2,2021.1.4,Win32,59.79788315,60e6f40a0e1467233ddce325,60d9d14f4a8a35a482e0d9bf,60edee0a748825db5c8b69d2,j,1.5717,0,38,38,4,1,OOOROOO,OOOROOR,19.91402015,21.21223021,series_1
,,,,,,,,60e6f40a0e1467233ddce325,Kobieta,20,2021-07-13_21h48.54.414,rantool2,2021.1.4,Win32,59.79788315,60e6f40a0e1467233ddce325,60d9d14f4a8a35a482e0d9bf,60edee0a748825db5c8b69d2,f,2.1817,0,39,39,16,1,OROOOOO,OROOOOR,20.43051175,21.17347734,series_1
,,,,,,,,60e6f40a0e1467233ddce325,Kobieta,20,2021-07-13_21h48.54.414,rantool2,2021.1.4,Win32,59.79788315,60e6f40a0e1467233ddce325,60d9d14f4a8a35a482e0d9bf,60edee0a748825db5c8b69d2,j,1.7192,0,40,40,9,1,OOROORO,OOROORR,21.07991943,22.2428857,series_1
,,,,,,,,60e6f40a0e1467233ddce325,Kobieta,20,2021-07-13_21h48.54.414,rantool2,2021.1.4,Win32,59.79788315,60e6f40a0e1467233ddce325,60d9d14f4a8a35a482e0d9bf,60edee0a748825db5c8b69d2,j,1.6518,0,41,41,53,1,RRORORO,RRORORR,20.71309134,21.90565814,series_1
,,,,,,,,60e6f40a0e1467233ddce325,Kobieta,20,2021-07-13_21h48.54.414,rantool2,2021.1.4,Win32,59.79788315,60e6f40a0e1467233ddce325,60d9d14f4a8a35a482e0d9bf,60edee0a748825db5c8b69d2,f,1.8943,0,42,42,30,1,ORRRROO,ORRRROR,22.46748491,22.03072203,series_0
,,,,,,,,60e6f40a0e1467233ddce325,Kobieta,20,2021-07-13_21h48.54.414,rantool2,2021.1.4,Win32,59.79788315,60e6f40a0e1467233ddce325,60d9d14f4a8a35a482e0d9bf,60edee0a748825db5c8b69d2,f,1.4352,0,43,43,62,1,RRRRROO,RRRRROR,22.16413392,21.27974287,series_0
,,,,,,,,60e6f40a0e1467233ddce325,Kobieta,20,2021-07-13_21h48.54.414,rantool2,2021.1.4,Win32,59.79788315,60e6f40a0e1467233ddce325,60d9d14f4a8a35a482e0d9bf,60edee0a748825db5c8b69d2,j,1.4544,0,44,44,47,1,RORRRRO,RORRRRR,21.81333602,21.02936224,series_0
,,,,,,,,60e6f40a0e1467233ddce325,Kobieta,20,2021-07-13_21h48.54.414,rantool2,2021.1.4,Win32,59.79788315,60e6f40a0e1467233ddce325,60d9d14f4a8a35a482e0d9bf,60edee0a748825db5c8b69d2,f,2.1749,0,45,45,24,1,ORROOOO,ORROOOR,21.12383932,22.07102821,series_1
,,,,,,,,60e6f40a0e1467233ddce325,Kobieta,20,2021-07-13_21h48.54.414,rantool2,2021.1.4,Win32,59.79788315,60e6f40a0e1467233ddce325,60d9d14f4a8a35a482e0d9bf,60edee0a748825db5c8b69d2,j,1.8028,0,46,46,58,1,RRROROO,RRROROR,22.1285618,21.37121559,series_0
,,,,,,,,60e6f40a0e1467233ddce325,Kobieta,20,2021-07-13_21h48.54.414,rantool2,2021.1.4,Win32,59.79788315,60e6f40a0e1467233ddce325,60d9d14f4a8a35a482e0d9bf,60edee0a748825db5c8b69d2,f,1.6408,0,47,47,51,1,RROORRO,RROORRR,21.89852628,22.02786418,series_1
,,,,,,,,60e6f40a0e1467233ddce325,Kobieta,20,2021-07-13_21h48.54.414,rantool2,2021.1.4,Win32,59.79788315,60e6f40a0e1467233ddce325,60d9d14f4a8a35a482e0d9bf,60edee0a748825db5c8b69d2,j,1.3234,0,48,48,56,1,RRROOOO,RRROOOR,21.6194508,22.31681875,series_1
,,,,,,,,60e6f40a0e1467233ddce325,Kobieta,20,2021-07-13_21h48.54.414,rantool2,2021.1.4,Win32,59.79788315,60e6f40a0e1467233ddce325,60d9d14f4a8a35a482e0d9bf,60edee0a748825db5c8b69d2,j,1.4864,0,49,49,37,1,ROORORO,ROORORR,20.42602454,21.57657071,series_1
,,,,,,,,60e6f40a0e1467233ddce325,Kobieta,20,2021-07-13_21h48.54.414,rantool2,2021.1.4,Win32,59.79788315,60e6f40a0e1467233ddce325,60d9d14f4a8a35a482e0d9bf,60edee0a748825db5c8b69d2,j,1.9978,0,50,50,12,1,OORROOO,OORROOR,21.30250474,22.02786418,series_1
,,,,,,,,60e6f40a0e1467233ddce325,Kobieta,20,2021-07-13_21h48.54.414,rantool2,2021.1.4,Win32,59.79788315,60e6f40a0e1467233ddce325,60d9d14f4a8a35a482e0d9bf,60edee0a748825db5c8b69d2,f,1.1695,0,51,51,0,1,OOOOOOO,OOOOOOR,18.52739004,19.62521613,series_1
,,,,,,,,60e6f40a0e1467233ddce325,Kobieta,20,2021-07-13_21h48.54.414,rantool2,2021.1.4,Win32,59.79788315,60e6f40a0e1467233ddce325,60d9d14f4a8a35a482e0d9bf,60edee0a748825db5c8b69d2,j,1.7519,0,52,52,52,1,RROROOO,RROROOR,22.18365867,22.11097995,series_0
,,,,,,,,60e6f40a0e1467233ddce325,Kobieta,20,2021-07-13_21h48.54.414,rantool2,2021.1.4,Win32,59.79788315,60e6f40a0e1467233ddce325,60d9d14f4a8a35a482e0d9bf,60edee0a748825db5c8b69d2,j,1.3741,0,53,53,43,1,RORORRO,RORORRR,20.71309134,21.07490964,series_1
,,,,,,,,60e6f40a0e1467233ddce325,Kobieta,20,2021-07-13_21h48.54.414,rantool2,2021.1.4,Win32,59.79788315,60e6f40a0e1467233ddce325,60d9d14f4a8a35a482e0d9bf,60edee0a748825db5c8b69d2,j,1.2014,0,54,54,14,1,OORRROO,OORRROR,22.24142883,22.16977179,series_0
,,,,,,,,60e6f40a0e1467233ddce325,Kobieta,20,2021-07-13_21h48.54.414,rantool2,2021.1.4,Win32,59.79788315,60e6f40a0e1467233ddce325,60d9d14f4a8a35a482e0d9bf,60edee0a748825db5c8b69d2,j,1.2709,0,55,55,8,1,OOROOOO,OOROOOR,19.91402015,20.89823192,series_1
,,,,,,,,60e6f40a0e1467233ddce325,Kobieta,20,2021-07-13_21h48.54.414,rantool2,2021.1.4,Win32,59.79788315,60e6f40a0e1467233ddce325,60d9d14f4a8a35a482e0d9bf,60edee0a748825db5c8b69d2,j,1.7201,0,56,56,33,1,ROOOORO,ROOOORR,20.83779602,22.03072203,series_1
,,,,,,,,60e6f40a0e1467233ddce325,Kobieta,20,2021-07-13_21h48.54.414,rantool2,2021.1.4,Win32,59.79788315,60e6f40a0e1467233ddce325,60d9d14f4a8a35a482e0d9bf,60edee0a748825db5c8b69d2,f,1.3888,0,57,57,46,1,RORRROO,RORRROR,22.00300695,21.24781509,series_0
,,,,,,,,60e6f40a0e1467233ddce325,Kobieta,20,2021-07-13_21h48.54.414,rantool2,2021.1.4,Win32,59.79788315,60e6f40a0e1467233ddce325,60d9d14f4a8a35a482e0d9bf,60edee0a748825db5c8b69d2,j,1.1587,0,58,58,54,1,RRORROO,RRORROR,21.55250791,20.9984461,series_0
,,,,,,,,60e6f40a0e1467233ddce325,Kobieta,20,2021-07-13_21h48.54.414,rantool2,2021.1.4,Win32,59.79788315,60e6f40a0e1467233ddce325,60d9d14f4a8a35a482e0d9bf,60edee0a748825db5c8b69d2,f,1.164,0,59,59,27,1,ORRORRO,ORRORRR,21.55250791,22.2428857,series_1
,,,,,,,,60e6f40a0e1467233ddce325,Kobieta,20,2021-07-13_21h48.54.414,rantool2,2021.1.4,Win32,59.79788315,60e6f40a0e1467233ddce325,60d9d14f4a8a35a482e0d9bf,60edee0a748825db5c8b69d2,j,0.9465,0,60,60,20,1,OROROOO,OROROOR,21.31236711,21.90565814,series_1
,,,,,,,,60e6f40a0e1467233ddce325,Kobieta,20,2021-07-13_21h48.54.414,rantool2,2021.1.4,Win32,59.79788315,60e6f40a0e1467233ddce325,60d9d14f4a8a35a482e0d9bf,60edee0a748825db5c8b69d2,f,1.2409,0,61,61,63,1,RRRRRRO,RRRRRRR,21.35278725,19.62521613,series_0
,,,,,,,,60e6f40a0e1467233ddce325,Kobieta,20,2021-07-13_21h48.54.414,rantool2,2021.1.4,Win32,59.79788315,60e6f40a0e1467233ddce325,60d9d14f4a8a35a482e0d9bf,60edee0a748825db5c8b69d2,j,1.6726,0,62,62,13,1,OORRORO,OORRORR,21.66733484,22.11181017,series_1
,,,,,,,,60e6f40a0e1467233ddce325,Kobieta,20,2021-07-13_21h48.54.414,rantool2,2021.1.4,Win32,59.79788315,60e6f40a0e1467233ddce325,60d9d14f4a8a35a482e0d9bf,60edee0a748825db5c8b69d2,f,1.6309,0,63,63,2,1,OOOOROO,OOOOROR,20.43051175,21.02936224,series_1
