key_resp_7.keys,key_resp_7.rt,trials_2.thisRepN,trials_2.thisTrialN,trials_2.thisN,trials_2.thisIndex,trials_2.ran,id,series_0,series_1,acss_0,acss_1,comparison,id*,Płeć*,Wiek*,date,expName,psychopyVersion,OS,frameRate,STUDY_ID,SESSION_ID,key_resp_5.keys,key_resp_5.corr,key_resp_5.rt,trials.thisRepN,trials.thisTrialN,trials.thisN,trials.thisIndex,trials.ran
f,2.883,0,0,0,59,1,61323841c9efa7918f8e078b,RRRORRO,RRRORRR,21.56657303,20.89823192,series_0,61323841c9efa7918f8e078b,Kobieta,18,2021-09-06_19h29.43.533,rantool2,2021.1.4,Win32,60.0240096,6135e006383e6ea6c3d06a28,61364e5590fdc78383961807,,,,,,,,
f,1.726,0,1,1,21,1,61323841c9efa7918f8e078b,ORORORO,ORORORR,20.39515459,22.06781359,series_1,61323841c9efa7918f8e078b,Kobieta,18,2021-09-06_19h29.43.533,rantool2,2021.1.4,Win32,60.0240096,6135e006383e6ea6c3d06a28,61364e5590fdc78383961807,,,,,,,,
f,3.023,0,2,2,49,1,61323841c9efa7918f8e078b,RROOORO,RROOORR,21.76276513,22.53364006,series_1,61323841c9efa7918f8e078b,Kobieta,18,2021-09-06_19h29.43.533,rantool2,2021.1.4,Win32,60.0240096,6135e006383e6ea6c3d06a28,61364e5590fdc78383961807,,,,,,,,
j,2.682,0,3,3,9,1,61323841c9efa7918f8e078b,OOROORO,OOROORR,21.07991943,22.2428857,series_1,61323841c9efa7918f8e078b,Kobieta,18,2021-09-06_19h29.43.533,rantool2,2021.1.4,Win32,60.0240096,6135e006383e6ea6c3d06a28,61364e5590fdc78383961807,,,,,,,,
f,3.153,0,4,4,18,1,61323841c9efa7918f8e078b,OROOROO,OROOROR,20.84860893,21.22513037,series_1,61323841c9efa7918f8e078b,Kobieta,18,2021-09-06_19h29.43.533,rantool2,2021.1.4,Win32,60.0240096,6135e006383e6ea6c3d06a28,61364e5590fdc78383961807,,,,,,,,
j,1.988,0,5,5,37,1,61323841c9efa7918f8e078b,ROORORO,ROORORR,20.42602454,21.57657071,series_1,61323841c9efa7918f8e078b,Kobieta,18,2021-09-06_19h29.43.533,rantool2,2021.1.4,Win32,60.0240096,6135e006383e6ea6c3d06a28,61364e5590fdc78383961807,,,,,,,,
f,3.035,0,6,6,43,1,61323841c9efa7918f8e078b,RORORRO,RORORRR,20.71309134,21.07490964,series_1,61323841c9efa7918f8e078b,Kobieta,18,2021-09-06_19h29.43.533,rantool2,2021.1.4,Win32,60.0240096,6135e006383e6ea6c3d06a28,61364e5590fdc78383961807,,,,,,,,
f,2.352,0,7,7,31,1,61323841c9efa7918f8e078b,ORRRRRO,ORRRRRR,22.16413392,20.74050628,series_0,61323841c9efa7918f8e078b,Kobieta,18,2021-09-06_19h29.43.533,rantool2,2021.1.4,Win32,60.0240096,6135e006383e6ea6c3d06a28,61364e5590fdc78383961807,,,,,,,,
j,2.236,0,8,8,33,1,61323841c9efa7918f8e078b,ROOOORO,ROOOORR,20.83779602,22.03072203,series_1,61323841c9efa7918f8e078b,Kobieta,18,2021-09-06_19h29.43.533,rantool2,2021.1.4,Win32,60.0240096,6135e006383e6ea6c3d06a28,61364e5590fdc78383961807,,,,,,,,
j,2.619,0,9,9,34,1,61323841c9efa7918f8e078b,ROOOROO,ROOOROR,21.03750787,21.24781509,series_1,61323841c9efa7918f8e078b,Kobieta,18,2021-09-06_19h29.43.533,rantool2,2021.1.4,Win32,60.0240096,6135e006383e6ea6c3d06a28,61364e5590fdc78383961807,,,,,,,,
j,2.053,0,10,10,8,1,61323841c9efa7918f8e078b,OOROOOO,OOROOOR,19.91402015,20.89823192,series_1,61323841c9efa7918f8e078b,Kobieta,18,2021-09-06_19h29.43.533,rantool2,2021.1.4,Win32,60.0240096,6135e006383e6ea6c3d06a28,61364e5590fdc78383961807,,,,,,,,
f,2.05,0,11,11,1,1,61323841c9efa7918f8e078b,OOOOORO,OOOOORR,19.92253567,20.74050628,series_1,61323841c9efa7918f8e078b,Kobieta,18,2021-09-06_19h29.43.533,rantool2,2021.1.4,Win32,60.0240096,6135e006383e6ea6c3d06a28,61364e5590fdc78383961807,,,,,,,,
j,2.5,0,12,12,51,1,61323841c9efa7918f8e078b,RROORRO,RROORRR,21.89852628,22.02786418,series_1,61323841c9efa7918f8e078b,Kobieta,18,2021-09-06_19h29.43.533,rantool2,2021.1.4,Win32,60.0240096,6135e006383e6ea6c3d06a28,61364e5590fdc78383961807,,,,,,,,
j,2.037,0,13,13,6,1,61323841c9efa7918f8e078b,OOORROO,OOORROR,21.12383932,21.38562617,series_1,61323841c9efa7918f8e078b,Kobieta,18,2021-09-06_19h29.43.533,rantool2,2021.1.4,Win32,60.0240096,6135e006383e6ea6c3d06a28,61364e5590fdc78383961807,,,,,,,,
f,2.419,0,14,14,13,1,61323841c9efa7918f8e078b,OORRORO,OORRORR,21.66733484,22.11181017,series_1,61323841c9efa7918f8e078b,Kobieta,18,2021-09-06_19h29.43.533,rantool2,2021.1.4,Win32,60.0240096,6135e006383e6ea6c3d06a28,61364e5590fdc78383961807,,,,,,,,
f,3.002,0,15,15,3,1,61323841c9efa7918f8e078b,OOOORRO,OOOORRR,20.90986523,21.74922619,series_1,61323841c9efa7918f8e078b,Kobieta,18,2021-09-06_19h29.43.533,rantool2,2021.1.4,Win32,60.0240096,6135e006383e6ea6c3d06a28,61364e5590fdc78383961807,,,,,,,,
f,2.019,0,16,16,23,1,61323841c9efa7918f8e078b,ORORRRO,ORORRRR,22.1285618,21.9921709,series_0,61323841c9efa7918f8e078b,Kobieta,18,2021-09-06_19h29.43.533,rantool2,2021.1.4,Win32,60.0240096,6135e006383e6ea6c3d06a28,61364e5590fdc78383961807,,,,,,,,
j,2.053,0,17,17,26,1,61323841c9efa7918f8e078b,ORROROO,ORROROR,22.02732763,21.71443381,series_0,61323841c9efa7918f8e078b,Kobieta,18,2021-09-06_19h29.43.533,rantool2,2021.1.4,Win32,60.0240096,6135e006383e6ea6c3d06a28,61364e5590fdc78383961807,,,,,,,,
f,1.553,0,18,18,12,1,61323841c9efa7918f8e078b,OORROOO,OORROOR,21.30250474,22.02786418,series_1,61323841c9efa7918f8e078b,Kobieta,18,2021-09-06_19h29.43.533,rantool2,2021.1.4,Win32,60.0240096,6135e006383e6ea6c3d06a28,61364e5590fdc78383961807,,,,,,,,
f,2.719,0,19,19,20,1,61323841c9efa7918f8e078b,OROROOO,OROROOR,21.31236711,21.90565814,series_1,61323841c9efa7918f8e078b,Kobieta,18,2021-09-06_19h29.43.533,rantool2,2021.1.4,Win32,60.0240096,6135e006383e6ea6c3d06a28,61364e5590fdc78383961807,,,,,,,,
j,1.555,0,20,20,32,1,61323841c9efa7918f8e078b,ROOOOOO,ROOOOOR,19.92253567,21.27974287,series_1,61323841c9efa7918f8e078b,Kobieta,18,2021-09-06_19h29.43.533,rantool2,2021.1.4,Win32,60.0240096,6135e006383e6ea6c3d06a28,61364e5590fdc78383961807,,,,,,,,
f,1.768,0,21,21,0,1,61323841c9efa7918f8e078b,OOOOOOO,OOOOOOR,18.52739004,19.62521613,series_1,61323841c9efa7918f8e078b,Kobieta,18,2021-09-06_19h29.43.533,rantool2,2021.1.4,Win32,60.0240096,6135e006383e6ea6c3d06a28,61364e5590fdc78383961807,,,,,,,,
j,1.555,0,22,22,44,1,61323841c9efa7918f8e078b,RORROOO,RORROOR,21.66733484,22.02566557,series_1,61323841c9efa7918f8e078b,Kobieta,18,2021-09-06_19h29.43.533,rantool2,2021.1.4,Win32,60.0240096,6135e006383e6ea6c3d06a28,61364e5590fdc78383961807,,,,,,,,
f,1.653,0,23,23,10,1,61323841c9efa7918f8e078b,OOROROO,OOROROR,21.31236711,21.07490964,series_0,61323841c9efa7918f8e078b,Kobieta,18,2021-09-06_19h29.43.533,rantool2,2021.1.4,Win32,60.0240096,6135e006383e6ea6c3d06a28,61364e5590fdc78383961807,,,,,,,,
f,1.618,0,24,24,63,1,61323841c9efa7918f8e078b,RRRRRRO,RRRRRRR,21.35278725,19.62521613,series_0,61323841c9efa7918f8e078b,Kobieta,18,2021-09-06_19h29.43.533,rantool2,2021.1.4,Win32,60.0240096,6135e006383e6ea6c3d06a28,61364e5590fdc78383961807,,,,,,,,
j,1.703,0,25,25,58,1,61323841c9efa7918f8e078b,RRROROO,RRROROR,22.1285618,21.37121559,series_0,61323841c9efa7918f8e078b,Kobieta,18,2021-09-06_19h29.43.533,rantool2,2021.1.4,Win32,60.0240096,6135e006383e6ea6c3d06a28,61364e5590fdc78383961807,,,,,,,,
j,1.652,0,26,26,2,1,61323841c9efa7918f8e078b,OOOOROO,OOOOROR,20.43051175,21.02936224,series_1,61323841c9efa7918f8e078b,Kobieta,18,2021-09-06_19h29.43.533,rantool2,2021.1.4,Win32,60.0240096,6135e006383e6ea6c3d06a28,61364e5590fdc78383961807,,,,,,,,
j,1.519,0,27,27,36,1,61323841c9efa7918f8e078b,ROOROOO,ROOROOR,21.07991943,20.9984461,series_0,61323841c9efa7918f8e078b,Kobieta,18,2021-09-06_19h29.43.533,rantool2,2021.1.4,Win32,60.0240096,6135e006383e6ea6c3d06a28,61364e5590fdc78383961807,,,,,,,,
j,1.499,0,28,28,16,1,61323841c9efa7918f8e078b,OROOOOO,OROOOOR,20.43051175,21.17347734,series_1,61323841c9efa7918f8e078b,Kobieta,18,2021-09-06_19h29.43.533,rantool2,2021.1.4,Win32,60.0240096,6135e006383e6ea6c3d06a28,61364e5590fdc78383961807,,,,,,,,
f,1.554,0,29,29,35,1,61323841c9efa7918f8e078b,ROOORRO,ROOORRR,21.76276513,22.16977179,series_1,61323841c9efa7918f8e078b,Kobieta,18,2021-09-06_19h29.43.533,rantool2,2021.1.4,Win32,60.0240096,6135e006383e6ea6c3d06a28,61364e5590fdc78383961807,,,,,,,,
j,1.469,0,30,30,45,1,61323841c9efa7918f8e078b,RORRORO,RORRORR,20.78182524,21.22513037,series_1,61323841c9efa7918f8e078b,Kobieta,18,2021-09-06_19h29.43.533,rantool2,2021.1.4,Win32,60.0240096,6135e006383e6ea6c3d06a28,61364e5590fdc78383961807,,,,,,,,
f,1.485,0,31,31,42,1,61323841c9efa7918f8e078b,ROROROO,ROROROR,20.39515459,19.8361834,series_0,61323841c9efa7918f8e078b,Kobieta,18,2021-09-06_19h29.43.533,rantool2,2021.1.4,Win32,60.0240096,6135e006383e6ea6c3d06a28,61364e5590fdc78383961807,,,,,,,,
j,1.568,0,32,32,61,1,61323841c9efa7918f8e078b,RRRRORO,RRRRORR,21.81333602,21.17347734,series_0,61323841c9efa7918f8e078b,Kobieta,18,2021-09-06_19h29.43.533,rantool2,2021.1.4,Win32,60.0240096,6135e006383e6ea6c3d06a28,61364e5590fdc78383961807,,,,,,,,
f,1.398,0,33,33,22,1,61323841c9efa7918f8e078b,ORORROO,ORORROR,22.02732763,21.57657071,series_0,61323841c9efa7918f8e078b,Kobieta,18,2021-09-06_19h29.43.533,rantool2,2021.1.4,Win32,60.0240096,6135e006383e6ea6c3d06a28,61364e5590fdc78383961807,,,,,,,,
j,1.721,0,34,34,17,1,61323841c9efa7918f8e078b,OROOORO,OROOORR,21.03750787,22.12173012,series_1,61323841c9efa7918f8e078b,Kobieta,18,2021-09-06_19h29.43.533,rantool2,2021.1.4,Win32,60.0240096,6135e006383e6ea6c3d06a28,61364e5590fdc78383961807,,,,,,,,
j,1.554,0,35,35,11,1,61323841c9efa7918f8e078b,OORORRO,OORORRR,22.18365867,22.6797523,series_1,61323841c9efa7918f8e078b,Kobieta,18,2021-09-06_19h29.43.533,rantool2,2021.1.4,Win32,60.0240096,6135e006383e6ea6c3d06a28,61364e5590fdc78383961807,,,,,,,,
j,1.42,0,36,36,52,1,61323841c9efa7918f8e078b,RROROOO,RROROOR,22.18365867,22.11097995,series_0,61323841c9efa7918f8e078b,Kobieta,18,2021-09-06_19h29.43.533,rantool2,2021.1.4,Win32,60.0240096,6135e006383e6ea6c3d06a28,61364e5590fdc78383961807,,,,,,,,
j,1.489,0,37,37,38,1,61323841c9efa7918f8e078b,ROORROO,ROORROR,21.79500819,21.36812781,series_0,61323841c9efa7918f8e078b,Kobieta,18,2021-09-06_19h29.43.533,rantool2,2021.1.4,Win32,60.0240096,6135e006383e6ea6c3d06a28,61364e5590fdc78383961807,,,,,,,,
j,3.093,0,38,38,46,1,61323841c9efa7918f8e078b,RORRROO,RORRROR,22.00300695,21.24781509,series_0,61323841c9efa7918f8e078b,Kobieta,18,2021-09-06_19h29.43.533,rantool2,2021.1.4,Win32,60.0240096,6135e006383e6ea6c3d06a28,61364e5590fdc78383961807,,,,,,,,
f,1.983,0,39,39,50,1,61323841c9efa7918f8e078b,RROOROO,RROOROR,21.73568164,22.02566557,series_1,61323841c9efa7918f8e078b,Kobieta,18,2021-09-06_19h29.43.533,rantool2,2021.1.4,Win32,60.0240096,6135e006383e6ea6c3d06a28,61364e5590fdc78383961807,,,,,,,,
f,2.036,0,40,40,47,1,61323841c9efa7918f8e078b,RORRRRO,RORRRRR,21.81333602,21.02936224,series_0,61323841c9efa7918f8e078b,Kobieta,18,2021-09-06_19h29.43.533,rantool2,2021.1.4,Win32,60.0240096,6135e006383e6ea6c3d06a28,61364e5590fdc78383961807,,,,,,,,
f,3.271,0,41,41,39,1,61323841c9efa7918f8e078b,ROORRRO,ROORRRR,21.82425538,21.38562617,series_0,61323841c9efa7918f8e078b,Kobieta,18,2021-09-06_19h29.43.533,rantool2,2021.1.4,Win32,60.0240096,6135e006383e6ea6c3d06a28,61364e5590fdc78383961807,,,,,,,,
j,2.337,0,42,42,19,1,61323841c9efa7918f8e078b,OROORRO,OROORRR,21.73568164,22.11181017,series_1,61323841c9efa7918f8e078b,Kobieta,18,2021-09-06_19h29.43.533,rantool2,2021.1.4,Win32,60.0240096,6135e006383e6ea6c3d06a28,61364e5590fdc78383961807,,,,,,,,
f,3.121,0,43,43,54,1,61323841c9efa7918f8e078b,RRORROO,RRORROR,21.55250791,20.9984461,series_0,61323841c9efa7918f8e078b,Kobieta,18,2021-09-06_19h29.43.533,rantool2,2021.1.4,Win32,60.0240096,6135e006383e6ea6c3d06a28,61364e5590fdc78383961807,,,,,,,,
f,2.707,0,44,44,7,1,61323841c9efa7918f8e078b,OOORRRO,OOORRRR,21.6194508,21.899017,series_1,61323841c9efa7918f8e078b,Kobieta,18,2021-09-06_19h29.43.533,rantool2,2021.1.4,Win32,60.0240096,6135e006383e6ea6c3d06a28,61364e5590fdc78383961807,,,,,,,,
j,1.75,0,45,45,53,1,61323841c9efa7918f8e078b,RRORORO,RRORORR,20.71309134,21.90565814,series_1,61323841c9efa7918f8e078b,Kobieta,18,2021-09-06_19h29.43.533,rantool2,2021.1.4,Win32,60.0240096,6135e006383e6ea6c3d06a28,61364e5590fdc78383961807,,,,,,,,
j,1.522,0,46,46,15,1,61323841c9efa7918f8e078b,OORRRRO,OORRRRR,22.10108823,21.74922619,series_0,61323841c9efa7918f8e078b,Kobieta,18,2021-09-06_19h29.43.533,rantool2,2021.1.4,Win32,60.0240096,6135e006383e6ea6c3d06a28,61364e5590fdc78383961807,,,,,,,,
j,1.565,0,47,47,48,1,61323841c9efa7918f8e078b,RROOOOO,RROOOOR,20.90986523,22.15934078,series_1,61323841c9efa7918f8e078b,Kobieta,18,2021-09-06_19h29.43.533,rantool2,2021.1.4,Win32,60.0240096,6135e006383e6ea6c3d06a28,61364e5590fdc78383961807,,,,,,,,
j,2.119,0,48,48,55,1,61323841c9efa7918f8e078b,RRORRRO,RRORRRR,21.56657303,21.21223021,series_0,61323841c9efa7918f8e078b,Kobieta,18,2021-09-06_19h29.43.533,rantool2,2021.1.4,Win32,60.0240096,6135e006383e6ea6c3d06a28,61364e5590fdc78383961807,,,,,,,,
f,4.235,0,49,49,29,1,61323841c9efa7918f8e078b,ORRRORO,ORRRORR,22.00300695,22.12173012,series_1,61323841c9efa7918f8e078b,Kobieta,18,2021-09-06_19h29.43.533,rantool2,2021.1.4,Win32,60.0240096,6135e006383e6ea6c3d06a28,61364e5590fdc78383961807,,,,,,,,
f,1.37,0,50,50,4,1,61323841c9efa7918f8e078b,OOOROOO,OOOROOR,19.91402015,21.21223021,series_1,61323841c9efa7918f8e078b,Kobieta,18,2021-09-06_19h29.43.533,rantool2,2021.1.4,Win32,60.0240096,6135e006383e6ea6c3d06a28,61364e5590fdc78383961807,,,,,,,,
j,2.317,0,51,51,5,1,61323841c9efa7918f8e078b,OOORORO,OOORORR,20.87963819,21.9921709,series_1,61323841c9efa7918f8e078b,Kobieta,18,2021-09-06_19h29.43.533,rantool2,2021.1.4,Win32,60.0240096,6135e006383e6ea6c3d06a28,61364e5590fdc78383961807,,,,,,,,
f,1.086,0,52,52,14,1,61323841c9efa7918f8e078b,OORRROO,OORRROR,22.24142883,22.16977179,series_0,61323841c9efa7918f8e078b,Kobieta,18,2021-09-06_19h29.43.533,rantool2,2021.1.4,Win32,60.0240096,6135e006383e6ea6c3d06a28,61364e5590fdc78383961807,,,,,,,,
j,1.402,0,53,53,40,1,61323841c9efa7918f8e078b,ROROOOO,ROROOOR,20.87963819,21.37121559,series_1,61323841c9efa7918f8e078b,Kobieta,18,2021-09-06_19h29.43.533,rantool2,2021.1.4,Win32,60.0240096,6135e006383e6ea6c3d06a28,61364e5590fdc78383961807,,,,,,,,
f,1.687,0,54,54,25,1,61323841c9efa7918f8e078b,ORROORO,ORROORR,21.79500819,22.61624387,series_1,61323841c9efa7918f8e078b,Kobieta,18,2021-09-06_19h29.43.533,rantool2,2021.1.4,Win32,60.0240096,6135e006383e6ea6c3d06a28,61364e5590fdc78383961807,,,,,,,,
j,2.578,0,55,55,27,1,61323841c9efa7918f8e078b,ORRORRO,ORRORRR,21.55250791,22.2428857,series_1,61323841c9efa7918f8e078b,Kobieta,18,2021-09-06_19h29.43.533,rantool2,2021.1.4,Win32,60.0240096,6135e006383e6ea6c3d06a28,61364e5590fdc78383961807,,,,,,,,
f,1.466,0,56,56,60,1,61323841c9efa7918f8e078b,RRRROOO,RRRROOR,22.10108823,22.15934078,series_1,61323841c9efa7918f8e078b,Kobieta,18,2021-09-06_19h29.43.533,rantool2,2021.1.4,Win32,60.0240096,6135e006383e6ea6c3d06a28,61364e5590fdc78383961807,,,,,,,,
j,1.652,0,57,57,24,1,61323841c9efa7918f8e078b,ORROOOO,ORROOOR,21.12383932,22.07102821,series_1,61323841c9efa7918f8e078b,Kobieta,18,2021-09-06_19h29.43.533,rantool2,2021.1.4,Win32,60.0240096,6135e006383e6ea6c3d06a28,61364e5590fdc78383961807,,,,,,,,
f,2.387,0,58,58,56,1,61323841c9efa7918f8e078b,RRROOOO,RRROOOR,21.6194508,22.31681875,series_1,61323841c9efa7918f8e078b,Kobieta,18,2021-09-06_19h29.43.533,rantool2,2021.1.4,Win32,60.0240096,6135e006383e6ea6c3d06a28,61364e5590fdc78383961807,,,,,,,,
f,1.602,0,59,59,62,1,61323841c9efa7918f8e078b,RRRRROO,RRRRROR,22.16413392,21.27974287,series_0,61323841c9efa7918f8e078b,Kobieta,18,2021-09-06_19h29.43.533,rantool2,2021.1.4,Win32,60.0240096,6135e006383e6ea6c3d06a28,61364e5590fdc78383961807,,,,,,,,
f,2.318,0,60,60,30,1,61323841c9efa7918f8e078b,ORRRROO,ORRRROR,22.46748491,22.03072203,series_0,61323841c9efa7918f8e078b,Kobieta,18,2021-09-06_19h29.43.533,rantool2,2021.1.4,Win32,60.0240096,6135e006383e6ea6c3d06a28,61364e5590fdc78383961807,,,,,,,,
j,1.768,0,61,61,57,1,61323841c9efa7918f8e078b,RRROORO,RRROORR,21.82425538,22.07102821,series_1,61323841c9efa7918f8e078b,Kobieta,18,2021-09-06_19h29.43.533,rantool2,2021.1.4,Win32,60.0240096,6135e006383e6ea6c3d06a28,61364e5590fdc78383961807,,,,,,,,
f,1.835,0,62,62,41,1,61323841c9efa7918f8e078b,ROROORO,ROROORR,20.42602454,21.71443381,series_1,61323841c9efa7918f8e078b,Kobieta,18,2021-09-06_19h29.43.533,rantool2,2021.1.4,Win32,60.0240096,6135e006383e6ea6c3d06a28,61364e5590fdc78383961807,,,,,,,,
j,1.669,0,63,63,28,1,61323841c9efa7918f8e078b,ORRROOO,ORRROOR,22.24142883,22.53364006,series_1,61323841c9efa7918f8e078b,Kobieta,18,2021-09-06_19h29.43.533,rantool2,2021.1.4,Win32,60.0240096,6135e006383e6ea6c3d06a28,61364e5590fdc78383961807,,,,,,,,
,,,,,,,61323841c9efa7918f8e078b,,,,,,61323841c9efa7918f8e078b,Kobieta,18,2021-09-06_19h29.43.533,rantool2,2021.1.4,Win32,60.0240096,6135e006383e6ea6c3d06a28,61364e5590fdc78383961807,0,,,0,0,0,0,1
,,,,,,,61323841c9efa7918f8e078b,,,,,,61323841c9efa7918f8e078b,Kobieta,18,2021-09-06_19h29.43.533,rantool2,2021.1.4,Win32,60.0240096,6135e006383e6ea6c3d06a28,61364e5590fdc78383961807,"[""comma""]",0,[0.33499999999997954],1,0,1,0,1
,,,,,,,61323841c9efa7918f8e078b,,,,,,61323841c9efa7918f8e078b,Kobieta,18,2021-09-06_19h29.43.533,rantool2,2021.1.4,Win32,60.0240096,6135e006383e6ea6c3d06a28,61364e5590fdc78383961807,"[""comma""]",0,[0.28700000000003456],2,0,2,0,1
,,,,,,,61323841c9efa7918f8e078b,,,,,,61323841c9efa7918f8e078b,Kobieta,18,2021-09-06_19h29.43.533,rantool2,2021.1.4,Win32,60.0240096,6135e006383e6ea6c3d06a28,61364e5590fdc78383961807,"[""period""]",0,[0.3860000000000241],3,0,3,0,1
,,,,,,,61323841c9efa7918f8e078b,,,,,,61323841c9efa7918f8e078b,Kobieta,18,2021-09-06_19h29.43.533,rantool2,2021.1.4,Win32,60.0240096,6135e006383e6ea6c3d06a28,61364e5590fdc78383961807,"[""period""]",0,[0.35199999999997544],4,0,4,0,1
,,,,,,,61323841c9efa7918f8e078b,,,,,,61323841c9efa7918f8e078b,Kobieta,18,2021-09-06_19h29.43.533,rantool2,2021.1.4,Win32,60.0240096,6135e006383e6ea6c3d06a28,61364e5590fdc78383961807,"[""comma""]",0,[0.42099999999999227],5,0,5,0,1
,,,,,,,61323841c9efa7918f8e078b,,,,,,61323841c9efa7918f8e078b,Kobieta,18,2021-09-06_19h29.43.533,rantool2,2021.1.4,Win32,60.0240096,6135e006383e6ea6c3d06a28,61364e5590fdc78383961807,"[""period""]",0,[0.28899999999998727],6,0,6,0,1
,,,,,,,61323841c9efa7918f8e078b,,,,,,61323841c9efa7918f8e078b,Kobieta,18,2021-09-06_19h29.43.533,rantool2,2021.1.4,Win32,60.0240096,6135e006383e6ea6c3d06a28,61364e5590fdc78383961807,"[""comma""]",0,[0.28700000000003456],7,0,7,0,1
,,,,,,,61323841c9efa7918f8e078b,,,,,,61323841c9efa7918f8e078b,Kobieta,18,2021-09-06_19h29.43.533,rantool2,2021.1.4,Win32,60.0240096,6135e006383e6ea6c3d06a28,61364e5590fdc78383961807,"[""comma""]",0,[0.2869999999999777],8,0,8,0,1
,,,,,,,61323841c9efa7918f8e078b,,,,,,61323841c9efa7918f8e078b,Kobieta,18,2021-09-06_19h29.43.533,rantool2,2021.1.4,Win32,60.0240096,6135e006383e6ea6c3d06a28,61364e5590fdc78383961807,"[""comma""]",0,[0.28799999999995407],9,0,9,0,1
,,,,,,,61323841c9efa7918f8e078b,,,,,,61323841c9efa7918f8e078b,Kobieta,18,2021-09-06_19h29.43.533,rantool2,2021.1.4,Win32,60.0240096,6135e006383e6ea6c3d06a28,61364e5590fdc78383961807,"[""period""]",0,[0.25399999999996226],10,0,10,0,1
,,,,,,,61323841c9efa7918f8e078b,,,,,,61323841c9efa7918f8e078b,Kobieta,18,2021-09-06_19h29.43.533,rantool2,2021.1.4,Win32,60.0240096,6135e006383e6ea6c3d06a28,61364e5590fdc78383961807,"[""period""]",0,[0.2999999999999545],11,0,11,0,1
,,,,,,,61323841c9efa7918f8e078b,,,,,,61323841c9efa7918f8e078b,Kobieta,18,2021-09-06_19h29.43.533,rantool2,2021.1.4,Win32,60.0240096,6135e006383e6ea6c3d06a28,61364e5590fdc78383961807,"[""comma""]",0,[0.3170000000000073],12,0,12,0,1
,,,,,,,61323841c9efa7918f8e078b,,,,,,61323841c9efa7918f8e078b,Kobieta,18,2021-09-06_19h29.43.533,rantool2,2021.1.4,Win32,60.0240096,6135e006383e6ea6c3d06a28,61364e5590fdc78383961807,"[""period""]",0,[0.3190000000000168],13,0,13,0,1
,,,,,,,61323841c9efa7918f8e078b,,,,,,61323841c9efa7918f8e078b,Kobieta,18,2021-09-06_19h29.43.533,rantool2,2021.1.4,Win32,60.0240096,6135e006383e6ea6c3d06a28,61364e5590fdc78383961807,"[""comma""]",0,[0.3410000000000082],14,0,14,0,1
,,,,,,,61323841c9efa7918f8e078b,,,,,,61323841c9efa7918f8e078b,Kobieta,18,2021-09-06_19h29.43.533,rantool2,2021.1.4,Win32,60.0240096,6135e006383e6ea6c3d06a28,61364e5590fdc78383961807,"[""comma""]",0,[0.285000000000025],15,0,15,0,1
,,,,,,,61323841c9efa7918f8e078b,,,,,,61323841c9efa7918f8e078b,Kobieta,18,2021-09-06_19h29.43.533,rantool2,2021.1.4,Win32,60.0240096,6135e006383e6ea6c3d06a28,61364e5590fdc78383961807,"[""comma""]",0,[0.30499999999995],16,0,16,0,1
,,,,,,,61323841c9efa7918f8e078b,,,,,,61323841c9efa7918f8e078b,Kobieta,18,2021-09-06_19h29.43.533,rantool2,2021.1.4,Win32,60.0240096,6135e006383e6ea6c3d06a28,61364e5590fdc78383961807,"[""period""]",0,[0.33600000000001273],17,0,17,0,1
,,,,,,,61323841c9efa7918f8e078b,,,,,,61323841c9efa7918f8e078b,Kobieta,18,2021-09-06_19h29.43.533,rantool2,2021.1.4,Win32,60.0240096,6135e006383e6ea6c3d06a28,61364e5590fdc78383961807,"[""period""]",0,[0.20299999999997453],18,0,18,0,1
,,,,,,,61323841c9efa7918f8e078b,,,,,,61323841c9efa7918f8e078b,Kobieta,18,2021-09-06_19h29.43.533,rantool2,2021.1.4,Win32,60.0240096,6135e006383e6ea6c3d06a28,61364e5590fdc78383961807,"[""period""]",0,[0.3009999999999877],19,0,19,0,1
,,,,,,,61323841c9efa7918f8e078b,,,,,,61323841c9efa7918f8e078b,Kobieta,18,2021-09-06_19h29.43.533,rantool2,2021.1.4,Win32,60.0240096,6135e006383e6ea6c3d06a28,61364e5590fdc78383961807,"[""comma""]",0,[0.30400000000003047],20,0,20,0,1
,,,,,,,61323841c9efa7918f8e078b,,,,,,61323841c9efa7918f8e078b,Kobieta,18,2021-09-06_19h29.43.533,rantool2,2021.1.4,Win32,60.0240096,6135e006383e6ea6c3d06a28,61364e5590fdc78383961807,"[""period""]",0,[0.2699999999999818],21,0,21,0,1
,,,,,,,61323841c9efa7918f8e078b,,,,,,61323841c9efa7918f8e078b,Kobieta,18,2021-09-06_19h29.43.533,rantool2,2021.1.4,Win32,60.0240096,6135e006383e6ea6c3d06a28,61364e5590fdc78383961807,"[""comma""]",0,[0.34899999999998954],22,0,22,0,1
,,,,,,,61323841c9efa7918f8e078b,,,,,,61323841c9efa7918f8e078b,Kobieta,18,2021-09-06_19h29.43.533,rantool2,2021.1.4,Win32,60.0240096,6135e006383e6ea6c3d06a28,61364e5590fdc78383961807,"[""period""]",0,[0.28600000000000136],23,0,23,0,1
,,,,,,,61323841c9efa7918f8e078b,,,,,,61323841c9efa7918f8e078b,Kobieta,18,2021-09-06_19h29.43.533,rantool2,2021.1.4,Win32,60.0240096,6135e006383e6ea6c3d06a28,61364e5590fdc78383961807,"[""comma""]",0,[0.2699999999999818],24,0,24,0,1
,,,,,,,61323841c9efa7918f8e078b,,,,,,61323841c9efa7918f8e078b,Kobieta,18,2021-09-06_19h29.43.533,rantool2,2021.1.4,Win32,60.0240096,6135e006383e6ea6c3d06a28,61364e5590fdc78383961807,"[""comma""]",0,[0.285000000000025],25,0,25,0,1
,,,,,,,61323841c9efa7918f8e078b,,,,,,61323841c9efa7918f8e078b,Kobieta,18,2021-09-06_19h29.43.533,rantool2,2021.1.4,Win32,60.0240096,6135e006383e6ea6c3d06a28,61364e5590fdc78383961807,"[""comma""]",0,[0.30299999999999727],26,0,26,0,1
,,,,,,,61323841c9efa7918f8e078b,,,,,,61323841c9efa7918f8e078b,Kobieta,18,2021-09-06_19h29.43.533,rantool2,2021.1.4,Win32,60.0240096,6135e006383e6ea6c3d06a28,61364e5590fdc78383961807,"[""period""]",0,[0.22800000000000864],27,0,27,0,1
,,,,,,,61323841c9efa7918f8e078b,,,,,,61323841c9efa7918f8e078b,Kobieta,18,2021-09-06_19h29.43.533,rantool2,2021.1.4,Win32,60.0240096,6135e006383e6ea6c3d06a28,61364e5590fdc78383961807,"[""comma""]",0,[0.29899999999997817],28,0,28,0,1
,,,,,,,61323841c9efa7918f8e078b,,,,,,61323841c9efa7918f8e078b,Kobieta,18,2021-09-06_19h29.43.533,rantool2,2021.1.4,Win32,60.0240096,6135e006383e6ea6c3d06a28,61364e5590fdc78383961807,"[""period""]",0,[0.27099999999995816],29,0,29,0,1
,,,,,,,61323841c9efa7918f8e078b,,,,,,61323841c9efa7918f8e078b,Kobieta,18,2021-09-06_19h29.43.533,rantool2,2021.1.4,Win32,60.0240096,6135e006383e6ea6c3d06a28,61364e5590fdc78383961807,"[""comma""]",0,[0.30299999999999727],30,0,30,0,1
,,,,,,,61323841c9efa7918f8e078b,,,,,,61323841c9efa7918f8e078b,Kobieta,18,2021-09-06_19h29.43.533,rantool2,2021.1.4,Win32,60.0240096,6135e006383e6ea6c3d06a28,61364e5590fdc78383961807,"[""comma""]",0,[0.28700000000003456],31,0,31,0,1
,,,,,,,61323841c9efa7918f8e078b,,,,,,61323841c9efa7918f8e078b,Kobieta,18,2021-09-06_19h29.43.533,rantool2,2021.1.4,Win32,60.0240096,6135e006383e6ea6c3d06a28,61364e5590fdc78383961807,"[""comma""]",0,[0.3020000000000209],32,0,32,0,1
,,,,,,,61323841c9efa7918f8e078b,,,,,,61323841c9efa7918f8e078b,Kobieta,18,2021-09-06_19h29.43.533,rantool2,2021.1.4,Win32,60.0240096,6135e006383e6ea6c3d06a28,61364e5590fdc78383961807,"[""comma""]",0,[0.26900000000000546],33,0,33,0,1
,,,,,,,61323841c9efa7918f8e078b,,,,,,61323841c9efa7918f8e078b,Kobieta,18,2021-09-06_19h29.43.533,rantool2,2021.1.4,Win32,60.0240096,6135e006383e6ea6c3d06a28,61364e5590fdc78383961807,"[""comma""]",0,[0.2839999999999918],34,0,34,0,1
,,,,,,,61323841c9efa7918f8e078b,,,,,,61323841c9efa7918f8e078b,Kobieta,18,2021-09-06_19h29.43.533,rantool2,2021.1.4,Win32,60.0240096,6135e006383e6ea6c3d06a28,61364e5590fdc78383961807,"[""period""]",0,[0.19799999999997908],35,0,35,0,1
,,,,,,,61323841c9efa7918f8e078b,,,,,,61323841c9efa7918f8e078b,Kobieta,18,2021-09-06_19h29.43.533,rantool2,2021.1.4,Win32,60.0240096,6135e006383e6ea6c3d06a28,61364e5590fdc78383961807,"[""comma""]",0,[0.27099999999995816],36,0,36,0,1
,,,,,,,61323841c9efa7918f8e078b,,,,,,61323841c9efa7918f8e078b,Kobieta,18,2021-09-06_19h29.43.533,rantool2,2021.1.4,Win32,60.0240096,6135e006383e6ea6c3d06a28,61364e5590fdc78383961807,"[""period""]",0,[0.13900000000001],37,0,37,0,1
,,,,,,,61323841c9efa7918f8e078b,,,,,,61323841c9efa7918f8e078b,Kobieta,18,2021-09-06_19h29.43.533,rantool2,2021.1.4,Win32,60.0240096,6135e006383e6ea6c3d06a28,61364e5590fdc78383961807,"[""comma""]",0,[0.0049999999999954525],38,0,38,0,1
,,,,,,,61323841c9efa7918f8e078b,,,,,,61323841c9efa7918f8e078b,Kobieta,18,2021-09-06_19h29.43.533,rantool2,2021.1.4,Win32,60.0240096,6135e006383e6ea6c3d06a28,61364e5590fdc78383961807,"[""period""]",0,[0.27000000000003865],39,0,39,0,1
,,,,,,,61323841c9efa7918f8e078b,,,,,,61323841c9efa7918f8e078b,Kobieta,18,2021-09-06_19h29.43.533,rantool2,2021.1.4,Win32,60.0240096,6135e006383e6ea6c3d06a28,61364e5590fdc78383961807,"[""comma""]",0,[0.40399999999999636],40,0,40,0,1
,,,,,,,61323841c9efa7918f8e078b,,,,,,61323841c9efa7918f8e078b,Kobieta,18,2021-09-06_19h29.43.533,rantool2,2021.1.4,Win32,60.0240096,6135e006383e6ea6c3d06a28,61364e5590fdc78383961807,"[""period""]",0,[0.46900000000005093],41,0,41,0,1
,,,,,,,61323841c9efa7918f8e078b,,,,,,61323841c9efa7918f8e078b,Kobieta,18,2021-09-06_19h29.43.533,rantool2,2021.1.4,Win32,60.0240096,6135e006383e6ea6c3d06a28,61364e5590fdc78383961807,"[""comma""]",0,[0.45599999999996044],42,0,42,0,1
,,,,,,,61323841c9efa7918f8e078b,,,,,,61323841c9efa7918f8e078b,Kobieta,18,2021-09-06_19h29.43.533,rantool2,2021.1.4,Win32,60.0240096,6135e006383e6ea6c3d06a28,61364e5590fdc78383961807,"[""comma""]",0,[0.3039999999999736],43,0,43,0,1
,,,,,,,61323841c9efa7918f8e078b,,,,,,61323841c9efa7918f8e078b,Kobieta,18,2021-09-06_19h29.43.533,rantool2,2021.1.4,Win32,60.0240096,6135e006383e6ea6c3d06a28,61364e5590fdc78383961807,"[""comma""]",0,[0.33600000000001273],44,0,44,0,1
,,,,,,,61323841c9efa7918f8e078b,,,,,,61323841c9efa7918f8e078b,Kobieta,18,2021-09-06_19h29.43.533,rantool2,2021.1.4,Win32,60.0240096,6135e006383e6ea6c3d06a28,61364e5590fdc78383961807,"[""period""]",0,[0.3299999999999841],45,0,45,0,1
,,,,,,,61323841c9efa7918f8e078b,,,,,,61323841c9efa7918f8e078b,Kobieta,18,2021-09-06_19h29.43.533,rantool2,2021.1.4,Win32,60.0240096,6135e006383e6ea6c3d06a28,61364e5590fdc78383961807,"[""comma""]",0,[0.3009999999999877],46,0,46,0,1
,,,,,,,61323841c9efa7918f8e078b,,,,,,61323841c9efa7918f8e078b,Kobieta,18,2021-09-06_19h29.43.533,rantool2,2021.1.4,Win32,60.0240096,6135e006383e6ea6c3d06a28,61364e5590fdc78383961807,"[""comma""]",0,[0.30299999999999727],47,0,47,0,1
,,,,,,,61323841c9efa7918f8e078b,,,,,,61323841c9efa7918f8e078b,Kobieta,18,2021-09-06_19h29.43.533,rantool2,2021.1.4,Win32,60.0240096,6135e006383e6ea6c3d06a28,61364e5590fdc78383961807,"[""period""]",0,[0.35199999999997544],48,0,48,0,1
,,,,,,,61323841c9efa7918f8e078b,,,,,,61323841c9efa7918f8e078b,Kobieta,18,2021-09-06_19h29.43.533,rantool2,2021.1.4,Win32,60.0240096,6135e006383e6ea6c3d06a28,61364e5590fdc78383961807,"[""comma""]",0,[0.2909999999999968],49,0,49,0,1
,,,,,,,61323841c9efa7918f8e078b,,,,,,61323841c9efa7918f8e078b,Kobieta,18,2021-09-06_19h29.43.533,rantool2,2021.1.4,Win32,60.0240096,6135e006383e6ea6c3d06a28,61364e5590fdc78383961807,"[""period""]",0,[0.35499999999996135],50,0,50,0,1
,,,,,,,61323841c9efa7918f8e078b,,,,,,61323841c9efa7918f8e078b,Kobieta,18,2021-09-06_19h29.43.533,rantool2,2021.1.4,Win32,60.0240096,6135e006383e6ea6c3d06a28,61364e5590fdc78383961807,"[""comma""]",0,[0.2869999999999777],51,0,51,0,1
,,,,,,,61323841c9efa7918f8e078b,,,,,,61323841c9efa7918f8e078b,Kobieta,18,2021-09-06_19h29.43.533,rantool2,2021.1.4,Win32,60.0240096,6135e006383e6ea6c3d06a28,61364e5590fdc78383961807,"[""period""]",0,[0.27700000000004366],52,0,52,0,1
,,,,,,,61323841c9efa7918f8e078b,,,,,,61323841c9efa7918f8e078b,Kobieta,18,2021-09-06_19h29.43.533,rantool2,2021.1.4,Win32,60.0240096,6135e006383e6ea6c3d06a28,61364e5590fdc78383961807,"[""comma""]",0,[0.2839999999999918],53,0,53,0,1
,,,,,,,61323841c9efa7918f8e078b,,,,,,61323841c9efa7918f8e078b,Kobieta,18,2021-09-06_19h29.43.533,rantool2,2021.1.4,Win32,60.0240096,6135e006383e6ea6c3d06a28,61364e5590fdc78383961807,"[""comma""]",0,[0.26900000000000546],54,0,54,0,1
,,,,,,,61323841c9efa7918f8e078b,,,,,,61323841c9efa7918f8e078b,Kobieta,18,2021-09-06_19h29.43.533,rantool2,2021.1.4,Win32,60.0240096,6135e006383e6ea6c3d06a28,61364e5590fdc78383961807,"[""period""]",0,[0.2680000000000291],55,0,55,0,1
,,,,,,,61323841c9efa7918f8e078b,,,,,,61323841c9efa7918f8e078b,Kobieta,18,2021-09-06_19h29.43.533,rantool2,2021.1.4,Win32,60.0240096,6135e006383e6ea6c3d06a28,61364e5590fdc78383961807,"[""period""]",0,[0.25200000000000955],56,0,56,0,1
,,,,,,,61323841c9efa7918f8e078b,,,,,,61323841c9efa7918f8e078b,Kobieta,18,2021-09-06_19h29.43.533,rantool2,2021.1.4,Win32,60.0240096,6135e006383e6ea6c3d06a28,61364e5590fdc78383961807,"[""period""]",0,[0.2880000000000109],57,0,57,0,1
,,,,,,,61323841c9efa7918f8e078b,,,,,,61323841c9efa7918f8e078b,Kobieta,18,2021-09-06_19h29.43.533,rantool2,2021.1.4,Win32,60.0240096,6135e006383e6ea6c3d06a28,61364e5590fdc78383961807,"[""period""]",0,[0.30299999999999727],58,0,58,0,1
,,,,,,,61323841c9efa7918f8e078b,,,,,,61323841c9efa7918f8e078b,Kobieta,18,2021-09-06_19h29.43.533,rantool2,2021.1.4,Win32,60.0240096,6135e006383e6ea6c3d06a28,61364e5590fdc78383961807,"[""comma""]",0,[0.3019999999999641],59,0,59,0,1
,,,,,,,61323841c9efa7918f8e078b,,,,,,61323841c9efa7918f8e078b,Kobieta,18,2021-09-06_19h29.43.533,rantool2,2021.1.4,Win32,60.0240096,6135e006383e6ea6c3d06a28,61364e5590fdc78383961807,"[""comma""]",0,[0.285000000000025],60,0,60,0,1
,,,,,,,61323841c9efa7918f8e078b,,,,,,61323841c9efa7918f8e078b,Kobieta,18,2021-09-06_19h29.43.533,rantool2,2021.1.4,Win32,60.0240096,6135e006383e6ea6c3d06a28,61364e5590fdc78383961807,"[""comma""]",0,[0.31899999999996],61,0,61,0,1
,,,,,,,61323841c9efa7918f8e078b,,,,,,61323841c9efa7918f8e078b,Kobieta,18,2021-09-06_19h29.43.533,rantool2,2021.1.4,Win32,60.0240096,6135e006383e6ea6c3d06a28,61364e5590fdc78383961807,"[""period""]",0,[0.28600000000000136],62,0,62,0,1
,,,,,,,61323841c9efa7918f8e078b,,,,,,61323841c9efa7918f8e078b,Kobieta,18,2021-09-06_19h29.43.533,rantool2,2021.1.4,Win32,60.0240096,6135e006383e6ea6c3d06a28,61364e5590fdc78383961807,"[""period""]",0,[0.3369999999999891],63,0,63,0,1
,,,,,,,61323841c9efa7918f8e078b,,,,,,61323841c9efa7918f8e078b,Kobieta,18,2021-09-06_19h29.43.533,rantool2,2021.1.4,Win32,60.0240096,6135e006383e6ea6c3d06a28,61364e5590fdc78383961807,"[""comma""]",0,[0.22100000000000364],64,0,64,0,1
,,,,,,,61323841c9efa7918f8e078b,,,,,,61323841c9efa7918f8e078b,Kobieta,18,2021-09-06_19h29.43.533,rantool2,2021.1.4,Win32,60.0240096,6135e006383e6ea6c3d06a28,61364e5590fdc78383961807,"[""comma""]",0,[0.15399999999999636],65,0,65,0,1
,,,,,,,61323841c9efa7918f8e078b,,,,,,61323841c9efa7918f8e078b,Kobieta,18,2021-09-06_19h29.43.533,rantool2,2021.1.4,Win32,60.0240096,6135e006383e6ea6c3d06a28,61364e5590fdc78383961807,"[""comma""]",0,[0.2880000000000109],66,0,66,0,1
,,,,,,,61323841c9efa7918f8e078b,,,,,,61323841c9efa7918f8e078b,Kobieta,18,2021-09-06_19h29.43.533,rantool2,2021.1.4,Win32,60.0240096,6135e006383e6ea6c3d06a28,61364e5590fdc78383961807,"[""period""]",0,[0.29899999999997817],67,0,67,0,1
,,,,,,,61323841c9efa7918f8e078b,,,,,,61323841c9efa7918f8e078b,Kobieta,18,2021-09-06_19h29.43.533,rantool2,2021.1.4,Win32,60.0240096,6135e006383e6ea6c3d06a28,61364e5590fdc78383961807,"[""comma""]",0,[0.285000000000025],68,0,68,0,1
,,,,,,,61323841c9efa7918f8e078b,,,,,,61323841c9efa7918f8e078b,Kobieta,18,2021-09-06_19h29.43.533,rantool2,2021.1.4,Win32,60.0240096,6135e006383e6ea6c3d06a28,61364e5590fdc78383961807,"[""comma""]",0,[0.28799999999995407],69,0,69,0,1
,,,,,,,61323841c9efa7918f8e078b,,,,,,61323841c9efa7918f8e078b,Kobieta,18,2021-09-06_19h29.43.533,rantool2,2021.1.4,Win32,60.0240096,6135e006383e6ea6c3d06a28,61364e5590fdc78383961807,"[""period""]",0,[0.26900000000000546],70,0,70,0,1
,,,,,,,61323841c9efa7918f8e078b,,,,,,61323841c9efa7918f8e078b,Kobieta,18,2021-09-06_19h29.43.533,rantool2,2021.1.4,Win32,60.0240096,6135e006383e6ea6c3d06a28,61364e5590fdc78383961807,"[""period""]",0,[0.3210000000000264],71,0,71,0,1
,,,,,,,61323841c9efa7918f8e078b,,,,,,61323841c9efa7918f8e078b,Kobieta,18,2021-09-06_19h29.43.533,rantool2,2021.1.4,Win32,60.0240096,6135e006383e6ea6c3d06a28,61364e5590fdc78383961807,"[""period""]",0,[0.32200000000000273],72,0,72,0,1
,,,,,,,61323841c9efa7918f8e078b,,,,,,61323841c9efa7918f8e078b,Kobieta,18,2021-09-06_19h29.43.533,rantool2,2021.1.4,Win32,60.0240096,6135e006383e6ea6c3d06a28,61364e5590fdc78383961807,"[""comma""]",0,[0.2890000000000441],73,0,73,0,1
,,,,,,,61323841c9efa7918f8e078b,,,,,,61323841c9efa7918f8e078b,Kobieta,18,2021-09-06_19h29.43.533,rantool2,2021.1.4,Win32,60.0240096,6135e006383e6ea6c3d06a28,61364e5590fdc78383961807,"[""comma""]",0,[0.29000000000002046],74,0,74,0,1
,,,,,,,61323841c9efa7918f8e078b,,,,,,61323841c9efa7918f8e078b,Kobieta,18,2021-09-06_19h29.43.533,rantool2,2021.1.4,Win32,60.0240096,6135e006383e6ea6c3d06a28,61364e5590fdc78383961807,"[""period""]",0,[0.27300000000002456],75,0,75,0,1
,,,,,,,61323841c9efa7918f8e078b,,,,,,61323841c9efa7918f8e078b,Kobieta,18,2021-09-06_19h29.43.533,rantool2,2021.1.4,Win32,60.0240096,6135e006383e6ea6c3d06a28,61364e5590fdc78383961807,"[""period""]",0,[0.17199999999996862],76,0,76,0,1
,,,,,,,61323841c9efa7918f8e078b,,,,,,61323841c9efa7918f8e078b,Kobieta,18,2021-09-06_19h29.43.533,rantool2,2021.1.4,Win32,60.0240096,6135e006383e6ea6c3d06a28,61364e5590fdc78383961807,"[""comma""]",0,[0.20300000000003138],77,0,77,0,1
,,,,,,,61323841c9efa7918f8e078b,,,,,,61323841c9efa7918f8e078b,Kobieta,18,2021-09-06_19h29.43.533,rantool2,2021.1.4,Win32,60.0240096,6135e006383e6ea6c3d06a28,61364e5590fdc78383961807,"[""comma""]",0,[0.23599999999999],78,0,78,0,1
,,,,,,,61323841c9efa7918f8e078b,,,,,,61323841c9efa7918f8e078b,Kobieta,18,2021-09-06_19h29.43.533,rantool2,2021.1.4,Win32,60.0240096,6135e006383e6ea6c3d06a28,61364e5590fdc78383961807,"[""period""]",0,[0.24200000000001864],79,0,79,0,1
,,,,,,,61323841c9efa7918f8e078b,,,,,,61323841c9efa7918f8e078b,Kobieta,18,2021-09-06_19h29.43.533,rantool2,2021.1.4,Win32,60.0240096,6135e006383e6ea6c3d06a28,61364e5590fdc78383961807,"[""comma""]",0,[0.10400000000004184],80,0,80,0,1
,,,,,,,61323841c9efa7918f8e078b,,,,,,61323841c9efa7918f8e078b,Kobieta,18,2021-09-06_19h29.43.533,rantool2,2021.1.4,Win32,60.0240096,6135e006383e6ea6c3d06a28,61364e5590fdc78383961807,"[""period""]",0,[0.031999999999982265],81,0,81,0,1
,,,,,,,61323841c9efa7918f8e078b,,,,,,61323841c9efa7918f8e078b,Kobieta,18,2021-09-06_19h29.43.533,rantool2,2021.1.4,Win32,60.0240096,6135e006383e6ea6c3d06a28,61364e5590fdc78383961807,"[""comma""]",0,[0.30400000000003047],82,0,82,0,1
,,,,,,,61323841c9efa7918f8e078b,,,,,,61323841c9efa7918f8e078b,Kobieta,18,2021-09-06_19h29.43.533,rantool2,2021.1.4,Win32,60.0240096,6135e006383e6ea6c3d06a28,61364e5590fdc78383961807,"[""period""]",0,[0.3019999999999641],83,0,83,0,1
,,,,,,,61323841c9efa7918f8e078b,,,,,,61323841c9efa7918f8e078b,Kobieta,18,2021-09-06_19h29.43.533,rantool2,2021.1.4,Win32,60.0240096,6135e006383e6ea6c3d06a28,61364e5590fdc78383961807,"[""period""]",0,[0.2529999999999859],84,0,84,0,1
,,,,,,,61323841c9efa7918f8e078b,,,,,,61323841c9efa7918f8e078b,Kobieta,18,2021-09-06_19h29.43.533,rantool2,2021.1.4,Win32,60.0240096,6135e006383e6ea6c3d06a28,61364e5590fdc78383961807,"[""comma""]",0,[0.30400000000003047],85,0,85,0,1
,,,,,,,61323841c9efa7918f8e078b,,,,,,61323841c9efa7918f8e078b,Kobieta,18,2021-09-06_19h29.43.533,rantool2,2021.1.4,Win32,60.0240096,6135e006383e6ea6c3d06a28,61364e5590fdc78383961807,"[""comma""]",0,[0.2699999999999818],86,0,86,0,1
,,,,,,,61323841c9efa7918f8e078b,,,,,,61323841c9efa7918f8e078b,Kobieta,18,2021-09-06_19h29.43.533,rantool2,2021.1.4,Win32,60.0240096,6135e006383e6ea6c3d06a28,61364e5590fdc78383961807,"[""comma""]",0,[0.285000000000025],87,0,87,0,1
,,,,,,,61323841c9efa7918f8e078b,,,,,,61323841c9efa7918f8e078b,Kobieta,18,2021-09-06_19h29.43.533,rantool2,2021.1.4,Win32,60.0240096,6135e006383e6ea6c3d06a28,61364e5590fdc78383961807,"[""period""]",0,[0.3190000000000168],88,0,88,0,1
,,,,,,,61323841c9efa7918f8e078b,,,,,,61323841c9efa7918f8e078b,Kobieta,18,2021-09-06_19h29.43.533,rantool2,2021.1.4,Win32,60.0240096,6135e006383e6ea6c3d06a28,61364e5590fdc78383961807,"[""period""]",0,[0.06999999999999318],89,0,89,0,1
,,,,,,,61323841c9efa7918f8e078b,,,,,,61323841c9efa7918f8e078b,Kobieta,18,2021-09-06_19h29.43.533,rantool2,2021.1.4,Win32,60.0240096,6135e006383e6ea6c3d06a28,61364e5590fdc78383961807,"[""period""]",0,[0.26900000000000546],90,0,90,0,1
,,,,,,,61323841c9efa7918f8e078b,,,,,,61323841c9efa7918f8e078b,Kobieta,18,2021-09-06_19h29.43.533,rantool2,2021.1.4,Win32,60.0240096,6135e006383e6ea6c3d06a28,61364e5590fdc78383961807,"[""period""]",0,[0.3039999999999736],91,0,91,0,1
,,,,,,,61323841c9efa7918f8e078b,,,,,,61323841c9efa7918f8e078b,Kobieta,18,2021-09-06_19h29.43.533,rantool2,2021.1.4,Win32,60.0240096,6135e006383e6ea6c3d06a28,61364e5590fdc78383961807,"[""comma""]",0,[0.30299999999999727],92,0,92,0,1
,,,,,,,61323841c9efa7918f8e078b,,,,,,61323841c9efa7918f8e078b,Kobieta,18,2021-09-06_19h29.43.533,rantool2,2021.1.4,Win32,60.0240096,6135e006383e6ea6c3d06a28,61364e5590fdc78383961807,"[""comma""]",0,[0.23599999999999],93,0,93,0,1
,,,,,,,61323841c9efa7918f8e078b,,,,,,61323841c9efa7918f8e078b,Kobieta,18,2021-09-06_19h29.43.533,rantool2,2021.1.4,Win32,60.0240096,6135e006383e6ea6c3d06a28,61364e5590fdc78383961807,"[""comma""]",0,[0.26900000000000546],94,0,94,0,1
,,,,,,,61323841c9efa7918f8e078b,,,,,,61323841c9efa7918f8e078b,Kobieta,18,2021-09-06_19h29.43.533,rantool2,2021.1.4,Win32,60.0240096,6135e006383e6ea6c3d06a28,61364e5590fdc78383961807,"[""comma""]",0,[0.3020000000000209],95,0,95,0,1
,,,,,,,61323841c9efa7918f8e078b,,,,,,61323841c9efa7918f8e078b,Kobieta,18,2021-09-06_19h29.43.533,rantool2,2021.1.4,Win32,60.0240096,6135e006383e6ea6c3d06a28,61364e5590fdc78383961807,"[""comma""]",0,[0.2939999999999827],96,0,96,0,1
,,,,,,,61323841c9efa7918f8e078b,,,,,,61323841c9efa7918f8e078b,Kobieta,18,2021-09-06_19h29.43.533,rantool2,2021.1.4,Win32,60.0240096,6135e006383e6ea6c3d06a28,61364e5590fdc78383961807,"[""period""]",0,[0.3199999999999932],97,0,97,0,1
,,,,,,,61323841c9efa7918f8e078b,,,,,,61323841c9efa7918f8e078b,Kobieta,18,2021-09-06_19h29.43.533,rantool2,2021.1.4,Win32,60.0240096,6135e006383e6ea6c3d06a28,61364e5590fdc78383961807,"[""comma""]",0,[0.2880000000000109],98,0,98,0,1
,,,,,,,61323841c9efa7918f8e078b,,,,,,61323841c9efa7918f8e078b,Kobieta,18,2021-09-06_19h29.43.533,rantool2,2021.1.4,Win32,60.0240096,6135e006383e6ea6c3d06a28,61364e5590fdc78383961807,"[""period""]",0,[0.25200000000000955],99,0,99,0,1
,,,,,,,61323841c9efa7918f8e078b,,,,,,61323841c9efa7918f8e078b,Kobieta,18,2021-09-06_19h29.43.533,rantool2,2021.1.4,Win32,60.0240096,6135e006383e6ea6c3d06a28,61364e5590fdc78383961807,"[""comma""]",0,[0.07100000000002638],100,0,100,0,1
,,,,,,,61323841c9efa7918f8e078b,,,,,,61323841c9efa7918f8e078b,Kobieta,18,2021-09-06_19h29.43.533,rantool2,2021.1.4,Win32,60.0240096,6135e006383e6ea6c3d06a28,61364e5590fdc78383961807,"[""comma""]",0,[0.08600000000001273],101,0,101,0,1
,,,,,,,61323841c9efa7918f8e078b,,,,,,61323841c9efa7918f8e078b,Kobieta,18,2021-09-06_19h29.43.533,rantool2,2021.1.4,Win32,60.0240096,6135e006383e6ea6c3d06a28,61364e5590fdc78383961807,"[""period""]",0,[0.08900000000005548],102,0,102,0,1
,,,,,,,61323841c9efa7918f8e078b,,,,,,61323841c9efa7918f8e078b,Kobieta,18,2021-09-06_19h29.43.533,rantool2,2021.1.4,Win32,60.0240096,6135e006383e6ea6c3d06a28,61364e5590fdc78383961807,"[""comma""]",0,[0.28899999999998727],103,0,103,0,1
,,,,,,,61323841c9efa7918f8e078b,,,,,,61323841c9efa7918f8e078b,Kobieta,18,2021-09-06_19h29.43.533,rantool2,2021.1.4,Win32,60.0240096,6135e006383e6ea6c3d06a28,61364e5590fdc78383961807,"[""period""]",0,[0.2700000000000955],104,0,104,0,1
,,,,,,,61323841c9efa7918f8e078b,,,,,,61323841c9efa7918f8e078b,Kobieta,18,2021-09-06_19h29.43.533,rantool2,2021.1.4,Win32,60.0240096,6135e006383e6ea6c3d06a28,61364e5590fdc78383961807,"[""period""]",0,[0.3079999999999927],105,0,105,0,1
,,,,,,,61323841c9efa7918f8e078b,,,,,,61323841c9efa7918f8e078b,Kobieta,18,2021-09-06_19h29.43.533,rantool2,2021.1.4,Win32,60.0240096,6135e006383e6ea6c3d06a28,61364e5590fdc78383961807,"[""period""]",0,[0.2880000000000109],106,0,106,0,1
,,,,,,,61323841c9efa7918f8e078b,,,,,,61323841c9efa7918f8e078b,Kobieta,18,2021-09-06_19h29.43.533,rantool2,2021.1.4,Win32,60.0240096,6135e006383e6ea6c3d06a28,61364e5590fdc78383961807,"[""comma""]",0,[0.2980000000000018],107,0,107,0,1
,,,,,,,61323841c9efa7918f8e078b,,,,,,61323841c9efa7918f8e078b,Kobieta,18,2021-09-06_19h29.43.533,rantool2,2021.1.4,Win32,60.0240096,6135e006383e6ea6c3d06a28,61364e5590fdc78383961807,"[""period""]",0,[0.38900000000001],108,0,108,0,1
,,,,,,,61323841c9efa7918f8e078b,,,,,,61323841c9efa7918f8e078b,Kobieta,18,2021-09-06_19h29.43.533,rantool2,2021.1.4,Win32,60.0240096,6135e006383e6ea6c3d06a28,61364e5590fdc78383961807,"[""period""]",0,[0.28899999999998727],109,0,109,0,1
,,,,,,,61323841c9efa7918f8e078b,,,,,,61323841c9efa7918f8e078b,Kobieta,18,2021-09-06_19h29.43.533,rantool2,2021.1.4,Win32,60.0240096,6135e006383e6ea6c3d06a28,61364e5590fdc78383961807,"[""period""]",0,[0.25300000000004275],110,0,110,0,1
,,,,,,,61323841c9efa7918f8e078b,,,,,,61323841c9efa7918f8e078b,Kobieta,18,2021-09-06_19h29.43.533,rantool2,2021.1.4,Win32,60.0240096,6135e006383e6ea6c3d06a28,61364e5590fdc78383961807,"[""comma""]",0,[0.28700000000003456],111,0,111,0,1
,,,,,,,61323841c9efa7918f8e078b,,,,,,61323841c9efa7918f8e078b,Kobieta,18,2021-09-06_19h29.43.533,rantool2,2021.1.4,Win32,60.0240096,6135e006383e6ea6c3d06a28,61364e5590fdc78383961807,"[""period""]",0,[0.2540000000000191],112,0,112,0,1
,,,,,,,61323841c9efa7918f8e078b,,,,,,61323841c9efa7918f8e078b,Kobieta,18,2021-09-06_19h29.43.533,rantool2,2021.1.4,Win32,60.0240096,6135e006383e6ea6c3d06a28,61364e5590fdc78383961807,"[""period""]",0,[0.31899999999996],113,0,113,0,1
,,,,,,,61323841c9efa7918f8e078b,,,,,,61323841c9efa7918f8e078b,Kobieta,18,2021-09-06_19h29.43.533,rantool2,2021.1.4,Win32,60.0240096,6135e006383e6ea6c3d06a28,61364e5590fdc78383961807,"[""comma""]",0,[0.27099999999995816],114,0,114,0,1
,,,,,,,61323841c9efa7918f8e078b,,,,,,61323841c9efa7918f8e078b,Kobieta,18,2021-09-06_19h29.43.533,rantool2,2021.1.4,Win32,60.0240096,6135e006383e6ea6c3d06a28,61364e5590fdc78383961807,"[""comma""]",0,[0.2520000000000664],115,0,115,0,1
,,,,,,,61323841c9efa7918f8e078b,,,,,,61323841c9efa7918f8e078b,Kobieta,18,2021-09-06_19h29.43.533,rantool2,2021.1.4,Win32,60.0240096,6135e006383e6ea6c3d06a28,61364e5590fdc78383961807,"[""comma""]",0,[0.31900000000007367],116,0,116,0,1
,,,,,,,61323841c9efa7918f8e078b,,,,,,61323841c9efa7918f8e078b,Kobieta,18,2021-09-06_19h29.43.533,rantool2,2021.1.4,Win32,60.0240096,6135e006383e6ea6c3d06a28,61364e5590fdc78383961807,"[""period""]",0,[0.20500000000004093],117,0,117,0,1
,,,,,,,61323841c9efa7918f8e078b,,,,,,61323841c9efa7918f8e078b,Kobieta,18,2021-09-06_19h29.43.533,rantool2,2021.1.4,Win32,60.0240096,6135e006383e6ea6c3d06a28,61364e5590fdc78383961807,"[""period""]",0,[0.5070000000000618],118,0,118,0,1
,,,,,,,61323841c9efa7918f8e078b,,,,,,61323841c9efa7918f8e078b,Kobieta,18,2021-09-06_19h29.43.533,rantool2,2021.1.4,Win32,60.0240096,6135e006383e6ea6c3d06a28,61364e5590fdc78383961807,"[""comma""]",0,[0.35400000000004184],119,0,119,0,1
