key_resp_7.keys,key_resp_7.rt,trials_2.thisRepN,trials_2.thisTrialN,trials_2.thisN,trials_2.thisIndex,trials_2.ran,id,series_0,series_1,acss_0,acss_1,comparison,id*,Płeć*,Wiek*,date,expName,psychopyVersion,OS,frameRate,STUDY_ID,SESSION_ID,key_resp_5.keys,key_resp_5.corr,key_resp_5.rt,trials.thisRepN,trials.thisTrialN,trials.thisN,trials.thisIndex,trials.ran
f,2.2739,0,0,0,6,1,61057ef878bd36c2c0e5737b,OOORROO,OOORROR,21.12383932,21.38562617,series_1,61057ef878bd36c2c0e5737b,Kobieta,21,2021-09-06_19h00.16.902,rantool2,2021.1.4,Win32,60.14314067,6135e006383e6ea6c3d06a28,613648e66af6dae5800be57e,,,,,,,,
f,2.126,0,1,1,53,1,61057ef878bd36c2c0e5737b,RRORORO,RRORORR,20.71309134,21.90565814,series_1,61057ef878bd36c2c0e5737b,Kobieta,21,2021-09-06_19h00.16.902,rantool2,2021.1.4,Win32,60.14314067,6135e006383e6ea6c3d06a28,613648e66af6dae5800be57e,,,,,,,,
j,1.9819,0,2,2,55,1,61057ef878bd36c2c0e5737b,RRORRRO,RRORRRR,21.56657303,21.21223021,series_0,61057ef878bd36c2c0e5737b,Kobieta,21,2021-09-06_19h00.16.902,rantool2,2021.1.4,Win32,60.14314067,6135e006383e6ea6c3d06a28,613648e66af6dae5800be57e,,,,,,,,
j,2.3679,0,3,3,9,1,61057ef878bd36c2c0e5737b,OOROORO,OOROORR,21.07991943,22.2428857,series_1,61057ef878bd36c2c0e5737b,Kobieta,21,2021-09-06_19h00.16.902,rantool2,2021.1.4,Win32,60.14314067,6135e006383e6ea6c3d06a28,613648e66af6dae5800be57e,,,,,,,,
j,2.0664,0,4,4,54,1,61057ef878bd36c2c0e5737b,RRORROO,RRORROR,21.55250791,20.9984461,series_0,61057ef878bd36c2c0e5737b,Kobieta,21,2021-09-06_19h00.16.902,rantool2,2021.1.4,Win32,60.14314067,6135e006383e6ea6c3d06a28,613648e66af6dae5800be57e,,,,,,,,
f,1.8837,0,5,5,36,1,61057ef878bd36c2c0e5737b,ROOROOO,ROOROOR,21.07991943,20.9984461,series_0,61057ef878bd36c2c0e5737b,Kobieta,21,2021-09-06_19h00.16.902,rantool2,2021.1.4,Win32,60.14314067,6135e006383e6ea6c3d06a28,613648e66af6dae5800be57e,,,,,,,,
f,2.1156,0,6,6,59,1,61057ef878bd36c2c0e5737b,RRRORRO,RRRORRR,21.56657303,20.89823192,series_0,61057ef878bd36c2c0e5737b,Kobieta,21,2021-09-06_19h00.16.902,rantool2,2021.1.4,Win32,60.14314067,6135e006383e6ea6c3d06a28,613648e66af6dae5800be57e,,,,,,,,
f,2.1328,0,7,7,25,1,61057ef878bd36c2c0e5737b,ORROORO,ORROORR,21.79500819,22.61624387,series_1,61057ef878bd36c2c0e5737b,Kobieta,21,2021-09-06_19h00.16.902,rantool2,2021.1.4,Win32,60.14314067,6135e006383e6ea6c3d06a28,613648e66af6dae5800be57e,,,,,,,,
f,1.7348,0,8,8,63,1,61057ef878bd36c2c0e5737b,RRRRRRO,RRRRRRR,21.35278725,19.62521613,series_0,61057ef878bd36c2c0e5737b,Kobieta,21,2021-09-06_19h00.16.902,rantool2,2021.1.4,Win32,60.14314067,6135e006383e6ea6c3d06a28,613648e66af6dae5800be57e,,,,,,,,
f,2.0662,0,9,9,44,1,61057ef878bd36c2c0e5737b,RORROOO,RORROOR,21.66733484,22.02566557,series_1,61057ef878bd36c2c0e5737b,Kobieta,21,2021-09-06_19h00.16.902,rantool2,2021.1.4,Win32,60.14314067,6135e006383e6ea6c3d06a28,613648e66af6dae5800be57e,,,,,,,,
j,1.4099,0,10,10,42,1,61057ef878bd36c2c0e5737b,ROROROO,ROROROR,20.39515459,19.8361834,series_0,61057ef878bd36c2c0e5737b,Kobieta,21,2021-09-06_19h00.16.902,rantool2,2021.1.4,Win32,60.14314067,6135e006383e6ea6c3d06a28,613648e66af6dae5800be57e,,,,,,,,
j,1.6825,0,11,11,19,1,61057ef878bd36c2c0e5737b,OROORRO,OROORRR,21.73568164,22.11181017,series_1,61057ef878bd36c2c0e5737b,Kobieta,21,2021-09-06_19h00.16.902,rantool2,2021.1.4,Win32,60.14314067,6135e006383e6ea6c3d06a28,613648e66af6dae5800be57e,,,,,,,,
f,1.3999,0,12,12,56,1,61057ef878bd36c2c0e5737b,RRROOOO,RRROOOR,21.6194508,22.31681875,series_1,61057ef878bd36c2c0e5737b,Kobieta,21,2021-09-06_19h00.16.902,rantool2,2021.1.4,Win32,60.14314067,6135e006383e6ea6c3d06a28,613648e66af6dae5800be57e,,,,,,,,
j,1.5767,0,13,13,22,1,61057ef878bd36c2c0e5737b,ORORROO,ORORROR,22.02732763,21.57657071,series_0,61057ef878bd36c2c0e5737b,Kobieta,21,2021-09-06_19h00.16.902,rantool2,2021.1.4,Win32,60.14314067,6135e006383e6ea6c3d06a28,613648e66af6dae5800be57e,,,,,,,,
j,2.1269,0,14,14,20,1,61057ef878bd36c2c0e5737b,OROROOO,OROROOR,21.31236711,21.90565814,series_1,61057ef878bd36c2c0e5737b,Kobieta,21,2021-09-06_19h00.16.902,rantool2,2021.1.4,Win32,60.14314067,6135e006383e6ea6c3d06a28,613648e66af6dae5800be57e,,,,,,,,
f,1.8167,0,15,15,1,1,61057ef878bd36c2c0e5737b,OOOOORO,OOOOORR,19.92253567,20.74050628,series_1,61057ef878bd36c2c0e5737b,Kobieta,21,2021-09-06_19h00.16.902,rantool2,2021.1.4,Win32,60.14314067,6135e006383e6ea6c3d06a28,613648e66af6dae5800be57e,,,,,,,,
f,1.5332,0,16,16,18,1,61057ef878bd36c2c0e5737b,OROOROO,OROOROR,20.84860893,21.22513037,series_1,61057ef878bd36c2c0e5737b,Kobieta,21,2021-09-06_19h00.16.902,rantool2,2021.1.4,Win32,60.14314067,6135e006383e6ea6c3d06a28,613648e66af6dae5800be57e,,,,,,,,
f,1.3887,0,17,17,58,1,61057ef878bd36c2c0e5737b,RRROROO,RRROROR,22.1285618,21.37121559,series_0,61057ef878bd36c2c0e5737b,Kobieta,21,2021-09-06_19h00.16.902,rantool2,2021.1.4,Win32,60.14314067,6135e006383e6ea6c3d06a28,613648e66af6dae5800be57e,,,,,,,,
j,1.2717,0,18,18,14,1,61057ef878bd36c2c0e5737b,OORRROO,OORRROR,22.24142883,22.16977179,series_0,61057ef878bd36c2c0e5737b,Kobieta,21,2021-09-06_19h00.16.902,rantool2,2021.1.4,Win32,60.14314067,6135e006383e6ea6c3d06a28,613648e66af6dae5800be57e,,,,,,,,
j,1.8326,0,19,19,27,1,61057ef878bd36c2c0e5737b,ORRORRO,ORRORRR,21.55250791,22.2428857,series_1,61057ef878bd36c2c0e5737b,Kobieta,21,2021-09-06_19h00.16.902,rantool2,2021.1.4,Win32,60.14314067,6135e006383e6ea6c3d06a28,613648e66af6dae5800be57e,,,,,,,,
j,1.8661,0,20,20,21,1,61057ef878bd36c2c0e5737b,ORORORO,ORORORR,20.39515459,22.06781359,series_1,61057ef878bd36c2c0e5737b,Kobieta,21,2021-09-06_19h00.16.902,rantool2,2021.1.4,Win32,60.14314067,6135e006383e6ea6c3d06a28,613648e66af6dae5800be57e,,,,,,,,
j,1.7241,0,21,21,23,1,61057ef878bd36c2c0e5737b,ORORRRO,ORORRRR,22.1285618,21.9921709,series_0,61057ef878bd36c2c0e5737b,Kobieta,21,2021-09-06_19h00.16.902,rantool2,2021.1.4,Win32,60.14314067,6135e006383e6ea6c3d06a28,613648e66af6dae5800be57e,,,,,,,,
f,1.869,0,22,22,51,1,61057ef878bd36c2c0e5737b,RROORRO,RROORRR,21.89852628,22.02786418,series_1,61057ef878bd36c2c0e5737b,Kobieta,21,2021-09-06_19h00.16.902,rantool2,2021.1.4,Win32,60.14314067,6135e006383e6ea6c3d06a28,613648e66af6dae5800be57e,,,,,,,,
f,1.6662,0,23,23,60,1,61057ef878bd36c2c0e5737b,RRRROOO,RRRROOR,22.10108823,22.15934078,series_1,61057ef878bd36c2c0e5737b,Kobieta,21,2021-09-06_19h00.16.902,rantool2,2021.1.4,Win32,60.14314067,6135e006383e6ea6c3d06a28,613648e66af6dae5800be57e,,,,,,,,
f,1.928,0,24,24,2,1,61057ef878bd36c2c0e5737b,OOOOROO,OOOOROR,20.43051175,21.02936224,series_1,61057ef878bd36c2c0e5737b,Kobieta,21,2021-09-06_19h00.16.902,rantool2,2021.1.4,Win32,60.14314067,6135e006383e6ea6c3d06a28,613648e66af6dae5800be57e,,,,,,,,
j,1.2164,0,25,25,13,1,61057ef878bd36c2c0e5737b,OORRORO,OORRORR,21.66733484,22.11181017,series_1,61057ef878bd36c2c0e5737b,Kobieta,21,2021-09-06_19h00.16.902,rantool2,2021.1.4,Win32,60.14314067,6135e006383e6ea6c3d06a28,613648e66af6dae5800be57e,,,,,,,,
f,1.5491,0,26,26,35,1,61057ef878bd36c2c0e5737b,ROOORRO,ROOORRR,21.76276513,22.16977179,series_1,61057ef878bd36c2c0e5737b,Kobieta,21,2021-09-06_19h00.16.902,rantool2,2021.1.4,Win32,60.14314067,6135e006383e6ea6c3d06a28,613648e66af6dae5800be57e,,,,,,,,
j,1.3988,0,27,27,47,1,61057ef878bd36c2c0e5737b,RORRRRO,RORRRRR,21.81333602,21.02936224,series_0,61057ef878bd36c2c0e5737b,Kobieta,21,2021-09-06_19h00.16.902,rantool2,2021.1.4,Win32,60.14314067,6135e006383e6ea6c3d06a28,613648e66af6dae5800be57e,,,,,,,,
j,1.5337,0,28,28,37,1,61057ef878bd36c2c0e5737b,ROORORO,ROORORR,20.42602454,21.57657071,series_1,61057ef878bd36c2c0e5737b,Kobieta,21,2021-09-06_19h00.16.902,rantool2,2021.1.4,Win32,60.14314067,6135e006383e6ea6c3d06a28,613648e66af6dae5800be57e,,,,,,,,
j,1.8447,0,29,29,8,1,61057ef878bd36c2c0e5737b,OOROOOO,OOROOOR,19.91402015,20.89823192,series_1,61057ef878bd36c2c0e5737b,Kobieta,21,2021-09-06_19h00.16.902,rantool2,2021.1.4,Win32,60.14314067,6135e006383e6ea6c3d06a28,613648e66af6dae5800be57e,,,,,,,,
j,2.499,0,30,30,10,1,61057ef878bd36c2c0e5737b,OOROROO,OOROROR,21.31236711,21.07490964,series_0,61057ef878bd36c2c0e5737b,Kobieta,21,2021-09-06_19h00.16.902,rantool2,2021.1.4,Win32,60.14314067,6135e006383e6ea6c3d06a28,613648e66af6dae5800be57e,,,,,,,,
j,2.3161,0,31,31,7,1,61057ef878bd36c2c0e5737b,OOORRRO,OOORRRR,21.6194508,21.899017,series_1,61057ef878bd36c2c0e5737b,Kobieta,21,2021-09-06_19h00.16.902,rantool2,2021.1.4,Win32,60.14314067,6135e006383e6ea6c3d06a28,613648e66af6dae5800be57e,,,,,,,,
f,2.6063,0,32,32,49,1,61057ef878bd36c2c0e5737b,RROOORO,RROOORR,21.76276513,22.53364006,series_1,61057ef878bd36c2c0e5737b,Kobieta,21,2021-09-06_19h00.16.902,rantool2,2021.1.4,Win32,60.14314067,6135e006383e6ea6c3d06a28,613648e66af6dae5800be57e,,,,,,,,
f,2.298,0,33,33,62,1,61057ef878bd36c2c0e5737b,RRRRROO,RRRRROR,22.16413392,21.27974287,series_0,61057ef878bd36c2c0e5737b,Kobieta,21,2021-09-06_19h00.16.902,rantool2,2021.1.4,Win32,60.14314067,6135e006383e6ea6c3d06a28,613648e66af6dae5800be57e,,,,,,,,
f,1.8368,0,34,34,40,1,61057ef878bd36c2c0e5737b,ROROOOO,ROROOOR,20.87963819,21.37121559,series_1,61057ef878bd36c2c0e5737b,Kobieta,21,2021-09-06_19h00.16.902,rantool2,2021.1.4,Win32,60.14314067,6135e006383e6ea6c3d06a28,613648e66af6dae5800be57e,,,,,,,,
f,1.5859,0,35,35,39,1,61057ef878bd36c2c0e5737b,ROORRRO,ROORRRR,21.82425538,21.38562617,series_0,61057ef878bd36c2c0e5737b,Kobieta,21,2021-09-06_19h00.16.902,rantool2,2021.1.4,Win32,60.14314067,6135e006383e6ea6c3d06a28,613648e66af6dae5800be57e,,,,,,,,
j,1.2839,0,36,36,30,1,61057ef878bd36c2c0e5737b,ORRRROO,ORRRROR,22.46748491,22.03072203,series_0,61057ef878bd36c2c0e5737b,Kobieta,21,2021-09-06_19h00.16.902,rantool2,2021.1.4,Win32,60.14314067,6135e006383e6ea6c3d06a28,613648e66af6dae5800be57e,,,,,,,,
f,1.2914,0,37,37,5,1,61057ef878bd36c2c0e5737b,OOORORO,OOORORR,20.87963819,21.9921709,series_1,61057ef878bd36c2c0e5737b,Kobieta,21,2021-09-06_19h00.16.902,rantool2,2021.1.4,Win32,60.14314067,6135e006383e6ea6c3d06a28,613648e66af6dae5800be57e,,,,,,,,
j,1.4167,0,38,38,45,1,61057ef878bd36c2c0e5737b,RORRORO,RORRORR,20.78182524,21.22513037,series_1,61057ef878bd36c2c0e5737b,Kobieta,21,2021-09-06_19h00.16.902,rantool2,2021.1.4,Win32,60.14314067,6135e006383e6ea6c3d06a28,613648e66af6dae5800be57e,,,,,,,,
j,1.1736,0,39,39,34,1,61057ef878bd36c2c0e5737b,ROOOROO,ROOOROR,21.03750787,21.24781509,series_1,61057ef878bd36c2c0e5737b,Kobieta,21,2021-09-06_19h00.16.902,rantool2,2021.1.4,Win32,60.14314067,6135e006383e6ea6c3d06a28,613648e66af6dae5800be57e,,,,,,,,
j,1.2166,0,40,40,3,1,61057ef878bd36c2c0e5737b,OOOORRO,OOOORRR,20.90986523,21.74922619,series_1,61057ef878bd36c2c0e5737b,Kobieta,21,2021-09-06_19h00.16.902,rantool2,2021.1.4,Win32,60.14314067,6135e006383e6ea6c3d06a28,613648e66af6dae5800be57e,,,,,,,,
j,1.3489,0,41,41,11,1,61057ef878bd36c2c0e5737b,OORORRO,OORORRR,22.18365867,22.6797523,series_1,61057ef878bd36c2c0e5737b,Kobieta,21,2021-09-06_19h00.16.902,rantool2,2021.1.4,Win32,60.14314067,6135e006383e6ea6c3d06a28,613648e66af6dae5800be57e,,,,,,,,
f,1.0002,0,42,42,24,1,61057ef878bd36c2c0e5737b,ORROOOO,ORROOOR,21.12383932,22.07102821,series_1,61057ef878bd36c2c0e5737b,Kobieta,21,2021-09-06_19h00.16.902,rantool2,2021.1.4,Win32,60.14314067,6135e006383e6ea6c3d06a28,613648e66af6dae5800be57e,,,,,,,,
f,1.1265,0,43,43,17,1,61057ef878bd36c2c0e5737b,OROOORO,OROOORR,21.03750787,22.12173012,series_1,61057ef878bd36c2c0e5737b,Kobieta,21,2021-09-06_19h00.16.902,rantool2,2021.1.4,Win32,60.14314067,6135e006383e6ea6c3d06a28,613648e66af6dae5800be57e,,,,,,,,
f,1.4402,0,44,44,38,1,61057ef878bd36c2c0e5737b,ROORROO,ROORROR,21.79500819,21.36812781,series_0,61057ef878bd36c2c0e5737b,Kobieta,21,2021-09-06_19h00.16.902,rantool2,2021.1.4,Win32,60.14314067,6135e006383e6ea6c3d06a28,613648e66af6dae5800be57e,,,,,,,,
f,1.1735,0,45,45,57,1,61057ef878bd36c2c0e5737b,RRROORO,RRROORR,21.82425538,22.07102821,series_1,61057ef878bd36c2c0e5737b,Kobieta,21,2021-09-06_19h00.16.902,rantool2,2021.1.4,Win32,60.14314067,6135e006383e6ea6c3d06a28,613648e66af6dae5800be57e,,,,,,,,
f,1.4909,0,46,46,4,1,61057ef878bd36c2c0e5737b,OOOROOO,OOOROOR,19.91402015,21.21223021,series_1,61057ef878bd36c2c0e5737b,Kobieta,21,2021-09-06_19h00.16.902,rantool2,2021.1.4,Win32,60.14314067,6135e006383e6ea6c3d06a28,613648e66af6dae5800be57e,,,,,,,,
j,1.0002,0,47,47,29,1,61057ef878bd36c2c0e5737b,ORRRORO,ORRRORR,22.00300695,22.12173012,series_1,61057ef878bd36c2c0e5737b,Kobieta,21,2021-09-06_19h00.16.902,rantool2,2021.1.4,Win32,60.14314067,6135e006383e6ea6c3d06a28,613648e66af6dae5800be57e,,,,,,,,
f,1.6724,0,48,48,61,1,61057ef878bd36c2c0e5737b,RRRRORO,RRRRORR,21.81333602,21.17347734,series_0,61057ef878bd36c2c0e5737b,Kobieta,21,2021-09-06_19h00.16.902,rantool2,2021.1.4,Win32,60.14314067,6135e006383e6ea6c3d06a28,613648e66af6dae5800be57e,,,,,,,,
j,1.1166,0,49,49,31,1,61057ef878bd36c2c0e5737b,ORRRRRO,ORRRRRR,22.16413392,20.74050628,series_0,61057ef878bd36c2c0e5737b,Kobieta,21,2021-09-06_19h00.16.902,rantool2,2021.1.4,Win32,60.14314067,6135e006383e6ea6c3d06a28,613648e66af6dae5800be57e,,,,,,,,
f,1.3664,0,50,50,46,1,61057ef878bd36c2c0e5737b,RORRROO,RORRROR,22.00300695,21.24781509,series_0,61057ef878bd36c2c0e5737b,Kobieta,21,2021-09-06_19h00.16.902,rantool2,2021.1.4,Win32,60.14314067,6135e006383e6ea6c3d06a28,613648e66af6dae5800be57e,,,,,,,,
j,1.7989,0,51,51,41,1,61057ef878bd36c2c0e5737b,ROROORO,ROROORR,20.42602454,21.71443381,series_1,61057ef878bd36c2c0e5737b,Kobieta,21,2021-09-06_19h00.16.902,rantool2,2021.1.4,Win32,60.14314067,6135e006383e6ea6c3d06a28,613648e66af6dae5800be57e,,,,,,,,
j,2.2655,0,52,52,28,1,61057ef878bd36c2c0e5737b,ORRROOO,ORRROOR,22.24142883,22.53364006,series_1,61057ef878bd36c2c0e5737b,Kobieta,21,2021-09-06_19h00.16.902,rantool2,2021.1.4,Win32,60.14314067,6135e006383e6ea6c3d06a28,613648e66af6dae5800be57e,,,,,,,,
j,1.3161,0,53,53,48,1,61057ef878bd36c2c0e5737b,RROOOOO,RROOOOR,20.90986523,22.15934078,series_1,61057ef878bd36c2c0e5737b,Kobieta,21,2021-09-06_19h00.16.902,rantool2,2021.1.4,Win32,60.14314067,6135e006383e6ea6c3d06a28,613648e66af6dae5800be57e,,,,,,,,
f,1.0494,0,54,54,32,1,61057ef878bd36c2c0e5737b,ROOOOOO,ROOOOOR,19.92253567,21.27974287,series_1,61057ef878bd36c2c0e5737b,Kobieta,21,2021-09-06_19h00.16.902,rantool2,2021.1.4,Win32,60.14314067,6135e006383e6ea6c3d06a28,613648e66af6dae5800be57e,,,,,,,,
f,2.6324,0,55,55,26,1,61057ef878bd36c2c0e5737b,ORROROO,ORROROR,22.02732763,21.71443381,series_0,61057ef878bd36c2c0e5737b,Kobieta,21,2021-09-06_19h00.16.902,rantool2,2021.1.4,Win32,60.14314067,6135e006383e6ea6c3d06a28,613648e66af6dae5800be57e,,,,,,,,
j,1.153,0,56,56,15,1,61057ef878bd36c2c0e5737b,OORRRRO,OORRRRR,22.10108823,21.74922619,series_0,61057ef878bd36c2c0e5737b,Kobieta,21,2021-09-06_19h00.16.902,rantool2,2021.1.4,Win32,60.14314067,6135e006383e6ea6c3d06a28,613648e66af6dae5800be57e,,,,,,,,
j,1.2,0,57,57,16,1,61057ef878bd36c2c0e5737b,OROOOOO,OROOOOR,20.43051175,21.17347734,series_1,61057ef878bd36c2c0e5737b,Kobieta,21,2021-09-06_19h00.16.902,rantool2,2021.1.4,Win32,60.14314067,6135e006383e6ea6c3d06a28,613648e66af6dae5800be57e,,,,,,,,
j,2.1157,0,58,58,52,1,61057ef878bd36c2c0e5737b,RROROOO,RROROOR,22.18365867,22.11097995,series_0,61057ef878bd36c2c0e5737b,Kobieta,21,2021-09-06_19h00.16.902,rantool2,2021.1.4,Win32,60.14314067,6135e006383e6ea6c3d06a28,613648e66af6dae5800be57e,,,,,,,,
j,1.9653,0,59,59,12,1,61057ef878bd36c2c0e5737b,OORROOO,OORROOR,21.30250474,22.02786418,series_1,61057ef878bd36c2c0e5737b,Kobieta,21,2021-09-06_19h00.16.902,rantool2,2021.1.4,Win32,60.14314067,6135e006383e6ea6c3d06a28,613648e66af6dae5800be57e,,,,,,,,
j,1.4693,0,60,60,33,1,61057ef878bd36c2c0e5737b,ROOOORO,ROOOORR,20.83779602,22.03072203,series_1,61057ef878bd36c2c0e5737b,Kobieta,21,2021-09-06_19h00.16.902,rantool2,2021.1.4,Win32,60.14314067,6135e006383e6ea6c3d06a28,613648e66af6dae5800be57e,,,,,,,,
f,1.5589,0,61,61,50,1,61057ef878bd36c2c0e5737b,RROOROO,RROOROR,21.73568164,22.02566557,series_1,61057ef878bd36c2c0e5737b,Kobieta,21,2021-09-06_19h00.16.902,rantool2,2021.1.4,Win32,60.14314067,6135e006383e6ea6c3d06a28,613648e66af6dae5800be57e,,,,,,,,
f,1.8325,0,62,62,43,1,61057ef878bd36c2c0e5737b,RORORRO,RORORRR,20.71309134,21.07490964,series_1,61057ef878bd36c2c0e5737b,Kobieta,21,2021-09-06_19h00.16.902,rantool2,2021.1.4,Win32,60.14314067,6135e006383e6ea6c3d06a28,613648e66af6dae5800be57e,,,,,,,,
j,1.333,0,63,63,0,1,61057ef878bd36c2c0e5737b,OOOOOOO,OOOOOOR,18.52739004,19.62521613,series_1,61057ef878bd36c2c0e5737b,Kobieta,21,2021-09-06_19h00.16.902,rantool2,2021.1.4,Win32,60.14314067,6135e006383e6ea6c3d06a28,613648e66af6dae5800be57e,,,,,,,,
,,,,,,,61057ef878bd36c2c0e5737b,,,,,,61057ef878bd36c2c0e5737b,Kobieta,21,2021-09-06_19h00.16.902,rantool2,2021.1.4,Win32,60.14314067,6135e006383e6ea6c3d06a28,613648e66af6dae5800be57e,"[""comma""]",0,[1.6777000000477074],0,0,0,0,1
,,,,,,,61057ef878bd36c2c0e5737b,,,,,,61057ef878bd36c2c0e5737b,Kobieta,21,2021-09-06_19h00.16.902,rantool2,2021.1.4,Win32,60.14314067,6135e006383e6ea6c3d06a28,613648e66af6dae5800be57e,"[""period""]",0,[1.448500000000024],1,0,1,0,1
,,,,,,,61057ef878bd36c2c0e5737b,,,,,,61057ef878bd36c2c0e5737b,Kobieta,21,2021-09-06_19h00.16.902,rantool2,2021.1.4,Win32,60.14314067,6135e006383e6ea6c3d06a28,613648e66af6dae5800be57e,"[""period""]",0,[0.949299999952359],2,0,2,0,1
,,,,,,,61057ef878bd36c2c0e5737b,,,,,,61057ef878bd36c2c0e5737b,Kobieta,21,2021-09-06_19h00.16.902,rantool2,2021.1.4,Win32,60.14314067,6135e006383e6ea6c3d06a28,613648e66af6dae5800be57e,"[""comma""]",0,[0.33360000014300795],3,0,3,0,1
,,,,,,,61057ef878bd36c2c0e5737b,,,,,,61057ef878bd36c2c0e5737b,Kobieta,21,2021-09-06_19h00.16.902,rantool2,2021.1.4,Win32,60.14314067,6135e006383e6ea6c3d06a28,613648e66af6dae5800be57e,"[""comma""]",0,[0.7000999999046371],4,0,4,0,1
,,,,,,,61057ef878bd36c2c0e5737b,,,,,,61057ef878bd36c2c0e5737b,Kobieta,21,2021-09-06_19h00.16.902,rantool2,2021.1.4,Win32,60.14314067,6135e006383e6ea6c3d06a28,613648e66af6dae5800be57e,"[""period""]",0,[0.550099999904603],5,0,5,0,1
,,,,,,,61057ef878bd36c2c0e5737b,,,,,,61057ef878bd36c2c0e5737b,Kobieta,21,2021-09-06_19h00.16.902,rantool2,2021.1.4,Win32,60.14314067,6135e006383e6ea6c3d06a28,613648e66af6dae5800be57e,"[""period""]",0,[0.550099999904603],6,0,6,0,1
,,,,,,,61057ef878bd36c2c0e5737b,,,,,,61057ef878bd36c2c0e5737b,Kobieta,21,2021-09-06_19h00.16.902,rantool2,2021.1.4,Win32,60.14314067,6135e006383e6ea6c3d06a28,613648e66af6dae5800be57e,"[""comma""]",0,[0.45040000009538517],7,0,7,0,1
,,,,,,,61057ef878bd36c2c0e5737b,,,,,,61057ef878bd36c2c0e5737b,Kobieta,21,2021-09-06_19h00.16.902,rantool2,2021.1.4,Win32,60.14314067,6135e006383e6ea6c3d06a28,613648e66af6dae5800be57e,"[""period""]",0,[0.4964999999999691],8,0,8,0,1
,,,,,,,61057ef878bd36c2c0e5737b,,,,,,61057ef878bd36c2c0e5737b,Kobieta,21,2021-09-06_19h00.16.902,rantool2,2021.1.4,Win32,60.14314067,6135e006383e6ea6c3d06a28,613648e66af6dae5800be57e,"[""comma""]",0,[0.6007000000477092],9,0,9,0,1
,,,,,,,61057ef878bd36c2c0e5737b,,,,,,61057ef878bd36c2c0e5737b,Kobieta,21,2021-09-06_19h00.16.902,rantool2,2021.1.4,Win32,60.14314067,6135e006383e6ea6c3d06a28,613648e66af6dae5800be57e,"[""period""]",0,[0.8834999999999695],10,0,10,0,1
,,,,,,,61057ef878bd36c2c0e5737b,,,,,,61057ef878bd36c2c0e5737b,Kobieta,21,2021-09-06_19h00.16.902,rantool2,2021.1.4,Win32,60.14314067,6135e006383e6ea6c3d06a28,613648e66af6dae5800be57e,"[""comma""]",0,[0.7997999999523131],11,0,11,0,1
,,,,,,,61057ef878bd36c2c0e5737b,,,,,,61057ef878bd36c2c0e5737b,Kobieta,21,2021-09-06_19h00.16.902,rantool2,2021.1.4,Win32,60.14314067,6135e006383e6ea6c3d06a28,613648e66af6dae5800be57e,"[""period""]",0,[0.3667999999523204],12,0,12,0,1
,,,,,,,61057ef878bd36c2c0e5737b,,,,,,61057ef878bd36c2c0e5737b,Kobieta,21,2021-09-06_19h00.16.902,rantool2,2021.1.4,Win32,60.14314067,6135e006383e6ea6c3d06a28,613648e66af6dae5800be57e,"[""period""]",0,[0.1500000000000341],13,0,13,0,1
,,,,,,,61057ef878bd36c2c0e5737b,,,,,,61057ef878bd36c2c0e5737b,Kobieta,21,2021-09-06_19h00.16.902,rantool2,2021.1.4,Win32,60.14314067,6135e006383e6ea6c3d06a28,613648e66af6dae5800be57e,"[""comma""]",0,[0.3011000001430375],14,0,14,0,1
,,,,,,,61057ef878bd36c2c0e5737b,,,,,,61057ef878bd36c2c0e5737b,Kobieta,21,2021-09-06_19h00.16.902,rantool2,2021.1.4,Win32,60.14314067,6135e006383e6ea6c3d06a28,613648e66af6dae5800be57e,"[""comma""]",0,[0.3003000001907026],15,0,15,0,1
,,,,,,,61057ef878bd36c2c0e5737b,,,,,,61057ef878bd36c2c0e5737b,Kobieta,21,2021-09-06_19h00.16.902,rantool2,2021.1.4,Win32,60.14314067,6135e006383e6ea6c3d06a28,613648e66af6dae5800be57e,"[""comma""]",0,[0.2762000000476519],16,0,16,0,1
,,,,,,,61057ef878bd36c2c0e5737b,,,,,,61057ef878bd36c2c0e5737b,Kobieta,21,2021-09-06_19h00.16.902,rantool2,2021.1.4,Win32,60.14314067,6135e006383e6ea6c3d06a28,613648e66af6dae5800be57e,"[""period""]",0,[0.5667000000477174],17,0,17,0,1
,,,,,,,61057ef878bd36c2c0e5737b,,,,,,61057ef878bd36c2c0e5737b,Kobieta,21,2021-09-06_19h00.16.902,rantool2,2021.1.4,Win32,60.14314067,6135e006383e6ea6c3d06a28,613648e66af6dae5800be57e,"[""period""]",0,[0.9002000000476755],18,0,18,0,1
,,,,,,,61057ef878bd36c2c0e5737b,,,,,,61057ef878bd36c2c0e5737b,Kobieta,21,2021-09-06_19h00.16.902,rantool2,2021.1.4,Win32,60.14314067,6135e006383e6ea6c3d06a28,613648e66af6dae5800be57e,"[""comma""]",0,[0.42929999995226353],19,0,19,0,1
,,,,,,,61057ef878bd36c2c0e5737b,,,,,,61057ef878bd36c2c0e5737b,Kobieta,21,2021-09-06_19h00.16.902,rantool2,2021.1.4,Win32,60.14314067,6135e006383e6ea6c3d06a28,613648e66af6dae5800be57e,"[""period""]",0,[0.27179999995234994],20,0,20,0,1
,,,,,,,61057ef878bd36c2c0e5737b,,,,,,61057ef878bd36c2c0e5737b,Kobieta,21,2021-09-06_19h00.16.902,rantool2,2021.1.4,Win32,60.14314067,6135e006383e6ea6c3d06a28,613648e66af6dae5800be57e,"[""comma""]",0,[0.2643999998569484],21,0,21,0,1
,,,,,,,61057ef878bd36c2c0e5737b,,,,,,61057ef878bd36c2c0e5737b,Kobieta,21,2021-09-06_19h00.16.902,rantool2,2021.1.4,Win32,60.14314067,6135e006383e6ea6c3d06a28,613648e66af6dae5800be57e,"[""comma""]",0,[0.4238999998569284],22,0,22,0,1
,,,,,,,61057ef878bd36c2c0e5737b,,,,,,61057ef878bd36c2c0e5737b,Kobieta,21,2021-09-06_19h00.16.902,rantool2,2021.1.4,Win32,60.14314067,6135e006383e6ea6c3d06a28,613648e66af6dae5800be57e,"[""period""]",0,[0.417600000143068],23,0,23,0,1
,,,,,,,61057ef878bd36c2c0e5737b,,,,,,61057ef878bd36c2c0e5737b,Kobieta,21,2021-09-06_19h00.16.902,rantool2,2021.1.4,Win32,60.14314067,6135e006383e6ea6c3d06a28,613648e66af6dae5800be57e,"[""comma""]",0,[0.3108999998569857],24,0,24,0,1
,,,,,,,61057ef878bd36c2c0e5737b,,,,,,61057ef878bd36c2c0e5737b,Kobieta,21,2021-09-06_19h00.16.902,rantool2,2021.1.4,Win32,60.14314067,6135e006383e6ea6c3d06a28,613648e66af6dae5800be57e,"[""period""]",0,[0.3281999998092715],25,0,25,0,1
,,,,,,,61057ef878bd36c2c0e5737b,,,,,,61057ef878bd36c2c0e5737b,Kobieta,21,2021-09-06_19h00.16.902,rantool2,2021.1.4,Win32,60.14314067,6135e006383e6ea6c3d06a28,613648e66af6dae5800be57e,"[""period""]",0,[0.212299999952279],26,0,26,0,1
,,,,,,,61057ef878bd36c2c0e5737b,,,,,,61057ef878bd36c2c0e5737b,Kobieta,21,2021-09-06_19h00.16.902,rantool2,2021.1.4,Win32,60.14314067,6135e006383e6ea6c3d06a28,613648e66af6dae5800be57e,"[""period""]",0,[0.4032999999523099],27,0,27,0,1
,,,,,,,61057ef878bd36c2c0e5737b,,,,,,61057ef878bd36c2c0e5737b,Kobieta,21,2021-09-06_19h00.16.902,rantool2,2021.1.4,Win32,60.14314067,6135e006383e6ea6c3d06a28,613648e66af6dae5800be57e,"[""period""]",0,[0.458500000000015],28,0,28,0,1
,,,,,,,61057ef878bd36c2c0e5737b,,,,,,61057ef878bd36c2c0e5737b,Kobieta,21,2021-09-06_19h00.16.902,rantool2,2021.1.4,Win32,60.14314067,6135e006383e6ea6c3d06a28,613648e66af6dae5800be57e,"[""comma""]",0,[0.27940000009533605],29,0,29,0,1
,,,,,,,61057ef878bd36c2c0e5737b,,,,,,61057ef878bd36c2c0e5737b,Kobieta,21,2021-09-06_19h00.16.902,rantool2,2021.1.4,Win32,60.14314067,6135e006383e6ea6c3d06a28,613648e66af6dae5800be57e,"[""comma""]",0,[0.36250000000001137],30,0,30,0,1
,,,,,,,61057ef878bd36c2c0e5737b,,,,,,61057ef878bd36c2c0e5737b,Kobieta,21,2021-09-06_19h00.16.902,rantool2,2021.1.4,Win32,60.14314067,6135e006383e6ea6c3d06a28,613648e66af6dae5800be57e,"[""comma""]",0,[0.3907999999523213],31,0,31,0,1
,,,,,,,61057ef878bd36c2c0e5737b,,,,,,61057ef878bd36c2c0e5737b,Kobieta,21,2021-09-06_19h00.16.902,rantool2,2021.1.4,Win32,60.14314067,6135e006383e6ea6c3d06a28,613648e66af6dae5800be57e,"[""comma""]",0,[0.5515000000000327],32,0,32,0,1
,,,,,,,61057ef878bd36c2c0e5737b,,,,,,61057ef878bd36c2c0e5737b,Kobieta,21,2021-09-06_19h00.16.902,rantool2,2021.1.4,Win32,60.14314067,6135e006383e6ea6c3d06a28,613648e66af6dae5800be57e,"[""comma""]",0,[0.3688999998569784],33,0,33,0,1
,,,,,,,61057ef878bd36c2c0e5737b,,,,,,61057ef878bd36c2c0e5737b,Kobieta,21,2021-09-06_19h00.16.902,rantool2,2021.1.4,Win32,60.14314067,6135e006383e6ea6c3d06a28,613648e66af6dae5800be57e,"[""period""]",0,[0.26799999999997226],34,0,34,0,1
,,,,,,,61057ef878bd36c2c0e5737b,,,,,,61057ef878bd36c2c0e5737b,Kobieta,21,2021-09-06_19h00.16.902,rantool2,2021.1.4,Win32,60.14314067,6135e006383e6ea6c3d06a28,613648e66af6dae5800be57e,"[""period""]",0,[0.3107000000476887],35,0,35,0,1
,,,,,,,61057ef878bd36c2c0e5737b,,,,,,61057ef878bd36c2c0e5737b,Kobieta,21,2021-09-06_19h00.16.902,rantool2,2021.1.4,Win32,60.14314067,6135e006383e6ea6c3d06a28,613648e66af6dae5800be57e,"[""period""]",0,[0.31850000000002865],36,0,36,0,1
,,,,,,,61057ef878bd36c2c0e5737b,,,,,,61057ef878bd36c2c0e5737b,Kobieta,21,2021-09-06_19h00.16.902,rantool2,2021.1.4,Win32,60.14314067,6135e006383e6ea6c3d06a28,613648e66af6dae5800be57e,"[""comma""]",0,[0.3380000000000223],37,0,37,0,1
,,,,,,,61057ef878bd36c2c0e5737b,,,,,,61057ef878bd36c2c0e5737b,Kobieta,21,2021-09-06_19h00.16.902,rantool2,2021.1.4,Win32,60.14314067,6135e006383e6ea6c3d06a28,613648e66af6dae5800be57e,"[""period""]",0,[0.261299999952314],38,0,38,0,1
,,,,,,,61057ef878bd36c2c0e5737b,,,,,,61057ef878bd36c2c0e5737b,Kobieta,21,2021-09-06_19h00.16.902,rantool2,2021.1.4,Win32,60.14314067,6135e006383e6ea6c3d06a28,613648e66af6dae5800be57e,"[""period""]",0,[0.27770000004767326],39,0,39,0,1
,,,,,,,61057ef878bd36c2c0e5737b,,,,,,61057ef878bd36c2c0e5737b,Kobieta,21,2021-09-06_19h00.16.902,rantool2,2021.1.4,Win32,60.14314067,6135e006383e6ea6c3d06a28,613648e66af6dae5800be57e,"[""period""]",0,[0.3073000001907644],40,0,40,0,1
,,,,,,,61057ef878bd36c2c0e5737b,,,,,,61057ef878bd36c2c0e5737b,Kobieta,21,2021-09-06_19h00.16.902,rantool2,2021.1.4,Win32,60.14314067,6135e006383e6ea6c3d06a28,613648e66af6dae5800be57e,"[""period""]",0,[0.30519999980924695],41,0,41,0,1
,,,,,,,61057ef878bd36c2c0e5737b,,,,,,61057ef878bd36c2c0e5737b,Kobieta,21,2021-09-06_19h00.16.902,rantool2,2021.1.4,Win32,60.14314067,6135e006383e6ea6c3d06a28,613648e66af6dae5800be57e,"[""comma""]",0,[0.2843999998569302],42,0,42,0,1
,,,,,,,61057ef878bd36c2c0e5737b,,,,,,61057ef878bd36c2c0e5737b,Kobieta,21,2021-09-06_19h00.16.902,rantool2,2021.1.4,Win32,60.14314067,6135e006383e6ea6c3d06a28,613648e66af6dae5800be57e,"[""period""]",0,[0.3206999998092215],43,0,43,0,1
,,,,,,,61057ef878bd36c2c0e5737b,,,,,,61057ef878bd36c2c0e5737b,Kobieta,21,2021-09-06_19h00.16.902,rantool2,2021.1.4,Win32,60.14314067,6135e006383e6ea6c3d06a28,613648e66af6dae5800be57e,"[""comma""]",0,[0.31290000009539654],44,0,44,0,1
,,,,,,,61057ef878bd36c2c0e5737b,,,,,,61057ef878bd36c2c0e5737b,Kobieta,21,2021-09-06_19h00.16.902,rantool2,2021.1.4,Win32,60.14314067,6135e006383e6ea6c3d06a28,613648e66af6dae5800be57e,"[""period""]",0,[0.33359999990460665],45,0,45,0,1
,,,,,,,61057ef878bd36c2c0e5737b,,,,,,61057ef878bd36c2c0e5737b,Kobieta,21,2021-09-06_19h00.16.902,rantool2,2021.1.4,Win32,60.14314067,6135e006383e6ea6c3d06a28,613648e66af6dae5800be57e,"[""period""]",0,[0.3277000000476846],46,0,46,0,1
,,,,,,,61057ef878bd36c2c0e5737b,,,,,,61057ef878bd36c2c0e5737b,Kobieta,21,2021-09-06_19h00.16.902,rantool2,2021.1.4,Win32,60.14314067,6135e006383e6ea6c3d06a28,613648e66af6dae5800be57e,"[""comma""]",0,[0.2674999999999841],47,0,47,0,1
,,,,,,,61057ef878bd36c2c0e5737b,,,,,,61057ef878bd36c2c0e5737b,Kobieta,21,2021-09-06_19h00.16.902,rantool2,2021.1.4,Win32,60.14314067,6135e006383e6ea6c3d06a28,613648e66af6dae5800be57e,"[""period""]",0,[0.26759999990463257],48,0,48,0,1
,,,,,,,61057ef878bd36c2c0e5737b,,,,,,61057ef878bd36c2c0e5737b,Kobieta,21,2021-09-06_19h00.16.902,rantool2,2021.1.4,Win32,60.14314067,6135e006383e6ea6c3d06a28,613648e66af6dae5800be57e,"[""period""]",0,[0.3774999999999977],49,0,49,0,1
,,,,,,,61057ef878bd36c2c0e5737b,,,,,,61057ef878bd36c2c0e5737b,Kobieta,21,2021-09-06_19h00.16.902,rantool2,2021.1.4,Win32,60.14314067,6135e006383e6ea6c3d06a28,613648e66af6dae5800be57e,"[""comma""]",0,[0.28379999995229355],50,0,50,0,1
,,,,,,,61057ef878bd36c2c0e5737b,,,,,,61057ef878bd36c2c0e5737b,Kobieta,21,2021-09-06_19h00.16.902,rantool2,2021.1.4,Win32,60.14314067,6135e006383e6ea6c3d06a28,613648e66af6dae5800be57e,"[""period""]",0,[0.26730000019074396],51,0,51,0,1
,,,,,,,61057ef878bd36c2c0e5737b,,,,,,61057ef878bd36c2c0e5737b,Kobieta,21,2021-09-06_19h00.16.902,rantool2,2021.1.4,Win32,60.14314067,6135e006383e6ea6c3d06a28,613648e66af6dae5800be57e,"[""period""]",0,[0.30040000009535106],52,0,52,0,1
,,,,,,,61057ef878bd36c2c0e5737b,,,,,,61057ef878bd36c2c0e5737b,Kobieta,21,2021-09-06_19h00.16.902,rantool2,2021.1.4,Win32,60.14314067,6135e006383e6ea6c3d06a28,613648e66af6dae5800be57e,"[""comma""]",0,[0.250500000000045],53,0,53,0,1
,,,,,,,61057ef878bd36c2c0e5737b,,,,,,61057ef878bd36c2c0e5737b,Kobieta,21,2021-09-06_19h00.16.902,rantool2,2021.1.4,Win32,60.14314067,6135e006383e6ea6c3d06a28,613648e66af6dae5800be57e,"[""period""]",0,[0.3265999999046585],54,0,54,0,1
,,,,,,,61057ef878bd36c2c0e5737b,,,,,,61057ef878bd36c2c0e5737b,Kobieta,21,2021-09-06_19h00.16.902,rantool2,2021.1.4,Win32,60.14314067,6135e006383e6ea6c3d06a28,613648e66af6dae5800be57e,"[""comma""]",0,[0.2836999998093006],55,0,55,0,1
,,,,,,,61057ef878bd36c2c0e5737b,,,,,,61057ef878bd36c2c0e5737b,Kobieta,21,2021-09-06_19h00.16.902,rantool2,2021.1.4,Win32,60.14314067,6135e006383e6ea6c3d06a28,613648e66af6dae5800be57e,"[""period""]",0,[0.25629999995231856],56,0,56,0,1
,,,,,,,61057ef878bd36c2c0e5737b,,,,,,61057ef878bd36c2c0e5737b,Kobieta,21,2021-09-06_19h00.16.902,rantool2,2021.1.4,Win32,60.14314067,6135e006383e6ea6c3d06a28,613648e66af6dae5800be57e,"[""period""]",0,[0.26690000009540427],57,0,57,0,1
,,,,,,,61057ef878bd36c2c0e5737b,,,,,,61057ef878bd36c2c0e5737b,Kobieta,21,2021-09-06_19h00.16.902,rantool2,2021.1.4,Win32,60.14314067,6135e006383e6ea6c3d06a28,613648e66af6dae5800be57e,"[""comma""]",0,[0.2673999998569343],58,0,58,0,1
,,,,,,,61057ef878bd36c2c0e5737b,,,,,,61057ef878bd36c2c0e5737b,Kobieta,21,2021-09-06_19h00.16.902,rantool2,2021.1.4,Win32,60.14314067,6135e006383e6ea6c3d06a28,613648e66af6dae5800be57e,"[""comma""]",0,[0.24679999995231583],59,0,59,0,1
,,,,,,,61057ef878bd36c2c0e5737b,,,,,,61057ef878bd36c2c0e5737b,Kobieta,21,2021-09-06_19h00.16.902,rantool2,2021.1.4,Win32,60.14314067,6135e006383e6ea6c3d06a28,613648e66af6dae5800be57e,"[""comma""]",0,[0.34520000004772555],60,0,60,0,1
,,,,,,,61057ef878bd36c2c0e5737b,,,,,,61057ef878bd36c2c0e5737b,Kobieta,21,2021-09-06_19h00.16.902,rantool2,2021.1.4,Win32,60.14314067,6135e006383e6ea6c3d06a28,613648e66af6dae5800be57e,"[""comma""]",0,[0.3269999999999982],61,0,61,0,1
,,,,,,,61057ef878bd36c2c0e5737b,,,,,,61057ef878bd36c2c0e5737b,Kobieta,21,2021-09-06_19h00.16.902,rantool2,2021.1.4,Win32,60.14314067,6135e006383e6ea6c3d06a28,613648e66af6dae5800be57e,"[""period""]",0,[0.2670999999046444],62,0,62,0,1
,,,,,,,61057ef878bd36c2c0e5737b,,,,,,61057ef878bd36c2c0e5737b,Kobieta,21,2021-09-06_19h00.16.902,rantool2,2021.1.4,Win32,60.14314067,6135e006383e6ea6c3d06a28,613648e66af6dae5800be57e,"[""comma""]",0,[0.2839999999999918],63,0,63,0,1
,,,,,,,61057ef878bd36c2c0e5737b,,,,,,61057ef878bd36c2c0e5737b,Kobieta,21,2021-09-06_19h00.16.902,rantool2,2021.1.4,Win32,60.14314067,6135e006383e6ea6c3d06a28,613648e66af6dae5800be57e,"[""period""]",0,[0.2669000000953474],64,0,64,0,1
,,,,,,,61057ef878bd36c2c0e5737b,,,,,,61057ef878bd36c2c0e5737b,Kobieta,21,2021-09-06_19h00.16.902,rantool2,2021.1.4,Win32,60.14314067,6135e006383e6ea6c3d06a28,613648e66af6dae5800be57e,"[""comma""]",0,[0.27649999999999864],65,0,65,0,1
,,,,,,,61057ef878bd36c2c0e5737b,,,,,,61057ef878bd36c2c0e5737b,Kobieta,21,2021-09-06_19h00.16.902,rantool2,2021.1.4,Win32,60.14314067,6135e006383e6ea6c3d06a28,613648e66af6dae5800be57e,"[""period""]",0,[0.25],66,0,66,0,1
,,,,,,,61057ef878bd36c2c0e5737b,,,,,,61057ef878bd36c2c0e5737b,Kobieta,21,2021-09-06_19h00.16.902,rantool2,2021.1.4,Win32,60.14314067,6135e006383e6ea6c3d06a28,613648e66af6dae5800be57e,"[""period""]",0,[0.3669999999999618],67,0,67,0,1
,,,,,,,61057ef878bd36c2c0e5737b,,,,,,61057ef878bd36c2c0e5737b,Kobieta,21,2021-09-06_19h00.16.902,rantool2,2021.1.4,Win32,60.14314067,6135e006383e6ea6c3d06a28,613648e66af6dae5800be57e,"[""comma""]",0,[0.2846000001430866],68,0,68,0,1
,,,,,,,61057ef878bd36c2c0e5737b,,,,,,61057ef878bd36c2c0e5737b,Kobieta,21,2021-09-06_19h00.16.902,rantool2,2021.1.4,Win32,60.14314067,6135e006383e6ea6c3d06a28,613648e66af6dae5800be57e,"[""comma""]",0,[0.3337999999523049],69,0,69,0,1
,,,,,,,61057ef878bd36c2c0e5737b,,,,,,61057ef878bd36c2c0e5737b,Kobieta,21,2021-09-06_19h00.16.902,rantool2,2021.1.4,Win32,60.14314067,6135e006383e6ea6c3d06a28,613648e66af6dae5800be57e,"[""period""]",0,[0.36650000000003047],70,0,70,0,1
,,,,,,,61057ef878bd36c2c0e5737b,,,,,,61057ef878bd36c2c0e5737b,Kobieta,21,2021-09-06_19h00.16.902,rantool2,2021.1.4,Win32,60.14314067,6135e006383e6ea6c3d06a28,613648e66af6dae5800be57e,"[""period""]",0,[0.3170000000000073],71,0,71,0,1
,,,,,,,61057ef878bd36c2c0e5737b,,,,,,61057ef878bd36c2c0e5737b,Kobieta,21,2021-09-06_19h00.16.902,rantool2,2021.1.4,Win32,60.14314067,6135e006383e6ea6c3d06a28,613648e66af6dae5800be57e,"[""comma""]",0,[0.39809999990467304],72,0,72,0,1
,,,,,,,61057ef878bd36c2c0e5737b,,,,,,61057ef878bd36c2c0e5737b,Kobieta,21,2021-09-06_19h00.16.902,rantool2,2021.1.4,Win32,60.14314067,6135e006383e6ea6c3d06a28,613648e66af6dae5800be57e,"[""period""]",0,[0.30040000009535106],73,0,73,0,1
,,,,,,,61057ef878bd36c2c0e5737b,,,,,,61057ef878bd36c2c0e5737b,Kobieta,21,2021-09-06_19h00.16.902,rantool2,2021.1.4,Win32,60.14314067,6135e006383e6ea6c3d06a28,613648e66af6dae5800be57e,"[""comma""]",0,[0.2867000000476878],74,0,74,0,1
,,,,,,,61057ef878bd36c2c0e5737b,,,,,,61057ef878bd36c2c0e5737b,Kobieta,21,2021-09-06_19h00.16.902,rantool2,2021.1.4,Win32,60.14314067,6135e006383e6ea6c3d06a28,613648e66af6dae5800be57e,"[""period""]",0,[0.3165999999046676],75,0,75,0,1
,,,,,,,61057ef878bd36c2c0e5737b,,,,,,61057ef878bd36c2c0e5737b,Kobieta,21,2021-09-06_19h00.16.902,rantool2,2021.1.4,Win32,60.14314067,6135e006383e6ea6c3d06a28,613648e66af6dae5800be57e,"[""comma""]",0,[0.33410000014305297],76,0,76,0,1
,,,,,,,61057ef878bd36c2c0e5737b,,,,,,61057ef878bd36c2c0e5737b,Kobieta,21,2021-09-06_19h00.16.902,rantool2,2021.1.4,Win32,60.14314067,6135e006383e6ea6c3d06a28,613648e66af6dae5800be57e,"[""period""]",0,[0.26759999990463257],77,0,77,0,1
,,,,,,,61057ef878bd36c2c0e5737b,,,,,,61057ef878bd36c2c0e5737b,Kobieta,21,2021-09-06_19h00.16.902,rantool2,2021.1.4,Win32,60.14314067,6135e006383e6ea6c3d06a28,613648e66af6dae5800be57e,"[""period""]",0,[0.293099999904598],78,0,78,0,1
,,,,,,,61057ef878bd36c2c0e5737b,,,,,,61057ef878bd36c2c0e5737b,Kobieta,21,2021-09-06_19h00.16.902,rantool2,2021.1.4,Win32,60.14314067,6135e006383e6ea6c3d06a28,613648e66af6dae5800be57e,"[""period""]",0,[0.277499999999975],79,0,79,0,1
,,,,,,,61057ef878bd36c2c0e5737b,,,,,,61057ef878bd36c2c0e5737b,Kobieta,21,2021-09-06_19h00.16.902,rantool2,2021.1.4,Win32,60.14314067,6135e006383e6ea6c3d06a28,613648e66af6dae5800be57e,"[""period""]",0,[0.31749999999999545],80,0,80,0,1
,,,,,,,61057ef878bd36c2c0e5737b,,,,,,61057ef878bd36c2c0e5737b,Kobieta,21,2021-09-06_19h00.16.902,rantool2,2021.1.4,Win32,60.14314067,6135e006383e6ea6c3d06a28,613648e66af6dae5800be57e,"[""comma""]",0,[0.26179999995235903],81,0,81,0,1
,,,,,,,61057ef878bd36c2c0e5737b,,,,,,61057ef878bd36c2c0e5737b,Kobieta,21,2021-09-06_19h00.16.902,rantool2,2021.1.4,Win32,60.14314067,6135e006383e6ea6c3d06a28,613648e66af6dae5800be57e,"[""comma""]",0,[0.3002000000476528],82,0,82,0,1
,,,,,,,61057ef878bd36c2c0e5737b,,,,,,61057ef878bd36c2c0e5737b,Kobieta,21,2021-09-06_19h00.16.902,rantool2,2021.1.4,Win32,60.14314067,6135e006383e6ea6c3d06a28,613648e66af6dae5800be57e,"[""period""]",0,[0.3841000001430075],83,0,83,0,1
,,,,,,,61057ef878bd36c2c0e5737b,,,,,,61057ef878bd36c2c0e5737b,Kobieta,21,2021-09-06_19h00.16.902,rantool2,2021.1.4,Win32,60.14314067,6135e006383e6ea6c3d06a28,613648e66af6dae5800be57e,"[""period""]",0,[0.35729999995231765],84,0,84,0,1
,,,,,,,61057ef878bd36c2c0e5737b,,,,,,61057ef878bd36c2c0e5737b,Kobieta,21,2021-09-06_19h00.16.902,rantool2,2021.1.4,Win32,60.14314067,6135e006383e6ea6c3d06a28,613648e66af6dae5800be57e,"[""comma""]",0,[0.29429999995232947],85,0,85,0,1
,,,,,,,61057ef878bd36c2c0e5737b,,,,,,61057ef878bd36c2c0e5737b,Kobieta,21,2021-09-06_19h00.16.902,rantool2,2021.1.4,Win32,60.14314067,6135e006383e6ea6c3d06a28,613648e66af6dae5800be57e,"[""period""]",0,[0.3964000000953547],86,0,86,0,1
,,,,,,,61057ef878bd36c2c0e5737b,,,,,,61057ef878bd36c2c0e5737b,Kobieta,21,2021-09-06_19h00.16.902,rantool2,2021.1.4,Win32,60.14314067,6135e006383e6ea6c3d06a28,613648e66af6dae5800be57e,"[""comma""]",0,[0.5842999999523499],87,0,87,0,1
,,,,,,,61057ef878bd36c2c0e5737b,,,,,,61057ef878bd36c2c0e5737b,Kobieta,21,2021-09-06_19h00.16.902,rantool2,2021.1.4,Win32,60.14314067,6135e006383e6ea6c3d06a28,613648e66af6dae5800be57e,"[""comma""]",0,[0.30779999995229446],88,0,88,0,1
,,,,,,,61057ef878bd36c2c0e5737b,,,,,,61057ef878bd36c2c0e5737b,Kobieta,21,2021-09-06_19h00.16.902,rantool2,2021.1.4,Win32,60.14314067,6135e006383e6ea6c3d06a28,613648e66af6dae5800be57e,"[""period""]",0,[0.2757999999523122],89,0,89,0,1
,,,,,,,61057ef878bd36c2c0e5737b,,,,,,61057ef878bd36c2c0e5737b,Kobieta,21,2021-09-06_19h00.16.902,rantool2,2021.1.4,Win32,60.14314067,6135e006383e6ea6c3d06a28,613648e66af6dae5800be57e,"[""comma""]",0,[0.4008999998569607],90,0,90,0,1
,,,,,,,61057ef878bd36c2c0e5737b,,,,,,61057ef878bd36c2c0e5737b,Kobieta,21,2021-09-06_19h00.16.902,rantool2,2021.1.4,Win32,60.14314067,6135e006383e6ea6c3d06a28,613648e66af6dae5800be57e,"[""period""]",0,[0.33420000004770145],91,0,91,0,1
,,,,,,,61057ef878bd36c2c0e5737b,,,,,,61057ef878bd36c2c0e5737b,Kobieta,21,2021-09-06_19h00.16.902,rantool2,2021.1.4,Win32,60.14314067,6135e006383e6ea6c3d06a28,613648e66af6dae5800be57e,"[""period""]",0,[0.26810000014302204],92,0,92,0,1
,,,,,,,61057ef878bd36c2c0e5737b,,,,,,61057ef878bd36c2c0e5737b,Kobieta,21,2021-09-06_19h00.16.902,rantool2,2021.1.4,Win32,60.14314067,6135e006383e6ea6c3d06a28,613648e66af6dae5800be57e,"[""period""]",0,[0.2552000000476369],93,0,93,0,1
,,,,,,,61057ef878bd36c2c0e5737b,,,,,,61057ef878bd36c2c0e5737b,Kobieta,21,2021-09-06_19h00.16.902,rantool2,2021.1.4,Win32,60.14314067,6135e006383e6ea6c3d06a28,613648e66af6dae5800be57e,"[""period""]",0,[0.3340000000000032],94,0,94,0,1
,,,,,,,61057ef878bd36c2c0e5737b,,,,,,61057ef878bd36c2c0e5737b,Kobieta,21,2021-09-06_19h00.16.902,rantool2,2021.1.4,Win32,60.14314067,6135e006383e6ea6c3d06a28,613648e66af6dae5800be57e,"[""comma""]",0,[1.0257000000477206],95,0,95,0,1
,,,,,,,61057ef878bd36c2c0e5737b,,,,,,61057ef878bd36c2c0e5737b,Kobieta,21,2021-09-06_19h00.16.902,rantool2,2021.1.4,Win32,60.14314067,6135e006383e6ea6c3d06a28,613648e66af6dae5800be57e,"[""comma""]",0,[0.2507999999522781],96,0,96,0,1
,,,,,,,61057ef878bd36c2c0e5737b,,,,,,61057ef878bd36c2c0e5737b,Kobieta,21,2021-09-06_19h00.16.902,rantool2,2021.1.4,Win32,60.14314067,6135e006383e6ea6c3d06a28,613648e66af6dae5800be57e,"[""comma""]",0,[0.407299999952329],97,0,97,0,1
,,,,,,,61057ef878bd36c2c0e5737b,,,,,,61057ef878bd36c2c0e5737b,Kobieta,21,2021-09-06_19h00.16.902,rantool2,2021.1.4,Win32,60.14314067,6135e006383e6ea6c3d06a28,613648e66af6dae5800be57e,"[""comma""]",0,[0.5169999999999959],98,0,98,0,1
,,,,,,,61057ef878bd36c2c0e5737b,,,,,,61057ef878bd36c2c0e5737b,Kobieta,21,2021-09-06_19h00.16.902,rantool2,2021.1.4,Win32,60.14314067,6135e006383e6ea6c3d06a28,613648e66af6dae5800be57e,"[""comma""]",0,[0.4339999999999691],99,0,99,0,1
,,,,,,,61057ef878bd36c2c0e5737b,,,,,,61057ef878bd36c2c0e5737b,Kobieta,21,2021-09-06_19h00.16.902,rantool2,2021.1.4,Win32,60.14314067,6135e006383e6ea6c3d06a28,613648e66af6dae5800be57e,"[""period""]",0,[0.33600000000001273],100,0,100,0,1
,,,,,,,61057ef878bd36c2c0e5737b,,,,,,61057ef878bd36c2c0e5737b,Kobieta,21,2021-09-06_19h00.16.902,rantool2,2021.1.4,Win32,60.14314067,6135e006383e6ea6c3d06a28,613648e66af6dae5800be57e,"[""comma""]",0,[0.30079999995228945],101,0,101,0,1
,,,,,,,61057ef878bd36c2c0e5737b,,,,,,61057ef878bd36c2c0e5737b,Kobieta,21,2021-09-06_19h00.16.902,rantool2,2021.1.4,Win32,60.14314067,6135e006383e6ea6c3d06a28,613648e66af6dae5800be57e,"[""comma""]",0,[0.4340000000000259],102,0,102,0,1
,,,,,,,61057ef878bd36c2c0e5737b,,,,,,61057ef878bd36c2c0e5737b,Kobieta,21,2021-09-06_19h00.16.902,rantool2,2021.1.4,Win32,60.14314067,6135e006383e6ea6c3d06a28,613648e66af6dae5800be57e,"[""period""]",0,[0.3107000000476887],103,0,103,0,1
,,,,,,,61057ef878bd36c2c0e5737b,,,,,,61057ef878bd36c2c0e5737b,Kobieta,21,2021-09-06_19h00.16.902,rantool2,2021.1.4,Win32,60.14314067,6135e006383e6ea6c3d06a28,613648e66af6dae5800be57e,"[""period""]",0,[0.2939999999999827],104,0,104,0,1
,,,,,,,61057ef878bd36c2c0e5737b,,,,,,61057ef878bd36c2c0e5737b,Kobieta,21,2021-09-06_19h00.16.902,rantool2,2021.1.4,Win32,60.14314067,6135e006383e6ea6c3d06a28,613648e66af6dae5800be57e,"[""period""]",0,[0.2998999998569616],105,0,105,0,1
,,,,,,,61057ef878bd36c2c0e5737b,,,,,,61057ef878bd36c2c0e5737b,Kobieta,21,2021-09-06_19h00.16.902,rantool2,2021.1.4,Win32,60.14314067,6135e006383e6ea6c3d06a28,613648e66af6dae5800be57e,"[""period""]",0,[0.30349999999998545],106,0,106,0,1
,,,,,,,61057ef878bd36c2c0e5737b,,,,,,61057ef878bd36c2c0e5737b,Kobieta,21,2021-09-06_19h00.16.902,rantool2,2021.1.4,Win32,60.14314067,6135e006383e6ea6c3d06a28,613648e66af6dae5800be57e,"[""comma""]",0,[0.43449999999995725],107,0,107,0,1
,,,,,,,61057ef878bd36c2c0e5737b,,,,,,61057ef878bd36c2c0e5737b,Kobieta,21,2021-09-06_19h00.16.902,rantool2,2021.1.4,Win32,60.14314067,6135e006383e6ea6c3d06a28,613648e66af6dae5800be57e,"[""period""]",0,[0.2867999999523363],108,0,108,0,1
,,,,,,,61057ef878bd36c2c0e5737b,,,,,,61057ef878bd36c2c0e5737b,Kobieta,21,2021-09-06_19h00.16.902,rantool2,2021.1.4,Win32,60.14314067,6135e006383e6ea6c3d06a28,613648e66af6dae5800be57e,"[""period""]",0,[0.34759999990461665],109,0,109,0,1
,,,,,,,61057ef878bd36c2c0e5737b,,,,,,61057ef878bd36c2c0e5737b,Kobieta,21,2021-09-06_19h00.16.902,rantool2,2021.1.4,Win32,60.14314067,6135e006383e6ea6c3d06a28,613648e66af6dae5800be57e,"[""comma""]",0,[0.2843999998569302],110,0,110,0,1
,,,,,,,61057ef878bd36c2c0e5737b,,,,,,61057ef878bd36c2c0e5737b,Kobieta,21,2021-09-06_19h00.16.902,rantool2,2021.1.4,Win32,60.14314067,6135e006383e6ea6c3d06a28,613648e66af6dae5800be57e,"[""comma""]",0,[0.2842000000476901],111,0,111,0,1
,,,,,,,61057ef878bd36c2c0e5737b,,,,,,61057ef878bd36c2c0e5737b,Kobieta,21,2021-09-06_19h00.16.902,rantool2,2021.1.4,Win32,60.14314067,6135e006383e6ea6c3d06a28,613648e66af6dae5800be57e,"[""comma""]",0,[0.30059999990464803],112,0,112,0,1
,,,,,,,61057ef878bd36c2c0e5737b,,,,,,61057ef878bd36c2c0e5737b,Kobieta,21,2021-09-06_19h00.16.902,rantool2,2021.1.4,Win32,60.14314067,6135e006383e6ea6c3d06a28,613648e66af6dae5800be57e,"[""comma""]",0,[0.26729999995234266],113,0,113,0,1
,,,,,,,61057ef878bd36c2c0e5737b,,,,,,61057ef878bd36c2c0e5737b,Kobieta,21,2021-09-06_19h00.16.902,rantool2,2021.1.4,Win32,60.14314067,6135e006383e6ea6c3d06a28,613648e66af6dae5800be57e,"[""period""]",0,[0.22639999985688064],114,0,114,0,1
,,,,,,,61057ef878bd36c2c0e5737b,,,,,,61057ef878bd36c2c0e5737b,Kobieta,21,2021-09-06_19h00.16.902,rantool2,2021.1.4,Win32,60.14314067,6135e006383e6ea6c3d06a28,613648e66af6dae5800be57e,"[""period""]",0,[0.25129999995237995],115,0,115,0,1
,,,,,,,61057ef878bd36c2c0e5737b,,,,,,61057ef878bd36c2c0e5737b,Kobieta,21,2021-09-06_19h00.16.902,rantool2,2021.1.4,Win32,60.14314067,6135e006383e6ea6c3d06a28,613648e66af6dae5800be57e,"[""period""]",0,[0.2837000000477019],116,0,116,0,1
,,,,,,,61057ef878bd36c2c0e5737b,,,,,,61057ef878bd36c2c0e5737b,Kobieta,21,2021-09-06_19h00.16.902,rantool2,2021.1.4,Win32,60.14314067,6135e006383e6ea6c3d06a28,613648e66af6dae5800be57e,"[""period""]",0,[0.31690000009541563],117,0,117,0,1
,,,,,,,61057ef878bd36c2c0e5737b,,,,,,61057ef878bd36c2c0e5737b,Kobieta,21,2021-09-06_19h00.16.902,rantool2,2021.1.4,Win32,60.14314067,6135e006383e6ea6c3d06a28,613648e66af6dae5800be57e,"[""period""]",0,[0.2907999999523554],118,0,118,0,1
,,,,,,,61057ef878bd36c2c0e5737b,,,,,,61057ef878bd36c2c0e5737b,Kobieta,21,2021-09-06_19h00.16.902,rantool2,2021.1.4,Win32,60.14314067,6135e006383e6ea6c3d06a28,613648e66af6dae5800be57e,"[""comma""]",0,[0.23409999990462893],119,0,119,0,1
