key_resp_7.keys,trials_2.thisRepN,trials_2.thisTrialN,trials_2.thisN,trials_2.thisIndex,trials_2.ran,id,series_0,series_1,acss_0,acss_1,comparison,id*,Płeć*,Wiek*,date,expName,psychopyVersion,OS,frameRate,STUDY_ID,SESSION_ID,key_resp_7.rt,key_resp_5.keys,key_resp_5.corr,key_resp_5.rt,trials.thisRepN,trials.thisTrialN,trials.thisN,trials.thisIndex,trials.ran
,0,0,0,0,1,6129015eb884f1983f7b9323,OOOOOOO,OOOOOOR,18.52739004,19.62521613,series_1,6129015eb884f1983f7b9323,Mężczyzna,20,2021-09-06_18h56.15.807,rantool2,2021.1.4,Win32,59.9880024,6135e006383e6ea6c3d06a28,6136481290a81c1cec060451,,,,,,,,,
f,0,1,1,11,1,6129015eb884f1983f7b9323,OORORRO,OORORRR,22.18365867,22.6797523,series_1,6129015eb884f1983f7b9323,Mężczyzna,20,2021-09-06_18h56.15.807,rantool2,2021.1.4,Win32,59.9880024,6135e006383e6ea6c3d06a28,6136481290a81c1cec060451,2.6414,,,,,,,,
j,0,2,2,27,1,6129015eb884f1983f7b9323,ORRORRO,ORRORRR,21.55250791,22.2428857,series_1,6129015eb884f1983f7b9323,Mężczyzna,20,2021-09-06_18h56.15.807,rantool2,2021.1.4,Win32,59.9880024,6135e006383e6ea6c3d06a28,6136481290a81c1cec060451,2.3007,,,,,,,,
f,0,3,3,50,1,6129015eb884f1983f7b9323,RROOROO,RROOROR,21.73568164,22.02566557,series_1,6129015eb884f1983f7b9323,Mężczyzna,20,2021-09-06_18h56.15.807,rantool2,2021.1.4,Win32,59.9880024,6135e006383e6ea6c3d06a28,6136481290a81c1cec060451,1.3112,,,,,,,,
j,0,4,4,23,1,6129015eb884f1983f7b9323,ORORRRO,ORORRRR,22.1285618,21.9921709,series_0,6129015eb884f1983f7b9323,Mężczyzna,20,2021-09-06_18h56.15.807,rantool2,2021.1.4,Win32,59.9880024,6135e006383e6ea6c3d06a28,6136481290a81c1cec060451,1.0707,,,,,,,,
j,0,5,5,2,1,6129015eb884f1983f7b9323,OOOOROO,OOOOROR,20.43051175,21.02936224,series_1,6129015eb884f1983f7b9323,Mężczyzna,20,2021-09-06_18h56.15.807,rantool2,2021.1.4,Win32,59.9880024,6135e006383e6ea6c3d06a28,6136481290a81c1cec060451,1.497,,,,,,,,
j,0,6,6,20,1,6129015eb884f1983f7b9323,OROROOO,OROROOR,21.31236711,21.90565814,series_1,6129015eb884f1983f7b9323,Mężczyzna,20,2021-09-06_18h56.15.807,rantool2,2021.1.4,Win32,59.9880024,6135e006383e6ea6c3d06a28,6136481290a81c1cec060451,2.133,,,,,,,,
f,0,7,7,53,1,6129015eb884f1983f7b9323,RRORORO,RRORORR,20.71309134,21.90565814,series_1,6129015eb884f1983f7b9323,Mężczyzna,20,2021-09-06_18h56.15.807,rantool2,2021.1.4,Win32,59.9880024,6135e006383e6ea6c3d06a28,6136481290a81c1cec060451,2.1279,,,,,,,,
f,0,8,8,12,1,6129015eb884f1983f7b9323,OORROOO,OORROOR,21.30250474,22.02786418,series_1,6129015eb884f1983f7b9323,Mężczyzna,20,2021-09-06_18h56.15.807,rantool2,2021.1.4,Win32,59.9880024,6135e006383e6ea6c3d06a28,6136481290a81c1cec060451,1.6643,,,,,,,,
j,0,9,9,40,1,6129015eb884f1983f7b9323,ROROOOO,ROROOOR,20.87963819,21.37121559,series_1,6129015eb884f1983f7b9323,Mężczyzna,20,2021-09-06_18h56.15.807,rantool2,2021.1.4,Win32,59.9880024,6135e006383e6ea6c3d06a28,6136481290a81c1cec060451,1.6284,,,,,,,,
f,0,10,10,45,1,6129015eb884f1983f7b9323,RORRORO,RORRORR,20.78182524,21.22513037,series_1,6129015eb884f1983f7b9323,Mężczyzna,20,2021-09-06_18h56.15.807,rantool2,2021.1.4,Win32,59.9880024,6135e006383e6ea6c3d06a28,6136481290a81c1cec060451,1.6836,,,,,,,,
j,0,11,11,13,1,6129015eb884f1983f7b9323,OORRORO,OORRORR,21.66733484,22.11181017,series_1,6129015eb884f1983f7b9323,Mężczyzna,20,2021-09-06_18h56.15.807,rantool2,2021.1.4,Win32,59.9880024,6135e006383e6ea6c3d06a28,6136481290a81c1cec060451,1.6507,,,,,,,,
j,0,12,12,39,1,6129015eb884f1983f7b9323,ROORRRO,ROORRRR,21.82425538,21.38562617,series_0,6129015eb884f1983f7b9323,Mężczyzna,20,2021-09-06_18h56.15.807,rantool2,2021.1.4,Win32,59.9880024,6135e006383e6ea6c3d06a28,6136481290a81c1cec060451,1.1509,,,,,,,,
j,0,13,13,44,1,6129015eb884f1983f7b9323,RORROOO,RORROOR,21.66733484,22.02566557,series_1,6129015eb884f1983f7b9323,Mężczyzna,20,2021-09-06_18h56.15.807,rantool2,2021.1.4,Win32,59.9880024,6135e006383e6ea6c3d06a28,6136481290a81c1cec060451,0.9413,,,,,,,,
f,0,14,14,58,1,6129015eb884f1983f7b9323,RRROROO,RRROROR,22.1285618,21.37121559,series_0,6129015eb884f1983f7b9323,Mężczyzna,20,2021-09-06_18h56.15.807,rantool2,2021.1.4,Win32,59.9880024,6135e006383e6ea6c3d06a28,6136481290a81c1cec060451,1.255,,,,,,,,
f,0,15,15,41,1,6129015eb884f1983f7b9323,ROROORO,ROROORR,20.42602454,21.71443381,series_1,6129015eb884f1983f7b9323,Mężczyzna,20,2021-09-06_18h56.15.807,rantool2,2021.1.4,Win32,59.9880024,6135e006383e6ea6c3d06a28,6136481290a81c1cec060451,1.1672,,,,,,,,
f,0,16,16,14,1,6129015eb884f1983f7b9323,OORRROO,OORRROR,22.24142883,22.16977179,series_0,6129015eb884f1983f7b9323,Mężczyzna,20,2021-09-06_18h56.15.807,rantool2,2021.1.4,Win32,59.9880024,6135e006383e6ea6c3d06a28,6136481290a81c1cec060451,0.2005,,,,,,,,
j,0,17,17,25,1,6129015eb884f1983f7b9323,ORROORO,ORROORR,21.79500819,22.61624387,series_1,6129015eb884f1983f7b9323,Mężczyzna,20,2021-09-06_18h56.15.807,rantool2,2021.1.4,Win32,59.9880024,6135e006383e6ea6c3d06a28,6136481290a81c1cec060451,1.3695,,,,,,,,
j,0,18,18,1,1,6129015eb884f1983f7b9323,OOOOORO,OOOOORR,19.92253567,20.74050628,series_1,6129015eb884f1983f7b9323,Mężczyzna,20,2021-09-06_18h56.15.807,rantool2,2021.1.4,Win32,59.9880024,6135e006383e6ea6c3d06a28,6136481290a81c1cec060451,0.3175,,,,,,,,
f,0,19,19,48,1,6129015eb884f1983f7b9323,RROOOOO,RROOOOR,20.90986523,22.15934078,series_1,6129015eb884f1983f7b9323,Mężczyzna,20,2021-09-06_18h56.15.807,rantool2,2021.1.4,Win32,59.9880024,6135e006383e6ea6c3d06a28,6136481290a81c1cec060451,1.6442,,,,,,,,
f,0,20,20,59,1,6129015eb884f1983f7b9323,RRRORRO,RRRORRR,21.56657303,20.89823192,series_0,6129015eb884f1983f7b9323,Mężczyzna,20,2021-09-06_18h56.15.807,rantool2,2021.1.4,Win32,59.9880024,6135e006383e6ea6c3d06a28,6136481290a81c1cec060451,3.3798,,,,,,,,
j,0,21,21,51,1,6129015eb884f1983f7b9323,RROORRO,RROORRR,21.89852628,22.02786418,series_1,6129015eb884f1983f7b9323,Mężczyzna,20,2021-09-06_18h56.15.807,rantool2,2021.1.4,Win32,59.9880024,6135e006383e6ea6c3d06a28,6136481290a81c1cec060451,2.2473,,,,,,,,
j,0,22,22,42,1,6129015eb884f1983f7b9323,ROROROO,ROROROR,20.39515459,19.8361834,series_0,6129015eb884f1983f7b9323,Mężczyzna,20,2021-09-06_18h56.15.807,rantool2,2021.1.4,Win32,59.9880024,6135e006383e6ea6c3d06a28,6136481290a81c1cec060451,1.1188,,,,,,,,
j,0,23,23,55,1,6129015eb884f1983f7b9323,RRORRRO,RRORRRR,21.56657303,21.21223021,series_0,6129015eb884f1983f7b9323,Mężczyzna,20,2021-09-06_18h56.15.807,rantool2,2021.1.4,Win32,59.9880024,6135e006383e6ea6c3d06a28,6136481290a81c1cec060451,0.9002,,,,,,,,
j,0,24,24,10,1,6129015eb884f1983f7b9323,OOROROO,OOROROR,21.31236711,21.07490964,series_0,6129015eb884f1983f7b9323,Mężczyzna,20,2021-09-06_18h56.15.807,rantool2,2021.1.4,Win32,59.9880024,6135e006383e6ea6c3d06a28,6136481290a81c1cec060451,1.1841,,,,,,,,
f,0,25,25,32,1,6129015eb884f1983f7b9323,ROOOOOO,ROOOOOR,19.92253567,21.27974287,series_1,6129015eb884f1983f7b9323,Mężczyzna,20,2021-09-06_18h56.15.807,rantool2,2021.1.4,Win32,59.9880024,6135e006383e6ea6c3d06a28,6136481290a81c1cec060451,0.6883,,,,,,,,
j,0,26,26,60,1,6129015eb884f1983f7b9323,RRRROOO,RRRROOR,22.10108823,22.15934078,series_1,6129015eb884f1983f7b9323,Mężczyzna,20,2021-09-06_18h56.15.807,rantool2,2021.1.4,Win32,59.9880024,6135e006383e6ea6c3d06a28,6136481290a81c1cec060451,1.267,,,,,,,,
j,0,27,27,49,1,6129015eb884f1983f7b9323,RROOORO,RROOORR,21.76276513,22.53364006,series_1,6129015eb884f1983f7b9323,Mężczyzna,20,2021-09-06_18h56.15.807,rantool2,2021.1.4,Win32,59.9880024,6135e006383e6ea6c3d06a28,6136481290a81c1cec060451,1.1329,,,,,,,,
j,0,28,28,24,1,6129015eb884f1983f7b9323,ORROOOO,ORROOOR,21.12383932,22.07102821,series_1,6129015eb884f1983f7b9323,Mężczyzna,20,2021-09-06_18h56.15.807,rantool2,2021.1.4,Win32,59.9880024,6135e006383e6ea6c3d06a28,6136481290a81c1cec060451,1.2816,,,,,,,,
f,0,29,29,28,1,6129015eb884f1983f7b9323,ORRROOO,ORRROOR,22.24142883,22.53364006,series_1,6129015eb884f1983f7b9323,Mężczyzna,20,2021-09-06_18h56.15.807,rantool2,2021.1.4,Win32,59.9880024,6135e006383e6ea6c3d06a28,6136481290a81c1cec060451,0.9339,,,,,,,,
j,0,30,30,8,1,6129015eb884f1983f7b9323,OOROOOO,OOROOOR,19.91402015,20.89823192,series_1,6129015eb884f1983f7b9323,Mężczyzna,20,2021-09-06_18h56.15.807,rantool2,2021.1.4,Win32,59.9880024,6135e006383e6ea6c3d06a28,6136481290a81c1cec060451,0.9519,,,,,,,,
j,0,31,31,63,1,6129015eb884f1983f7b9323,RRRRRRO,RRRRRRR,21.35278725,19.62521613,series_0,6129015eb884f1983f7b9323,Mężczyzna,20,2021-09-06_18h56.15.807,rantool2,2021.1.4,Win32,59.9880024,6135e006383e6ea6c3d06a28,6136481290a81c1cec060451,1.0836,,,,,,,,
j,0,32,32,56,1,6129015eb884f1983f7b9323,RRROOOO,RRROOOR,21.6194508,22.31681875,series_1,6129015eb884f1983f7b9323,Mężczyzna,20,2021-09-06_18h56.15.807,rantool2,2021.1.4,Win32,59.9880024,6135e006383e6ea6c3d06a28,6136481290a81c1cec060451,1.269,,,,,,,,
f,0,33,33,46,1,6129015eb884f1983f7b9323,RORRROO,RORRROR,22.00300695,21.24781509,series_0,6129015eb884f1983f7b9323,Mężczyzna,20,2021-09-06_18h56.15.807,rantool2,2021.1.4,Win32,59.9880024,6135e006383e6ea6c3d06a28,6136481290a81c1cec060451,1.4015,,,,,,,,
f,0,34,34,3,1,6129015eb884f1983f7b9323,OOOORRO,OOOORRR,20.90986523,21.74922619,series_1,6129015eb884f1983f7b9323,Mężczyzna,20,2021-09-06_18h56.15.807,rantool2,2021.1.4,Win32,59.9880024,6135e006383e6ea6c3d06a28,6136481290a81c1cec060451,0.9188,,,,,,,,
f,0,35,35,21,1,6129015eb884f1983f7b9323,ORORORO,ORORORR,20.39515459,22.06781359,series_1,6129015eb884f1983f7b9323,Mężczyzna,20,2021-09-06_18h56.15.807,rantool2,2021.1.4,Win32,59.9880024,6135e006383e6ea6c3d06a28,6136481290a81c1cec060451,0.6704,,,,,,,,
f,0,36,36,34,1,6129015eb884f1983f7b9323,ROOOROO,ROOOROR,21.03750787,21.24781509,series_1,6129015eb884f1983f7b9323,Mężczyzna,20,2021-09-06_18h56.15.807,rantool2,2021.1.4,Win32,59.9880024,6135e006383e6ea6c3d06a28,6136481290a81c1cec060451,1.517,,,,,,,,
j,0,37,37,7,1,6129015eb884f1983f7b9323,OOORRRO,OOORRRR,21.6194508,21.899017,series_1,6129015eb884f1983f7b9323,Mężczyzna,20,2021-09-06_18h56.15.807,rantool2,2021.1.4,Win32,59.9880024,6135e006383e6ea6c3d06a28,6136481290a81c1cec060451,1.3798,,,,,,,,
j,0,38,38,57,1,6129015eb884f1983f7b9323,RRROORO,RRROORR,21.82425538,22.07102821,series_1,6129015eb884f1983f7b9323,Mężczyzna,20,2021-09-06_18h56.15.807,rantool2,2021.1.4,Win32,59.9880024,6135e006383e6ea6c3d06a28,6136481290a81c1cec060451,1.7742,,,,,,,,
j,0,39,39,37,1,6129015eb884f1983f7b9323,ROORORO,ROORORR,20.42602454,21.57657071,series_1,6129015eb884f1983f7b9323,Mężczyzna,20,2021-09-06_18h56.15.807,rantool2,2021.1.4,Win32,59.9880024,6135e006383e6ea6c3d06a28,6136481290a81c1cec060451,1.568,,,,,,,,
f,0,40,40,31,1,6129015eb884f1983f7b9323,ORRRRRO,ORRRRRR,22.16413392,20.74050628,series_0,6129015eb884f1983f7b9323,Mężczyzna,20,2021-09-06_18h56.15.807,rantool2,2021.1.4,Win32,59.9880024,6135e006383e6ea6c3d06a28,6136481290a81c1cec060451,1.1247,,,,,,,,
f,0,41,41,6,1,6129015eb884f1983f7b9323,OOORROO,OOORROR,21.12383932,21.38562617,series_1,6129015eb884f1983f7b9323,Mężczyzna,20,2021-09-06_18h56.15.807,rantool2,2021.1.4,Win32,59.9880024,6135e006383e6ea6c3d06a28,6136481290a81c1cec060451,1.2667,,,,,,,,
j,0,42,42,36,1,6129015eb884f1983f7b9323,ROOROOO,ROOROOR,21.07991943,20.9984461,series_0,6129015eb884f1983f7b9323,Mężczyzna,20,2021-09-06_18h56.15.807,rantool2,2021.1.4,Win32,59.9880024,6135e006383e6ea6c3d06a28,6136481290a81c1cec060451,0.9891,,,,,,,,
j,0,43,43,5,1,6129015eb884f1983f7b9323,OOORORO,OOORORR,20.87963819,21.9921709,series_1,6129015eb884f1983f7b9323,Mężczyzna,20,2021-09-06_18h56.15.807,rantool2,2021.1.4,Win32,59.9880024,6135e006383e6ea6c3d06a28,6136481290a81c1cec060451,0.8506,,,,,,,,
f,0,44,44,17,1,6129015eb884f1983f7b9323,OROOORO,OROOORR,21.03750787,22.12173012,series_1,6129015eb884f1983f7b9323,Mężczyzna,20,2021-09-06_18h56.15.807,rantool2,2021.1.4,Win32,59.9880024,6135e006383e6ea6c3d06a28,6136481290a81c1cec060451,0.8789,,,,,,,,
j,0,45,45,33,1,6129015eb884f1983f7b9323,ROOOORO,ROOOORR,20.83779602,22.03072203,series_1,6129015eb884f1983f7b9323,Mężczyzna,20,2021-09-06_18h56.15.807,rantool2,2021.1.4,Win32,59.9880024,6135e006383e6ea6c3d06a28,6136481290a81c1cec060451,0.8141,,,,,,,,
f,0,46,46,29,1,6129015eb884f1983f7b9323,ORRRORO,ORRRORR,22.00300695,22.12173012,series_1,6129015eb884f1983f7b9323,Mężczyzna,20,2021-09-06_18h56.15.807,rantool2,2021.1.4,Win32,59.9880024,6135e006383e6ea6c3d06a28,6136481290a81c1cec060451,0.9171,,,,,,,,
f,0,47,47,22,1,6129015eb884f1983f7b9323,ORORROO,ORORROR,22.02732763,21.57657071,series_0,6129015eb884f1983f7b9323,Mężczyzna,20,2021-09-06_18h56.15.807,rantool2,2021.1.4,Win32,59.9880024,6135e006383e6ea6c3d06a28,6136481290a81c1cec060451,0.6337,,,,,,,,
f,0,48,48,9,1,6129015eb884f1983f7b9323,OOROORO,OOROORR,21.07991943,22.2428857,series_1,6129015eb884f1983f7b9323,Mężczyzna,20,2021-09-06_18h56.15.807,rantool2,2021.1.4,Win32,59.9880024,6135e006383e6ea6c3d06a28,6136481290a81c1cec060451,0.7438,,,,,,,,
j,0,49,49,19,1,6129015eb884f1983f7b9323,OROORRO,OROORRR,21.73568164,22.11181017,series_1,6129015eb884f1983f7b9323,Mężczyzna,20,2021-09-06_18h56.15.807,rantool2,2021.1.4,Win32,59.9880024,6135e006383e6ea6c3d06a28,6136481290a81c1cec060451,0.7337,,,,,,,,
j,0,50,50,26,1,6129015eb884f1983f7b9323,ORROROO,ORROROR,22.02732763,21.71443381,series_0,6129015eb884f1983f7b9323,Mężczyzna,20,2021-09-06_18h56.15.807,rantool2,2021.1.4,Win32,59.9880024,6135e006383e6ea6c3d06a28,6136481290a81c1cec060451,1.0284,,,,,,,,
f,0,51,51,52,1,6129015eb884f1983f7b9323,RROROOO,RROROOR,22.18365867,22.11097995,series_0,6129015eb884f1983f7b9323,Mężczyzna,20,2021-09-06_18h56.15.807,rantool2,2021.1.4,Win32,59.9880024,6135e006383e6ea6c3d06a28,6136481290a81c1cec060451,0.8428,,,,,,,,
j,0,52,52,38,1,6129015eb884f1983f7b9323,ROORROO,ROORROR,21.79500819,21.36812781,series_0,6129015eb884f1983f7b9323,Mężczyzna,20,2021-09-06_18h56.15.807,rantool2,2021.1.4,Win32,59.9880024,6135e006383e6ea6c3d06a28,6136481290a81c1cec060451,0.7356,,,,,,,,
j,0,53,53,43,1,6129015eb884f1983f7b9323,RORORRO,RORORRR,20.71309134,21.07490964,series_1,6129015eb884f1983f7b9323,Mężczyzna,20,2021-09-06_18h56.15.807,rantool2,2021.1.4,Win32,59.9880024,6135e006383e6ea6c3d06a28,6136481290a81c1cec060451,0.6074,,,,,,,,
f,0,54,54,47,1,6129015eb884f1983f7b9323,RORRRRO,RORRRRR,21.81333602,21.02936224,series_0,6129015eb884f1983f7b9323,Mężczyzna,20,2021-09-06_18h56.15.807,rantool2,2021.1.4,Win32,59.9880024,6135e006383e6ea6c3d06a28,6136481290a81c1cec060451,0.625,,,,,,,,
f,0,55,55,16,1,6129015eb884f1983f7b9323,OROOOOO,OROOOOR,20.43051175,21.17347734,series_1,6129015eb884f1983f7b9323,Mężczyzna,20,2021-09-06_18h56.15.807,rantool2,2021.1.4,Win32,59.9880024,6135e006383e6ea6c3d06a28,6136481290a81c1cec060451,0.7958,,,,,,,,
j,0,56,56,4,1,6129015eb884f1983f7b9323,OOOROOO,OOOROOR,19.91402015,21.21223021,series_1,6129015eb884f1983f7b9323,Mężczyzna,20,2021-09-06_18h56.15.807,rantool2,2021.1.4,Win32,59.9880024,6135e006383e6ea6c3d06a28,6136481290a81c1cec060451,0.6887,,,,,,,,
f,0,57,57,54,1,6129015eb884f1983f7b9323,RRORROO,RRORROR,21.55250791,20.9984461,series_0,6129015eb884f1983f7b9323,Mężczyzna,20,2021-09-06_18h56.15.807,rantool2,2021.1.4,Win32,59.9880024,6135e006383e6ea6c3d06a28,6136481290a81c1cec060451,0.7467,,,,,,,,
f,0,58,58,15,1,6129015eb884f1983f7b9323,OORRRRO,OORRRRR,22.10108823,21.74922619,series_0,6129015eb884f1983f7b9323,Mężczyzna,20,2021-09-06_18h56.15.807,rantool2,2021.1.4,Win32,59.9880024,6135e006383e6ea6c3d06a28,6136481290a81c1cec060451,0.5309,,,,,,,,
f,0,59,59,62,1,6129015eb884f1983f7b9323,RRRRROO,RRRRROR,22.16413392,21.27974287,series_0,6129015eb884f1983f7b9323,Mężczyzna,20,2021-09-06_18h56.15.807,rantool2,2021.1.4,Win32,59.9880024,6135e006383e6ea6c3d06a28,6136481290a81c1cec060451,0.6655,,,,,,,,
j,0,60,60,30,1,6129015eb884f1983f7b9323,ORRRROO,ORRRROR,22.46748491,22.03072203,series_0,6129015eb884f1983f7b9323,Mężczyzna,20,2021-09-06_18h56.15.807,rantool2,2021.1.4,Win32,59.9880024,6135e006383e6ea6c3d06a28,6136481290a81c1cec060451,0.5666,,,,,,,,
f,0,61,61,18,1,6129015eb884f1983f7b9323,OROOROO,OROOROR,20.84860893,21.22513037,series_1,6129015eb884f1983f7b9323,Mężczyzna,20,2021-09-06_18h56.15.807,rantool2,2021.1.4,Win32,59.9880024,6135e006383e6ea6c3d06a28,6136481290a81c1cec060451,0.5802,,,,,,,,
f,0,62,62,61,1,6129015eb884f1983f7b9323,RRRRORO,RRRRORR,21.81333602,21.17347734,series_0,6129015eb884f1983f7b9323,Mężczyzna,20,2021-09-06_18h56.15.807,rantool2,2021.1.4,Win32,59.9880024,6135e006383e6ea6c3d06a28,6136481290a81c1cec060451,0.8504,,,,,,,,
j,0,63,63,35,1,6129015eb884f1983f7b9323,ROOORRO,ROOORRR,21.76276513,22.16977179,series_1,6129015eb884f1983f7b9323,Mężczyzna,20,2021-09-06_18h56.15.807,rantool2,2021.1.4,Win32,59.9880024,6135e006383e6ea6c3d06a28,6136481290a81c1cec060451,0.6294,,,,,,,,
,,,,,,6129015eb884f1983f7b9323,,,,,,6129015eb884f1983f7b9323,Mężczyzna,20,2021-09-06_18h56.15.807,rantool2,2021.1.4,Win32,59.9880024,6135e006383e6ea6c3d06a28,6136481290a81c1cec060451,,0,,,0,0,0,0,1
,,,,,,6129015eb884f1983f7b9323,,,,,,6129015eb884f1983f7b9323,Mężczyzna,20,2021-09-06_18h56.15.807,rantool2,2021.1.4,Win32,59.9880024,6135e006383e6ea6c3d06a28,6136481290a81c1cec060451,,"[""period""]",0,[0.4129000000357621],1,0,1,0,1
,,,,,,6129015eb884f1983f7b9323,,,,,,6129015eb884f1983f7b9323,Mężczyzna,20,2021-09-06_18h56.15.807,rantool2,2021.1.4,Win32,59.9880024,6135e006383e6ea6c3d06a28,6136481290a81c1cec060451,,"[""comma""]",0,[0.3171999999880768],2,0,2,0,1
,,,,,,6129015eb884f1983f7b9323,,,,,,6129015eb884f1983f7b9323,Mężczyzna,20,2021-09-06_18h56.15.807,rantool2,2021.1.4,Win32,59.9880024,6135e006383e6ea6c3d06a28,6136481290a81c1cec060451,,"[""period""]",0,[0.27019999998807975],3,0,3,0,1
,,,,,,6129015eb884f1983f7b9323,,,,,,6129015eb884f1983f7b9323,Mężczyzna,20,2021-09-06_18h56.15.807,rantool2,2021.1.4,Win32,59.9880024,6135e006383e6ea6c3d06a28,6136481290a81c1cec060451,,"[""period""]",0,[0.5906999999880895],4,0,4,0,1
,,,,,,6129015eb884f1983f7b9323,,,,,,6129015eb884f1983f7b9323,Mężczyzna,20,2021-09-06_18h56.15.807,rantool2,2021.1.4,Win32,59.9880024,6135e006383e6ea6c3d06a28,6136481290a81c1cec060451,,"[""comma""]",0,[0.8071000000238371],5,0,5,0,1
,,,,,,6129015eb884f1983f7b9323,,,,,,6129015eb884f1983f7b9323,Mężczyzna,20,2021-09-06_18h56.15.807,rantool2,2021.1.4,Win32,59.9880024,6135e006383e6ea6c3d06a28,6136481290a81c1cec060451,,"[""period""]",0,[0.19719999998807225],6,0,6,0,1
,,,,,,6129015eb884f1983f7b9323,,,,,,6129015eb884f1983f7b9323,Mężczyzna,20,2021-09-06_18h56.15.807,rantool2,2021.1.4,Win32,59.9880024,6135e006383e6ea6c3d06a28,6136481290a81c1cec060451,,"[""period""]",0,[0.2803000000119198],7,0,7,0,1
,,,,,,6129015eb884f1983f7b9323,,,,,,6129015eb884f1983f7b9323,Mężczyzna,20,2021-09-06_18h56.15.807,rantool2,2021.1.4,Win32,59.9880024,6135e006383e6ea6c3d06a28,6136481290a81c1cec060451,,0,0,,8,0,8,0,1
,,,,,,6129015eb884f1983f7b9323,,,,,,6129015eb884f1983f7b9323,Mężczyzna,20,2021-09-06_18h56.15.807,rantool2,2021.1.4,Win32,59.9880024,6135e006383e6ea6c3d06a28,6136481290a81c1cec060451,,"[""comma""]",0,[0.2978999999761527],9,0,9,0,1
,,,,,,6129015eb884f1983f7b9323,,,,,,6129015eb884f1983f7b9323,Mężczyzna,20,2021-09-06_18h56.15.807,rantool2,2021.1.4,Win32,59.9880024,6135e006383e6ea6c3d06a28,6136481290a81c1cec060451,,"[""period""]",0,[0.1424000000357637],10,0,10,0,1
,,,,,,6129015eb884f1983f7b9323,,,,,,6129015eb884f1983f7b9323,Mężczyzna,20,2021-09-06_18h56.15.807,rantool2,2021.1.4,Win32,59.9880024,6135e006383e6ea6c3d06a28,6136481290a81c1cec060451,,"[""comma""]",0,[0.21259999996422607],11,0,11,0,1
,,,,,,6129015eb884f1983f7b9323,,,,,,6129015eb884f1983f7b9323,Mężczyzna,20,2021-09-06_18h56.15.807,rantool2,2021.1.4,Win32,59.9880024,6135e006383e6ea6c3d06a28,6136481290a81c1cec060451,,"[""comma""]",0,[0.2901000000238412],12,0,12,0,1
,,,,,,6129015eb884f1983f7b9323,,,,,,6129015eb884f1983f7b9323,Mężczyzna,20,2021-09-06_18h56.15.807,rantool2,2021.1.4,Win32,59.9880024,6135e006383e6ea6c3d06a28,6136481290a81c1cec060451,,"[""comma""]",0,[0.29819999998807134],13,0,13,0,1
,,,,,,6129015eb884f1983f7b9323,,,,,,6129015eb884f1983f7b9323,Mężczyzna,20,2021-09-06_18h56.15.807,rantool2,2021.1.4,Win32,59.9880024,6135e006383e6ea6c3d06a28,6136481290a81c1cec060451,,"[""period""]",0,[0.24580000001191138],14,0,14,0,1
,,,,,,6129015eb884f1983f7b9323,,,,,,6129015eb884f1983f7b9323,Mężczyzna,20,2021-09-06_18h56.15.807,rantool2,2021.1.4,Win32,59.9880024,6135e006383e6ea6c3d06a28,6136481290a81c1cec060451,,"[""period""]",0,[1.1169999999999902],15,0,15,0,1
,,,,,,6129015eb884f1983f7b9323,,,,,,6129015eb884f1983f7b9323,Mężczyzna,20,2021-09-06_18h56.15.807,rantool2,2021.1.4,Win32,59.9880024,6135e006383e6ea6c3d06a28,6136481290a81c1cec060451,,"[""comma""]",0,[0.339099999964219],16,0,16,0,1
,,,,,,6129015eb884f1983f7b9323,,,,,,6129015eb884f1983f7b9323,Mężczyzna,20,2021-09-06_18h56.15.807,rantool2,2021.1.4,Win32,59.9880024,6135e006383e6ea6c3d06a28,6136481290a81c1cec060451,,"[""period""]",0,[0.3047000000476885],17,0,17,0,1
,,,,,,6129015eb884f1983f7b9323,,,,,,6129015eb884f1983f7b9323,Mężczyzna,20,2021-09-06_18h56.15.807,rantool2,2021.1.4,Win32,59.9880024,6135e006383e6ea6c3d06a28,6136481290a81c1cec060451,,"[""comma""]",0,[0.3211999999880675],18,0,18,0,1
,,,,,,6129015eb884f1983f7b9323,,,,,,6129015eb884f1983f7b9323,Mężczyzna,20,2021-09-06_18h56.15.807,rantool2,2021.1.4,Win32,59.9880024,6135e006383e6ea6c3d06a28,6136481290a81c1cec060451,,"[""comma""]",0,[0.20390000003575892],19,0,19,0,1
,,,,,,6129015eb884f1983f7b9323,,,,,,6129015eb884f1983f7b9323,Mężczyzna,20,2021-09-06_18h56.15.807,rantool2,2021.1.4,Win32,59.9880024,6135e006383e6ea6c3d06a28,6136481290a81c1cec060451,,"[""period""]",0,[0.25809999996423016],20,0,20,0,1
,,,,,,6129015eb884f1983f7b9323,,,,,,6129015eb884f1983f7b9323,Mężczyzna,20,2021-09-06_18h56.15.807,rantool2,2021.1.4,Win32,59.9880024,6135e006383e6ea6c3d06a28,6136481290a81c1cec060451,,"[""comma"",""period""]",0,"[0.2080999999642188,1.7836999999880732]",21,0,21,0,1
,,,,,,6129015eb884f1983f7b9323,,,,,,6129015eb884f1983f7b9323,Mężczyzna,20,2021-09-06_18h56.15.807,rantool2,2021.1.4,Win32,59.9880024,6135e006383e6ea6c3d06a28,6136481290a81c1cec060451,,"[""period""]",0,[0.619499999999988],22,0,22,0,1
,,,,,,6129015eb884f1983f7b9323,,,,,,6129015eb884f1983f7b9323,Mężczyzna,20,2021-09-06_18h56.15.807,rantool2,2021.1.4,Win32,59.9880024,6135e006383e6ea6c3d06a28,6136481290a81c1cec060451,,"[""comma""]",0,[0.42459999996421516],23,0,23,0,1
,,,,,,6129015eb884f1983f7b9323,,,,,,6129015eb884f1983f7b9323,Mężczyzna,20,2021-09-06_18h56.15.807,rantool2,2021.1.4,Win32,59.9880024,6135e006383e6ea6c3d06a28,6136481290a81c1cec060451,,"[""period""]",0,[0.2880999999642313],24,0,24,0,1
,,,,,,6129015eb884f1983f7b9323,,,,,,6129015eb884f1983f7b9323,Mężczyzna,20,2021-09-06_18h56.15.807,rantool2,2021.1.4,Win32,59.9880024,6135e006383e6ea6c3d06a28,6136481290a81c1cec060451,,"[""period""]",0,[0.2574999999999932],25,0,25,0,1
,,,,,,6129015eb884f1983f7b9323,,,,,,6129015eb884f1983f7b9323,Mężczyzna,20,2021-09-06_18h56.15.807,rantool2,2021.1.4,Win32,59.9880024,6135e006383e6ea6c3d06a28,6136481290a81c1cec060451,,"[""period""]",0,[0.25660000002383754],26,0,26,0,1
,,,,,,6129015eb884f1983f7b9323,,,,,,6129015eb884f1983f7b9323,Mężczyzna,20,2021-09-06_18h56.15.807,rantool2,2021.1.4,Win32,59.9880024,6135e006383e6ea6c3d06a28,6136481290a81c1cec060451,,"[""comma""]",0,[0.15000000000000568],27,0,27,0,1
,,,,,,6129015eb884f1983f7b9323,,,,,,6129015eb884f1983f7b9323,Mężczyzna,20,2021-09-06_18h56.15.807,rantool2,2021.1.4,Win32,59.9880024,6135e006383e6ea6c3d06a28,6136481290a81c1cec060451,,"[""period""]",0,[0.29040000003575983],28,0,28,0,1
,,,,,,6129015eb884f1983f7b9323,,,,,,6129015eb884f1983f7b9323,Mężczyzna,20,2021-09-06_18h56.15.807,rantool2,2021.1.4,Win32,59.9880024,6135e006383e6ea6c3d06a28,6136481290a81c1cec060451,,"[""period""]",0,[0.2636000000238141],29,0,29,0,1
,,,,,,6129015eb884f1983f7b9323,,,,,,6129015eb884f1983f7b9323,Mężczyzna,20,2021-09-06_18h56.15.807,rantool2,2021.1.4,Win32,59.9880024,6135e006383e6ea6c3d06a28,6136481290a81c1cec060451,,"[""period""]",0,[0.2758999999761613],30,0,30,0,1
,,,,,,6129015eb884f1983f7b9323,,,,,,6129015eb884f1983f7b9323,Mężczyzna,20,2021-09-06_18h56.15.807,rantool2,2021.1.4,Win32,59.9880024,6135e006383e6ea6c3d06a28,6136481290a81c1cec060451,,"[""comma""]",0,[0.3001999999880809],31,0,31,0,1
,,,,,,6129015eb884f1983f7b9323,,,,,,6129015eb884f1983f7b9323,Mężczyzna,20,2021-09-06_18h56.15.807,rantool2,2021.1.4,Win32,59.9880024,6135e006383e6ea6c3d06a28,6136481290a81c1cec060451,,"[""comma""]",0,[0.2933999999761454],32,0,32,0,1
,,,,,,6129015eb884f1983f7b9323,,,,,,6129015eb884f1983f7b9323,Mężczyzna,20,2021-09-06_18h56.15.807,rantool2,2021.1.4,Win32,59.9880024,6135e006383e6ea6c3d06a28,6136481290a81c1cec060451,,"[""comma""]",0,[0.21749999999997272],33,0,33,0,1
,,,,,,6129015eb884f1983f7b9323,,,,,,6129015eb884f1983f7b9323,Mężczyzna,20,2021-09-06_18h56.15.807,rantool2,2021.1.4,Win32,59.9880024,6135e006383e6ea6c3d06a28,6136481290a81c1cec060451,,"[""comma""]",0,[0.35190000003575506],34,0,34,0,1
,,,,,,6129015eb884f1983f7b9323,,,,,,6129015eb884f1983f7b9323,Mężczyzna,20,2021-09-06_18h56.15.807,rantool2,2021.1.4,Win32,59.9880024,6135e006383e6ea6c3d06a28,6136481290a81c1cec060451,,"[""comma""]",0,[0.3429999999999609],35,0,35,0,1
,,,,,,6129015eb884f1983f7b9323,,,,,,6129015eb884f1983f7b9323,Mężczyzna,20,2021-09-06_18h56.15.807,rantool2,2021.1.4,Win32,59.9880024,6135e006383e6ea6c3d06a28,6136481290a81c1cec060451,,"[""comma""]",0,[0.45930000001192184],36,0,36,0,1
,,,,,,6129015eb884f1983f7b9323,,,,,,6129015eb884f1983f7b9323,Mężczyzna,20,2021-09-06_18h56.15.807,rantool2,2021.1.4,Win32,59.9880024,6135e006383e6ea6c3d06a28,6136481290a81c1cec060451,,"[""comma""]",0,[1.6125000000000114],37,0,37,0,1
,,,,,,6129015eb884f1983f7b9323,,,,,,6129015eb884f1983f7b9323,Mężczyzna,20,2021-09-06_18h56.15.807,rantool2,2021.1.4,Win32,59.9880024,6135e006383e6ea6c3d06a28,6136481290a81c1cec060451,,0,0,,38,0,38,0,1
,,,,,,6129015eb884f1983f7b9323,,,,,,6129015eb884f1983f7b9323,Mężczyzna,20,2021-09-06_18h56.15.807,rantool2,2021.1.4,Win32,59.9880024,6135e006383e6ea6c3d06a28,6136481290a81c1cec060451,,"[""comma""]",0,[0.6073000000118896],39,0,39,0,1
,,,,,,6129015eb884f1983f7b9323,,,,,,6129015eb884f1983f7b9323,Mężczyzna,20,2021-09-06_18h56.15.807,rantool2,2021.1.4,Win32,59.9880024,6135e006383e6ea6c3d06a28,6136481290a81c1cec060451,,"[""comma""]",0,[0.2909000000357196],40,0,40,0,1
,,,,,,6129015eb884f1983f7b9323,,,,,,6129015eb884f1983f7b9323,Mężczyzna,20,2021-09-06_18h56.15.807,rantool2,2021.1.4,Win32,59.9880024,6135e006383e6ea6c3d06a28,6136481290a81c1cec060451,,"[""comma""]",0,[0.42780000001192775],41,0,41,0,1
,,,,,,6129015eb884f1983f7b9323,,,,,,6129015eb884f1983f7b9323,Mężczyzna,20,2021-09-06_18h56.15.807,rantool2,2021.1.4,Win32,59.9880024,6135e006383e6ea6c3d06a28,6136481290a81c1cec060451,,"[""comma""]",0,[0.6741000000238273],42,0,42,0,1
,,,,,,6129015eb884f1983f7b9323,,,,,,6129015eb884f1983f7b9323,Mężczyzna,20,2021-09-06_18h56.15.807,rantool2,2021.1.4,Win32,59.9880024,6135e006383e6ea6c3d06a28,6136481290a81c1cec060451,,"[""comma""]",0,[0.29450000000002774],43,0,43,0,1
,,,,,,6129015eb884f1983f7b9323,,,,,,6129015eb884f1983f7b9323,Mężczyzna,20,2021-09-06_18h56.15.807,rantool2,2021.1.4,Win32,59.9880024,6135e006383e6ea6c3d06a28,6136481290a81c1cec060451,,"[""period""]",0,[0.19750000000004775],44,0,44,0,1
,,,,,,6129015eb884f1983f7b9323,,,,,,6129015eb884f1983f7b9323,Mężczyzna,20,2021-09-06_18h56.15.807,rantool2,2021.1.4,Win32,59.9880024,6135e006383e6ea6c3d06a28,6136481290a81c1cec060451,,"[""period""]",0,[0.3176999999881218],45,0,45,0,1
,,,,,,6129015eb884f1983f7b9323,,,,,,6129015eb884f1983f7b9323,Mężczyzna,20,2021-09-06_18h56.15.807,rantool2,2021.1.4,Win32,59.9880024,6135e006383e6ea6c3d06a28,6136481290a81c1cec060451,,"[""comma""]",0,[0.7030999999642518],46,0,46,0,1
,,,,,,6129015eb884f1983f7b9323,,,,,,6129015eb884f1983f7b9323,Mężczyzna,20,2021-09-06_18h56.15.807,rantool2,2021.1.4,Win32,59.9880024,6135e006383e6ea6c3d06a28,6136481290a81c1cec060451,,"[""comma""]",0,[0.27719999998805633],47,0,47,0,1
,,,,,,6129015eb884f1983f7b9323,,,,,,6129015eb884f1983f7b9323,Mężczyzna,20,2021-09-06_18h56.15.807,rantool2,2021.1.4,Win32,59.9880024,6135e006383e6ea6c3d06a28,6136481290a81c1cec060451,,"[""comma""]",0,[0.31729999995235403],48,0,48,0,1
,,,,,,6129015eb884f1983f7b9323,,,,,,6129015eb884f1983f7b9323,Mężczyzna,20,2021-09-06_18h56.15.807,rantool2,2021.1.4,Win32,59.9880024,6135e006383e6ea6c3d06a28,6136481290a81c1cec060451,,"[""comma""]",0,[0.4119999999999777],49,0,49,0,1
,,,,,,6129015eb884f1983f7b9323,,,,,,6129015eb884f1983f7b9323,Mężczyzna,20,2021-09-06_18h56.15.807,rantool2,2021.1.4,Win32,59.9880024,6135e006383e6ea6c3d06a28,6136481290a81c1cec060451,,"[""period""]",0,[0.3551000000238105],50,0,50,0,1
,,,,,,6129015eb884f1983f7b9323,,,,,,6129015eb884f1983f7b9323,Mężczyzna,20,2021-09-06_18h56.15.807,rantool2,2021.1.4,Win32,59.9880024,6135e006383e6ea6c3d06a28,6136481290a81c1cec060451,,"[""comma""]",0,[0.6378000000119073],51,0,51,0,1
,,,,,,6129015eb884f1983f7b9323,,,,,,6129015eb884f1983f7b9323,Mężczyzna,20,2021-09-06_18h56.15.807,rantool2,2021.1.4,Win32,59.9880024,6135e006383e6ea6c3d06a28,6136481290a81c1cec060451,,"[""period""]",0,[0.41730000001194867],52,0,52,0,1
,,,,,,6129015eb884f1983f7b9323,,,,,,6129015eb884f1983f7b9323,Mężczyzna,20,2021-09-06_18h56.15.807,rantool2,2021.1.4,Win32,59.9880024,6135e006383e6ea6c3d06a28,6136481290a81c1cec060451,,"[""period""]",0,[0.4855000000000018],53,0,53,0,1
,,,,,,6129015eb884f1983f7b9323,,,,,,6129015eb884f1983f7b9323,Mężczyzna,20,2021-09-06_18h56.15.807,rantool2,2021.1.4,Win32,59.9880024,6135e006383e6ea6c3d06a28,6136481290a81c1cec060451,,"[""period""]",0,[0.6103000000118755],54,0,54,0,1
,,,,,,6129015eb884f1983f7b9323,,,,,,6129015eb884f1983f7b9323,Mężczyzna,20,2021-09-06_18h56.15.807,rantool2,2021.1.4,Win32,59.9880024,6135e006383e6ea6c3d06a28,6136481290a81c1cec060451,,"[""comma""]",0,[0.8304999999999723],55,0,55,0,1
,,,,,,6129015eb884f1983f7b9323,,,,,,6129015eb884f1983f7b9323,Mężczyzna,20,2021-09-06_18h56.15.807,rantool2,2021.1.4,Win32,59.9880024,6135e006383e6ea6c3d06a28,6136481290a81c1cec060451,,"[""comma""]",0,[0.7360000000000468],56,0,56,0,1
,,,,,,6129015eb884f1983f7b9323,,,,,,6129015eb884f1983f7b9323,Mężczyzna,20,2021-09-06_18h56.15.807,rantool2,2021.1.4,Win32,59.9880024,6135e006383e6ea6c3d06a28,6136481290a81c1cec060451,,"[""comma""]",0,[0.5910999999642854],57,0,57,0,1
,,,,,,6129015eb884f1983f7b9323,,,,,,6129015eb884f1983f7b9323,Mężczyzna,20,2021-09-06_18h56.15.807,rantool2,2021.1.4,Win32,59.9880024,6135e006383e6ea6c3d06a28,6136481290a81c1cec060451,,"[""comma""]",0,[0.2694000000357164],58,0,58,0,1
,,,,,,6129015eb884f1983f7b9323,,,,,,6129015eb884f1983f7b9323,Mężczyzna,20,2021-09-06_18h56.15.807,rantool2,2021.1.4,Win32,59.9880024,6135e006383e6ea6c3d06a28,6136481290a81c1cec060451,,"[""comma""]",0,[0.5932999999523076],59,0,59,0,1
,,,,,,6129015eb884f1983f7b9323,,,,,,6129015eb884f1983f7b9323,Mężczyzna,20,2021-09-06_18h56.15.807,rantool2,2021.1.4,Win32,59.9880024,6135e006383e6ea6c3d06a28,6136481290a81c1cec060451,,"[""period""]",0,[0.4616999999881273],60,0,60,0,1
,,,,,,6129015eb884f1983f7b9323,,,,,,6129015eb884f1983f7b9323,Mężczyzna,20,2021-09-06_18h56.15.807,rantool2,2021.1.4,Win32,59.9880024,6135e006383e6ea6c3d06a28,6136481290a81c1cec060451,,"[""period""]",0,[0.6644000000357551],61,0,61,0,1
,,,,,,6129015eb884f1983f7b9323,,,,,,6129015eb884f1983f7b9323,Mężczyzna,20,2021-09-06_18h56.15.807,rantool2,2021.1.4,Win32,59.9880024,6135e006383e6ea6c3d06a28,6136481290a81c1cec060451,,"[""period""]",0,[0.4924000000357296],62,0,62,0,1
,,,,,,6129015eb884f1983f7b9323,,,,,,6129015eb884f1983f7b9323,Mężczyzna,20,2021-09-06_18h56.15.807,rantool2,2021.1.4,Win32,59.9880024,6135e006383e6ea6c3d06a28,6136481290a81c1cec060451,,"[""comma""]",0,[0.8236000000238164],63,0,63,0,1
,,,,,,6129015eb884f1983f7b9323,,,,,,6129015eb884f1983f7b9323,Mężczyzna,20,2021-09-06_18h56.15.807,rantool2,2021.1.4,Win32,59.9880024,6135e006383e6ea6c3d06a28,6136481290a81c1cec060451,,"[""comma""]",0,[0.3805000000000405],64,0,64,0,1
,,,,,,6129015eb884f1983f7b9323,,,,,,6129015eb884f1983f7b9323,Mężczyzna,20,2021-09-06_18h56.15.807,rantool2,2021.1.4,Win32,59.9880024,6135e006383e6ea6c3d06a28,6136481290a81c1cec060451,,"[""comma""]",0,[0.29930000001195367],65,0,65,0,1
,,,,,,6129015eb884f1983f7b9323,,,,,,6129015eb884f1983f7b9323,Mężczyzna,20,2021-09-06_18h56.15.807,rantool2,2021.1.4,Win32,59.9880024,6135e006383e6ea6c3d06a28,6136481290a81c1cec060451,,"[""period""]",0,[0.2796999999881109],66,0,66,0,1
,,,,,,6129015eb884f1983f7b9323,,,,,,6129015eb884f1983f7b9323,Mężczyzna,20,2021-09-06_18h56.15.807,rantool2,2021.1.4,Win32,59.9880024,6135e006383e6ea6c3d06a28,6136481290a81c1cec060451,,"[""period""]",0,[0.2971000000238746],67,0,67,0,1
,,,,,,6129015eb884f1983f7b9323,,,,,,6129015eb884f1983f7b9323,Mężczyzna,20,2021-09-06_18h56.15.807,rantool2,2021.1.4,Win32,59.9880024,6135e006383e6ea6c3d06a28,6136481290a81c1cec060451,,"[""period""]",0,[0.2510000000000332],68,0,68,0,1
,,,,,,6129015eb884f1983f7b9323,,,,,,6129015eb884f1983f7b9323,Mężczyzna,20,2021-09-06_18h56.15.807,rantool2,2021.1.4,Win32,59.9880024,6135e006383e6ea6c3d06a28,6136481290a81c1cec060451,,"[""period""]",0,[0.2843000000119673],69,0,69,0,1
,,,,,,6129015eb884f1983f7b9323,,,,,,6129015eb884f1983f7b9323,Mężczyzna,20,2021-09-06_18h56.15.807,rantool2,2021.1.4,Win32,59.9880024,6135e006383e6ea6c3d06a28,6136481290a81c1cec060451,,"[""period""]",0,[0.31799999999998363],70,0,70,0,1
,,,,,,6129015eb884f1983f7b9323,,,,,,6129015eb884f1983f7b9323,Mężczyzna,20,2021-09-06_18h56.15.807,rantool2,2021.1.4,Win32,59.9880024,6135e006383e6ea6c3d06a28,6136481290a81c1cec060451,,"[""comma""]",0,[0.2766000000237909],71,0,71,0,1
,,,,,,6129015eb884f1983f7b9323,,,,,,6129015eb884f1983f7b9323,Mężczyzna,20,2021-09-06_18h56.15.807,rantool2,2021.1.4,Win32,59.9880024,6135e006383e6ea6c3d06a28,6136481290a81c1cec060451,,"[""comma""]",0,[0.3509999999999991],72,0,72,0,1
,,,,,,6129015eb884f1983f7b9323,,,,,,6129015eb884f1983f7b9323,Mężczyzna,20,2021-09-06_18h56.15.807,rantool2,2021.1.4,Win32,59.9880024,6135e006383e6ea6c3d06a28,6136481290a81c1cec060451,,"[""comma""]",0,[0.35550000000000637],73,0,73,0,1
,,,,,,6129015eb884f1983f7b9323,,,,,,6129015eb884f1983f7b9323,Mężczyzna,20,2021-09-06_18h56.15.807,rantool2,2021.1.4,Win32,59.9880024,6135e006383e6ea6c3d06a28,6136481290a81c1cec060451,,"[""period""]",0,[0.23550000000000182],74,0,74,0,1
,,,,,,6129015eb884f1983f7b9323,,,,,,6129015eb884f1983f7b9323,Mężczyzna,20,2021-09-06_18h56.15.807,rantool2,2021.1.4,Win32,59.9880024,6135e006383e6ea6c3d06a28,6136481290a81c1cec060451,,"[""period""]",0,[0.21289999997617315],75,0,75,0,1
,,,,,,6129015eb884f1983f7b9323,,,,,,6129015eb884f1983f7b9323,Mężczyzna,20,2021-09-06_18h56.15.807,rantool2,2021.1.4,Win32,59.9880024,6135e006383e6ea6c3d06a28,6136481290a81c1cec060451,,"[""period""]",0,[0.26719999998806543],76,0,76,0,1
,,,,,,6129015eb884f1983f7b9323,,,,,,6129015eb884f1983f7b9323,Mężczyzna,20,2021-09-06_18h56.15.807,rantool2,2021.1.4,Win32,59.9880024,6135e006383e6ea6c3d06a28,6136481290a81c1cec060451,,"[""period""]",0,[0.40339999997615905],77,0,77,0,1
,,,,,,6129015eb884f1983f7b9323,,,,,,6129015eb884f1983f7b9323,Mężczyzna,20,2021-09-06_18h56.15.807,rantool2,2021.1.4,Win32,59.9880024,6135e006383e6ea6c3d06a28,6136481290a81c1cec060451,,"[""period""]",0,[0.4647000000476851],78,0,78,0,1
,,,,,,6129015eb884f1983f7b9323,,,,,,6129015eb884f1983f7b9323,Mężczyzna,20,2021-09-06_18h56.15.807,rantool2,2021.1.4,Win32,59.9880024,6135e006383e6ea6c3d06a28,6136481290a81c1cec060451,,"[""comma""]",0,[0.5688999999761677],79,0,79,0,1
,,,,,,6129015eb884f1983f7b9323,,,,,,6129015eb884f1983f7b9323,Mężczyzna,20,2021-09-06_18h56.15.807,rantool2,2021.1.4,Win32,59.9880024,6135e006383e6ea6c3d06a28,6136481290a81c1cec060451,,"[""comma""]",0,[0.36950000000001637],80,0,80,0,1
,,,,,,6129015eb884f1983f7b9323,,,,,,6129015eb884f1983f7b9323,Mężczyzna,20,2021-09-06_18h56.15.807,rantool2,2021.1.4,Win32,59.9880024,6135e006383e6ea6c3d06a28,6136481290a81c1cec060451,,"[""comma""]",0,[0.3210000000000264],81,0,81,0,1
,,,,,,6129015eb884f1983f7b9323,,,,,,6129015eb884f1983f7b9323,Mężczyzna,20,2021-09-06_18h56.15.807,rantool2,2021.1.4,Win32,59.9880024,6135e006383e6ea6c3d06a28,6136481290a81c1cec060451,,"[""comma""]",0,[0.31730000001192593],82,0,82,0,1
,,,,,,6129015eb884f1983f7b9323,,,,,,6129015eb884f1983f7b9323,Mężczyzna,20,2021-09-06_18h56.15.807,rantool2,2021.1.4,Win32,59.9880024,6135e006383e6ea6c3d06a28,6136481290a81c1cec060451,,"[""comma""]",0,[0.2651000000238355],83,0,83,0,1
,,,,,,6129015eb884f1983f7b9323,,,,,,6129015eb884f1983f7b9323,Mężczyzna,20,2021-09-06_18h56.15.807,rantool2,2021.1.4,Win32,59.9880024,6135e006383e6ea6c3d06a28,6136481290a81c1cec060451,,"[""comma""]",0,[0.2966999999881068],84,0,84,0,1
,,,,,,6129015eb884f1983f7b9323,,,,,,6129015eb884f1983f7b9323,Mężczyzna,20,2021-09-06_18h56.15.807,rantool2,2021.1.4,Win32,59.9880024,6135e006383e6ea6c3d06a28,6136481290a81c1cec060451,,"[""comma""]",0,[0.3135999999642536],85,0,85,0,1
,,,,,,6129015eb884f1983f7b9323,,,,,,6129015eb884f1983f7b9323,Mężczyzna,20,2021-09-06_18h56.15.807,rantool2,2021.1.4,Win32,59.9880024,6135e006383e6ea6c3d06a28,6136481290a81c1cec060451,,"[""comma""]",0,[0.18909999996424176],86,0,86,0,1
,,,,,,6129015eb884f1983f7b9323,,,,,,6129015eb884f1983f7b9323,Mężczyzna,20,2021-09-06_18h56.15.807,rantool2,2021.1.4,Win32,59.9880024,6135e006383e6ea6c3d06a28,6136481290a81c1cec060451,,"[""comma""]",0,[0.31150000000002365],87,0,87,0,1
,,,,,,6129015eb884f1983f7b9323,,,,,,6129015eb884f1983f7b9323,Mężczyzna,20,2021-09-06_18h56.15.807,rantool2,2021.1.4,Win32,59.9880024,6135e006383e6ea6c3d06a28,6136481290a81c1cec060451,,"[""period""]",0,[0.2272000000476737],88,0,88,0,1
,,,,,,6129015eb884f1983f7b9323,,,,,,6129015eb884f1983f7b9323,Mężczyzna,20,2021-09-06_18h56.15.807,rantool2,2021.1.4,Win32,59.9880024,6135e006383e6ea6c3d06a28,6136481290a81c1cec060451,,"[""comma""]",0,[0.2515000000000214],89,0,89,0,1
,,,,,,6129015eb884f1983f7b9323,,,,,,6129015eb884f1983f7b9323,Mężczyzna,20,2021-09-06_18h56.15.807,rantool2,2021.1.4,Win32,59.9880024,6135e006383e6ea6c3d06a28,6136481290a81c1cec060451,,"[""period""]",0,[0.40670000004769236],90,0,90,0,1
,,,,,,6129015eb884f1983f7b9323,,,,,,6129015eb884f1983f7b9323,Mężczyzna,20,2021-09-06_18h56.15.807,rantool2,2021.1.4,Win32,59.9880024,6135e006383e6ea6c3d06a28,6136481290a81c1cec060451,,"[""period""]",0,[0.29239999997616906],91,0,91,0,1
,,,,,,6129015eb884f1983f7b9323,,,,,,6129015eb884f1983f7b9323,Mężczyzna,20,2021-09-06_18h56.15.807,rantool2,2021.1.4,Win32,59.9880024,6135e006383e6ea6c3d06a28,6136481290a81c1cec060451,,"[""period""]",0,[0.2674000000357637],92,0,92,0,1
,,,,,,6129015eb884f1983f7b9323,,,,,,6129015eb884f1983f7b9323,Mężczyzna,20,2021-09-06_18h56.15.807,rantool2,2021.1.4,Win32,59.9880024,6135e006383e6ea6c3d06a28,6136481290a81c1cec060451,,"[""period""]",0,[0.0420999999642504],93,0,93,0,1
,,,,,,6129015eb884f1983f7b9323,,,,,,6129015eb884f1983f7b9323,Mężczyzna,20,2021-09-06_18h56.15.807,rantool2,2021.1.4,Win32,59.9880024,6135e006383e6ea6c3d06a28,6136481290a81c1cec060451,,"[""period""]",0,[0.21369999998807998],94,0,94,0,1
,,,,,,6129015eb884f1983f7b9323,,,,,,6129015eb884f1983f7b9323,Mężczyzna,20,2021-09-06_18h56.15.807,rantool2,2021.1.4,Win32,59.9880024,6135e006383e6ea6c3d06a28,6136481290a81c1cec060451,,"[""comma""]",0,[0.18299999999999272],95,0,95,0,1
,,,,,,6129015eb884f1983f7b9323,,,,,,6129015eb884f1983f7b9323,Mężczyzna,20,2021-09-06_18h56.15.807,rantool2,2021.1.4,Win32,59.9880024,6135e006383e6ea6c3d06a28,6136481290a81c1cec060451,,"[""comma""]",0,[0.4440000000000168],96,0,96,0,1
,,,,,,6129015eb884f1983f7b9323,,,,,,6129015eb884f1983f7b9323,Mężczyzna,20,2021-09-06_18h56.15.807,rantool2,2021.1.4,Win32,59.9880024,6135e006383e6ea6c3d06a28,6136481290a81c1cec060451,,"[""comma""]",0,[0.4761000000238482],97,0,97,0,1
,,,,,,6129015eb884f1983f7b9323,,,,,,6129015eb884f1983f7b9323,Mężczyzna,20,2021-09-06_18h56.15.807,rantool2,2021.1.4,Win32,59.9880024,6135e006383e6ea6c3d06a28,6136481290a81c1cec060451,,"[""comma""]",0,[0.2669999999999959],98,0,98,0,1
,,,,,,6129015eb884f1983f7b9323,,,,,,6129015eb884f1983f7b9323,Mężczyzna,20,2021-09-06_18h56.15.807,rantool2,2021.1.4,Win32,59.9880024,6135e006383e6ea6c3d06a28,6136481290a81c1cec060451,,"[""comma""]",0,[0.25540000003576324],99,0,99,0,1
,,,,,,6129015eb884f1983f7b9323,,,,,,6129015eb884f1983f7b9323,Mężczyzna,20,2021-09-06_18h56.15.807,rantool2,2021.1.4,Win32,59.9880024,6135e006383e6ea6c3d06a28,6136481290a81c1cec060451,,"[""comma""]",0,[0.5336999999880732],100,0,100,0,1
,,,,,,6129015eb884f1983f7b9323,,,,,,6129015eb884f1983f7b9323,Mężczyzna,20,2021-09-06_18h56.15.807,rantool2,2021.1.4,Win32,59.9880024,6135e006383e6ea6c3d06a28,6136481290a81c1cec060451,,"[""period""]",0,[0.8665999999642509],101,0,101,0,1
,,,,,,6129015eb884f1983f7b9323,,,,,,6129015eb884f1983f7b9323,Mężczyzna,20,2021-09-06_18h56.15.807,rantool2,2021.1.4,Win32,59.9880024,6135e006383e6ea6c3d06a28,6136481290a81c1cec060451,,"[""period""]",0,[0.27369999998808225],102,0,102,0,1
,,,,,,6129015eb884f1983f7b9323,,,,,,6129015eb884f1983f7b9323,Mężczyzna,20,2021-09-06_18h56.15.807,rantool2,2021.1.4,Win32,59.9880024,6135e006383e6ea6c3d06a28,6136481290a81c1cec060451,,"[""comma"",""comma""]",0,"[0.08549999999996771,1.975500000000011]",103,0,103,0,1
,,,,,,6129015eb884f1983f7b9323,,,,,,6129015eb884f1983f7b9323,Mężczyzna,20,2021-09-06_18h56.15.807,rantool2,2021.1.4,Win32,59.9880024,6135e006383e6ea6c3d06a28,6136481290a81c1cec060451,,0,0,,104,0,104,0,1
,,,,,,6129015eb884f1983f7b9323,,,,,,6129015eb884f1983f7b9323,Mężczyzna,20,2021-09-06_18h56.15.807,rantool2,2021.1.4,Win32,59.9880024,6135e006383e6ea6c3d06a28,6136481290a81c1cec060451,,"[""comma""]",0,[0.2704000000357496],105,0,105,0,1
,,,,,,6129015eb884f1983f7b9323,,,,,,6129015eb884f1983f7b9323,Mężczyzna,20,2021-09-06_18h56.15.807,rantool2,2021.1.4,Win32,59.9880024,6135e006383e6ea6c3d06a28,6136481290a81c1cec060451,,"[""comma""]",0,[0.3091000000238182],106,0,106,0,1
,,,,,,6129015eb884f1983f7b9323,,,,,,6129015eb884f1983f7b9323,Mężczyzna,20,2021-09-06_18h56.15.807,rantool2,2021.1.4,Win32,59.9880024,6135e006383e6ea6c3d06a28,6136481290a81c1cec060451,,"[""comma""]",0,[0.3568000000119014],107,0,107,0,1
,,,,,,6129015eb884f1983f7b9323,,,,,,6129015eb884f1983f7b9323,Mężczyzna,20,2021-09-06_18h56.15.807,rantool2,2021.1.4,Win32,59.9880024,6135e006383e6ea6c3d06a28,6136481290a81c1cec060451,,"[""comma""]",0,[0.3006000000238487],108,0,108,0,1
,,,,,,6129015eb884f1983f7b9323,,,,,,6129015eb884f1983f7b9323,Mężczyzna,20,2021-09-06_18h56.15.807,rantool2,2021.1.4,Win32,59.9880024,6135e006383e6ea6c3d06a28,6136481290a81c1cec060451,,"[""comma""]",0,[0.32160000002380684],109,0,109,0,1
,,,,,,6129015eb884f1983f7b9323,,,,,,6129015eb884f1983f7b9323,Mężczyzna,20,2021-09-06_18h56.15.807,rantool2,2021.1.4,Win32,59.9880024,6135e006383e6ea6c3d06a28,6136481290a81c1cec060451,,"[""comma""]",0,[0.2686999999880868],110,0,110,0,1
,,,,,,6129015eb884f1983f7b9323,,,,,,6129015eb884f1983f7b9323,Mężczyzna,20,2021-09-06_18h56.15.807,rantool2,2021.1.4,Win32,59.9880024,6135e006383e6ea6c3d06a28,6136481290a81c1cec060451,,"[""comma""]",0,[0.517799999952274],111,0,111,0,1
,,,,,,6129015eb884f1983f7b9323,,,,,,6129015eb884f1983f7b9323,Mężczyzna,20,2021-09-06_18h56.15.807,rantool2,2021.1.4,Win32,59.9880024,6135e006383e6ea6c3d06a28,6136481290a81c1cec060451,,"[""comma""]",0,[0.2980999999642222],112,0,112,0,1
,,,,,,6129015eb884f1983f7b9323,,,,,,6129015eb884f1983f7b9323,Mężczyzna,20,2021-09-06_18h56.15.807,rantool2,2021.1.4,Win32,59.9880024,6135e006383e6ea6c3d06a28,6136481290a81c1cec060451,,"[""comma""]",0,[0.31399999999996453],113,0,113,0,1
,,,,,,6129015eb884f1983f7b9323,,,,,,6129015eb884f1983f7b9323,Mężczyzna,20,2021-09-06_18h56.15.807,rantool2,2021.1.4,Win32,59.9880024,6135e006383e6ea6c3d06a28,6136481290a81c1cec060451,,"[""comma""]",0,[1.0135999999642422],114,0,114,0,1
,,,,,,6129015eb884f1983f7b9323,,,,,,6129015eb884f1983f7b9323,Mężczyzna,20,2021-09-06_18h56.15.807,rantool2,2021.1.4,Win32,59.9880024,6135e006383e6ea6c3d06a28,6136481290a81c1cec060451,,"[""comma"",""comma""]",0,"[0.25410000002386823,1.9373999999761509]",115,0,115,0,1
,,,,,,6129015eb884f1983f7b9323,,,,,,6129015eb884f1983f7b9323,Mężczyzna,20,2021-09-06_18h56.15.807,rantool2,2021.1.4,Win32,59.9880024,6135e006383e6ea6c3d06a28,6136481290a81c1cec060451,,"[""comma""]",0,[0.2469000000357937],116,0,116,0,1
,,,,,,6129015eb884f1983f7b9323,,,,,,6129015eb884f1983f7b9323,Mężczyzna,20,2021-09-06_18h56.15.807,rantool2,2021.1.4,Win32,59.9880024,6135e006383e6ea6c3d06a28,6136481290a81c1cec060451,,"[""comma""]",0,[0.2776999999880445],117,0,117,0,1
,,,,,,6129015eb884f1983f7b9323,,,,,,6129015eb884f1983f7b9323,Mężczyzna,20,2021-09-06_18h56.15.807,rantool2,2021.1.4,Win32,59.9880024,6135e006383e6ea6c3d06a28,6136481290a81c1cec060451,,"[""period""]",0,[0.2745999999642095],118,0,118,0,1
,,,,,,6129015eb884f1983f7b9323,,,,,,6129015eb884f1983f7b9323,Mężczyzna,20,2021-09-06_18h56.15.807,rantool2,2021.1.4,Win32,59.9880024,6135e006383e6ea6c3d06a28,6136481290a81c1cec060451,,"[""period"",""period""]",0,"[0.27099999999995816,1.9464999999999577]",119,0,119,0,1
