key_resp_5.keys,key_resp_5.corr,key_resp_5.rt,trials.thisRepN,trials.thisTrialN,trials.thisN,trials.thisIndex,trials.ran,id*,Płeć*,Wiek*,date,expName,psychopyVersion,OS,frameRate,id,STUDY_ID,SESSION_ID,key_resp_7.keys,key_resp_7.rt,trials_2.thisRepN,trials_2.thisTrialN,trials_2.thisN,trials_2.thisIndex,trials_2.ran,series_0,series_1,acss_0,acss_1,comparison
"[""comma""]",0,[0.7553999999761558],0,0,0,0,1,6066e7e5642c6520dabcdb5b,Mężczyzna,20,2021-07-13_22h01.25.654,rantool2,2021.1.4,Win32,59.66231132,6066e7e5642c6520dabcdb5b,60d9d14f4a8a35a482e0d9bf,60edef3eee977e4d5a263b78,,,,,,,,,,,,
"[""period""]",0,[0.3177999999523138],1,0,1,0,1,6066e7e5642c6520dabcdb5b,Mężczyzna,20,2021-07-13_22h01.25.654,rantool2,2021.1.4,Win32,59.66231132,6066e7e5642c6520dabcdb5b,60d9d14f4a8a35a482e0d9bf,60edef3eee977e4d5a263b78,,,,,,,,,,,,
"[""period""]",0,[0.08689999997616127],2,0,2,0,1,6066e7e5642c6520dabcdb5b,Mężczyzna,20,2021-07-13_22h01.25.654,rantool2,2021.1.4,Win32,59.66231132,6066e7e5642c6520dabcdb5b,60d9d14f4a8a35a482e0d9bf,60edef3eee977e4d5a263b78,,,,,,,,,,,,
"[""comma""]",0,[-0.006099999964234826],3,0,3,0,1,6066e7e5642c6520dabcdb5b,Mężczyzna,20,2021-07-13_22h01.25.654,rantool2,2021.1.4,Win32,59.66231132,6066e7e5642c6520dabcdb5b,60d9d14f4a8a35a482e0d9bf,60edef3eee977e4d5a263b78,,,,,,,,,,,,
"[""period""]",0,[0.03540000003576438],4,0,4,0,1,6066e7e5642c6520dabcdb5b,Mężczyzna,20,2021-07-13_22h01.25.654,rantool2,2021.1.4,Win32,59.66231132,6066e7e5642c6520dabcdb5b,60d9d14f4a8a35a482e0d9bf,60edef3eee977e4d5a263b78,,,,,,,,,,,,
"[""comma""]",0,[0.28410000002384095],5,0,5,0,1,6066e7e5642c6520dabcdb5b,Mężczyzna,20,2021-07-13_22h01.25.654,rantool2,2021.1.4,Win32,59.66231132,6066e7e5642c6520dabcdb5b,60d9d14f4a8a35a482e0d9bf,60edef3eee977e4d5a263b78,,,,,,,,,,,,
"[""period""]",0,[0.2716000000238381],6,0,6,0,1,6066e7e5642c6520dabcdb5b,Mężczyzna,20,2021-07-13_22h01.25.654,rantool2,2021.1.4,Win32,59.66231132,6066e7e5642c6520dabcdb5b,60d9d14f4a8a35a482e0d9bf,60edef3eee977e4d5a263b78,,,,,,,,,,,,
"[""period""]",0,[0.20830000001192417],7,0,7,0,1,6066e7e5642c6520dabcdb5b,Mężczyzna,20,2021-07-13_22h01.25.654,rantool2,2021.1.4,Win32,59.66231132,6066e7e5642c6520dabcdb5b,60d9d14f4a8a35a482e0d9bf,60edef3eee977e4d5a263b78,,,,,,,,,,,,
"[""comma""]",0,[0.15610000002384083],8,0,8,0,1,6066e7e5642c6520dabcdb5b,Mężczyzna,20,2021-07-13_22h01.25.654,rantool2,2021.1.4,Win32,59.66231132,6066e7e5642c6520dabcdb5b,60d9d14f4a8a35a482e0d9bf,60edef3eee977e4d5a263b78,,,,,,,,,,,,
"[""comma""]",0,[0.024099999964235508],9,0,9,0,1,6066e7e5642c6520dabcdb5b,Mężczyzna,20,2021-07-13_22h01.25.654,rantool2,2021.1.4,Win32,59.66231132,6066e7e5642c6520dabcdb5b,60d9d14f4a8a35a482e0d9bf,60edef3eee977e4d5a263b78,,,,,,,,,,,,
"[""period""]",0,[0.06570000004768417],10,0,10,0,1,6066e7e5642c6520dabcdb5b,Mężczyzna,20,2021-07-13_22h01.25.654,rantool2,2021.1.4,Win32,59.66231132,6066e7e5642c6520dabcdb5b,60d9d14f4a8a35a482e0d9bf,60edef3eee977e4d5a263b78,,,,,,,,,,,,
"[""period""]",0,[0.06859999996423483],11,0,11,0,1,6066e7e5642c6520dabcdb5b,Mężczyzna,20,2021-07-13_22h01.25.654,rantool2,2021.1.4,Win32,59.66231132,6066e7e5642c6520dabcdb5b,60d9d14f4a8a35a482e0d9bf,60edef3eee977e4d5a263b78,,,,,,,,,,,,
"[""period""]",0,[0.11950000000000216],12,0,12,0,1,6066e7e5642c6520dabcdb5b,Mężczyzna,20,2021-07-13_22h01.25.654,rantool2,2021.1.4,Win32,59.66231132,6066e7e5642c6520dabcdb5b,60d9d14f4a8a35a482e0d9bf,60edef3eee977e4d5a263b78,,,,,,,,,,,,
"[""comma"",""comma""]",0,"[0.04999999999999716,1.9057000000476734]",13,0,13,0,1,6066e7e5642c6520dabcdb5b,Mężczyzna,20,2021-07-13_22h01.25.654,rantool2,2021.1.4,Win32,59.66231132,6066e7e5642c6520dabcdb5b,60d9d14f4a8a35a482e0d9bf,60edef3eee977e4d5a263b78,,,,,,,,,,,,
0,0,,14,0,14,0,1,6066e7e5642c6520dabcdb5b,Mężczyzna,20,2021-07-13_22h01.25.654,rantool2,2021.1.4,Win32,59.66231132,6066e7e5642c6520dabcdb5b,60d9d14f4a8a35a482e0d9bf,60edef3eee977e4d5a263b78,,,,,,,,,,,,
"[""period""]",0,[0.15980000001191286],15,0,15,0,1,6066e7e5642c6520dabcdb5b,Mężczyzna,20,2021-07-13_22h01.25.654,rantool2,2021.1.4,Win32,59.66231132,6066e7e5642c6520dabcdb5b,60d9d14f4a8a35a482e0d9bf,60edef3eee977e4d5a263b78,,,,,,,,,,,,
"[""comma""]",0,[0.03419999998807555],16,0,16,0,1,6066e7e5642c6520dabcdb5b,Mężczyzna,20,2021-07-13_22h01.25.654,rantool2,2021.1.4,Win32,59.66231132,6066e7e5642c6520dabcdb5b,60d9d14f4a8a35a482e0d9bf,60edef3eee977e4d5a263b78,,,,,,,,,,,,
"[""period""]",0,[0.0841999999880727],17,0,17,0,1,6066e7e5642c6520dabcdb5b,Mężczyzna,20,2021-07-13_22h01.25.654,rantool2,2021.1.4,Win32,59.66231132,6066e7e5642c6520dabcdb5b,60d9d14f4a8a35a482e0d9bf,60edef3eee977e4d5a263b78,,,,,,,,,,,,
"[""comma""]",0,[0.08119999998807259],18,0,18,0,1,6066e7e5642c6520dabcdb5b,Mężczyzna,20,2021-07-13_22h01.25.654,rantool2,2021.1.4,Win32,59.66231132,6066e7e5642c6520dabcdb5b,60d9d14f4a8a35a482e0d9bf,60edef3eee977e4d5a263b78,,,,,,,,,,,,
"[""comma""]",0,[0.02130000001191945],19,0,19,0,1,6066e7e5642c6520dabcdb5b,Mężczyzna,20,2021-07-13_22h01.25.654,rantool2,2021.1.4,Win32,59.66231132,6066e7e5642c6520dabcdb5b,60d9d14f4a8a35a482e0d9bf,60edef3eee977e4d5a263b78,,,,,,,,,,,,
"[""comma""]",0,[0.15810000002383617],20,0,20,0,1,6066e7e5642c6520dabcdb5b,Mężczyzna,20,2021-07-13_22h01.25.654,rantool2,2021.1.4,Win32,59.66231132,6066e7e5642c6520dabcdb5b,60d9d14f4a8a35a482e0d9bf,60edef3eee977e4d5a263b78,,,,,,,,,,,,
"[""comma""]",0,[0.16869999998807828],21,0,21,0,1,6066e7e5642c6520dabcdb5b,Mężczyzna,20,2021-07-13_22h01.25.654,rantool2,2021.1.4,Win32,59.66231132,6066e7e5642c6520dabcdb5b,60d9d14f4a8a35a482e0d9bf,60edef3eee977e4d5a263b78,,,,,,,,,,,,
"[""period"",""period""]",0,"[0.10150000000000148,1.8474999999999966]",22,0,22,0,1,6066e7e5642c6520dabcdb5b,Mężczyzna,20,2021-07-13_22h01.25.654,rantool2,2021.1.4,Win32,59.66231132,6066e7e5642c6520dabcdb5b,60d9d14f4a8a35a482e0d9bf,60edef3eee977e4d5a263b78,,,,,,,,,,,,
0,0,,23,0,23,0,1,6066e7e5642c6520dabcdb5b,Mężczyzna,20,2021-07-13_22h01.25.654,rantool2,2021.1.4,Win32,59.66231132,6066e7e5642c6520dabcdb5b,60d9d14f4a8a35a482e0d9bf,60edef3eee977e4d5a263b78,,,,,,,,,,,,
"[""comma""]",0,[0.018800000011921725],24,0,24,0,1,6066e7e5642c6520dabcdb5b,Mężczyzna,20,2021-07-13_22h01.25.654,rantool2,2021.1.4,Win32,59.66231132,6066e7e5642c6520dabcdb5b,60d9d14f4a8a35a482e0d9bf,60edef3eee977e4d5a263b78,,,,,,,,,,,,
"[""period""]",0,[0.08740000003577109],25,0,25,0,1,6066e7e5642c6520dabcdb5b,Mężczyzna,20,2021-07-13_22h01.25.654,rantool2,2021.1.4,Win32,59.66231132,6066e7e5642c6520dabcdb5b,60d9d14f4a8a35a482e0d9bf,60edef3eee977e4d5a263b78,,,,,,,,,,,,
"[""period""]",0,[-0.016100000023840266],26,0,26,0,1,6066e7e5642c6520dabcdb5b,Mężczyzna,20,2021-07-13_22h01.25.654,rantool2,2021.1.4,Win32,59.66231132,6066e7e5642c6520dabcdb5b,60d9d14f4a8a35a482e0d9bf,60edef3eee977e4d5a263b78,,,,,,,,,,,,
"[""period""]",0,[0.1231000000238538],27,0,27,0,1,6066e7e5642c6520dabcdb5b,Mężczyzna,20,2021-07-13_22h01.25.654,rantool2,2021.1.4,Win32,59.66231132,6066e7e5642c6520dabcdb5b,60d9d14f4a8a35a482e0d9bf,60edef3eee977e4d5a263b78,,,,,,,,,,,,
"[""comma""]",0,[0.12600000000000477],28,0,28,0,1,6066e7e5642c6520dabcdb5b,Mężczyzna,20,2021-07-13_22h01.25.654,rantool2,2021.1.4,Win32,59.66231132,6066e7e5642c6520dabcdb5b,60d9d14f4a8a35a482e0d9bf,60edef3eee977e4d5a263b78,,,,,,,,,,,,
"[""comma""]",0,[0.17569999998808328],29,0,29,0,1,6066e7e5642c6520dabcdb5b,Mężczyzna,20,2021-07-13_22h01.25.654,rantool2,2021.1.4,Win32,59.66231132,6066e7e5642c6520dabcdb5b,60d9d14f4a8a35a482e0d9bf,60edef3eee977e4d5a263b78,,,,,,,,,,,,
"[""period""]",0,[0.18419999998808123],30,0,30,0,1,6066e7e5642c6520dabcdb5b,Mężczyzna,20,2021-07-13_22h01.25.654,rantool2,2021.1.4,Win32,59.66231132,6066e7e5642c6520dabcdb5b,60d9d14f4a8a35a482e0d9bf,60edef3eee977e4d5a263b78,,,,,,,,,,,,
"[""period"",""period""]",0,"[0.1681999999880901,1.9568000000119241]",31,0,31,0,1,6066e7e5642c6520dabcdb5b,Mężczyzna,20,2021-07-13_22h01.25.654,rantool2,2021.1.4,Win32,59.66231132,6066e7e5642c6520dabcdb5b,60d9d14f4a8a35a482e0d9bf,60edef3eee977e4d5a263b78,,,,,,,,,,,,
"[""comma""]",0,[1.7199999999999989],32,0,32,0,1,6066e7e5642c6520dabcdb5b,Mężczyzna,20,2021-07-13_22h01.25.654,rantool2,2021.1.4,Win32,59.66231132,6066e7e5642c6520dabcdb5b,60d9d14f4a8a35a482e0d9bf,60edef3eee977e4d5a263b78,,,,,,,,,,,,
"[""period""]",0,[1.8387999999523146],33,0,33,0,1,6066e7e5642c6520dabcdb5b,Mężczyzna,20,2021-07-13_22h01.25.654,rantool2,2021.1.4,Win32,59.66231132,6066e7e5642c6520dabcdb5b,60d9d14f4a8a35a482e0d9bf,60edef3eee977e4d5a263b78,,,,,,,,,,,,
0,0,,34,0,34,0,1,6066e7e5642c6520dabcdb5b,Mężczyzna,20,2021-07-13_22h01.25.654,rantool2,2021.1.4,Win32,59.66231132,6066e7e5642c6520dabcdb5b,60d9d14f4a8a35a482e0d9bf,60edef3eee977e4d5a263b78,,,,,,,,,,,,
"[""comma""]",0,[0.1512000000476803],35,0,35,0,1,6066e7e5642c6520dabcdb5b,Mężczyzna,20,2021-07-13_22h01.25.654,rantool2,2021.1.4,Win32,59.66231132,6066e7e5642c6520dabcdb5b,60d9d14f4a8a35a482e0d9bf,60edef3eee977e4d5a263b78,,,,,,,,,,,,
"[""comma""]",0,[0.08310000002383333],36,0,36,0,1,6066e7e5642c6520dabcdb5b,Mężczyzna,20,2021-07-13_22h01.25.654,rantool2,2021.1.4,Win32,59.66231132,6066e7e5642c6520dabcdb5b,60d9d14f4a8a35a482e0d9bf,60edef3eee977e4d5a263b78,,,,,,,,,,,,
"[""comma""]",0,[0.19199999999999307],37,0,37,0,1,6066e7e5642c6520dabcdb5b,Mężczyzna,20,2021-07-13_22h01.25.654,rantool2,2021.1.4,Win32,59.66231132,6066e7e5642c6520dabcdb5b,60d9d14f4a8a35a482e0d9bf,60edef3eee977e4d5a263b78,,,,,,,,,,,,
"[""comma""]",0,[0.36829999995231333],38,0,38,0,1,6066e7e5642c6520dabcdb5b,Mężczyzna,20,2021-07-13_22h01.25.654,rantool2,2021.1.4,Win32,59.66231132,6066e7e5642c6520dabcdb5b,60d9d14f4a8a35a482e0d9bf,60edef3eee977e4d5a263b78,,,,,,,,,,,,
"[""period""]",0,[0.054799999952336975],39,0,39,0,1,6066e7e5642c6520dabcdb5b,Mężczyzna,20,2021-07-13_22h01.25.654,rantool2,2021.1.4,Win32,59.66231132,6066e7e5642c6520dabcdb5b,60d9d14f4a8a35a482e0d9bf,60edef3eee977e4d5a263b78,,,,,,,,,,,,
"[""comma"",""period""]",0,"[0.051000000000016144,1.8227000000476892]",40,0,40,0,1,6066e7e5642c6520dabcdb5b,Mężczyzna,20,2021-07-13_22h01.25.654,rantool2,2021.1.4,Win32,59.66231132,6066e7e5642c6520dabcdb5b,60d9d14f4a8a35a482e0d9bf,60edef3eee977e4d5a263b78,,,,,,,,,,,,
0,0,,41,0,41,0,1,6066e7e5642c6520dabcdb5b,Mężczyzna,20,2021-07-13_22h01.25.654,rantool2,2021.1.4,Win32,59.66231132,6066e7e5642c6520dabcdb5b,60d9d14f4a8a35a482e0d9bf,60edef3eee977e4d5a263b78,,,,,,,,,,,,
"[""comma""]",0,[0.5017999999523113],42,0,42,0,1,6066e7e5642c6520dabcdb5b,Mężczyzna,20,2021-07-13_22h01.25.654,rantool2,2021.1.4,Win32,59.66231132,6066e7e5642c6520dabcdb5b,60d9d14f4a8a35a482e0d9bf,60edef3eee977e4d5a263b78,,,,,,,,,,,,
"[""period""]",0,[0.12299999999999045],43,0,43,0,1,6066e7e5642c6520dabcdb5b,Mężczyzna,20,2021-07-13_22h01.25.654,rantool2,2021.1.4,Win32,59.66231132,6066e7e5642c6520dabcdb5b,60d9d14f4a8a35a482e0d9bf,60edef3eee977e4d5a263b78,,,,,,,,,,,,
"[""comma""]",0,[0.109100000023858],44,0,44,0,1,6066e7e5642c6520dabcdb5b,Mężczyzna,20,2021-07-13_22h01.25.654,rantool2,2021.1.4,Win32,59.66231132,6066e7e5642c6520dabcdb5b,60d9d14f4a8a35a482e0d9bf,60edef3eee977e4d5a263b78,,,,,,,,,,,,
"[""period""]",0,[0.021500000000003183],45,0,45,0,1,6066e7e5642c6520dabcdb5b,Mężczyzna,20,2021-07-13_22h01.25.654,rantool2,2021.1.4,Win32,59.66231132,6066e7e5642c6520dabcdb5b,60d9d14f4a8a35a482e0d9bf,60edef3eee977e4d5a263b78,,,,,,,,,,,,
"[""period"",""comma""]",0,"[0.03160000002384322,1.9178999999761572]",46,0,46,0,1,6066e7e5642c6520dabcdb5b,Mężczyzna,20,2021-07-13_22h01.25.654,rantool2,2021.1.4,Win32,59.66231132,6066e7e5642c6520dabcdb5b,60d9d14f4a8a35a482e0d9bf,60edef3eee977e4d5a263b78,,,,,,,,,,,,
0,0,,47,0,47,0,1,6066e7e5642c6520dabcdb5b,Mężczyzna,20,2021-07-13_22h01.25.654,rantool2,2021.1.4,Win32,59.66231132,6066e7e5642c6520dabcdb5b,60d9d14f4a8a35a482e0d9bf,60edef3eee977e4d5a263b78,,,,,,,,,,,,
"[""period""]",0,[0.18210000002383708],48,0,48,0,1,6066e7e5642c6520dabcdb5b,Mężczyzna,20,2021-07-13_22h01.25.654,rantool2,2021.1.4,Win32,59.66231132,6066e7e5642c6520dabcdb5b,60d9d14f4a8a35a482e0d9bf,60edef3eee977e4d5a263b78,,,,,,,,,,,,
"[""period""]",0,[0.18999999999999773],49,0,49,0,1,6066e7e5642c6520dabcdb5b,Mężczyzna,20,2021-07-13_22h01.25.654,rantool2,2021.1.4,Win32,59.66231132,6066e7e5642c6520dabcdb5b,60d9d14f4a8a35a482e0d9bf,60edef3eee977e4d5a263b78,,,,,,,,,,,,
"[""period""]",0,[0.06539999997616519],50,0,50,0,1,6066e7e5642c6520dabcdb5b,Mężczyzna,20,2021-07-13_22h01.25.654,rantool2,2021.1.4,Win32,59.66231132,6066e7e5642c6520dabcdb5b,60d9d14f4a8a35a482e0d9bf,60edef3eee977e4d5a263b78,,,,,,,,,,,,
"[""comma""]",0,[-0.014499999999998181],51,0,51,0,1,6066e7e5642c6520dabcdb5b,Mężczyzna,20,2021-07-13_22h01.25.654,rantool2,2021.1.4,Win32,59.66231132,6066e7e5642c6520dabcdb5b,60d9d14f4a8a35a482e0d9bf,60edef3eee977e4d5a263b78,,,,,,,,,,,,
"[""period""]",0,[0.17339999997614086],52,0,52,0,1,6066e7e5642c6520dabcdb5b,Mężczyzna,20,2021-07-13_22h01.25.654,rantool2,2021.1.4,Win32,59.66231132,6066e7e5642c6520dabcdb5b,60d9d14f4a8a35a482e0d9bf,60edef3eee977e4d5a263b78,,,,,,,,,,,,
"[""comma""]",0,[0.03560000002386232],53,0,53,0,1,6066e7e5642c6520dabcdb5b,Mężczyzna,20,2021-07-13_22h01.25.654,rantool2,2021.1.4,Win32,59.66231132,6066e7e5642c6520dabcdb5b,60d9d14f4a8a35a482e0d9bf,60edef3eee977e4d5a263b78,,,,,,,,,,,,
"[""comma""]",0,[0.13539999997615837],54,0,54,0,1,6066e7e5642c6520dabcdb5b,Mężczyzna,20,2021-07-13_22h01.25.654,rantool2,2021.1.4,Win32,59.66231132,6066e7e5642c6520dabcdb5b,60d9d14f4a8a35a482e0d9bf,60edef3eee977e4d5a263b78,,,,,,,,,,,,
"[""period""]",0,[0.055499999999995],55,0,55,0,1,6066e7e5642c6520dabcdb5b,Mężczyzna,20,2021-07-13_22h01.25.654,rantool2,2021.1.4,Win32,59.66231132,6066e7e5642c6520dabcdb5b,60d9d14f4a8a35a482e0d9bf,60edef3eee977e4d5a263b78,,,,,,,,,,,,
"[""comma""]",0,[0.16810000002382708],56,0,56,0,1,6066e7e5642c6520dabcdb5b,Mężczyzna,20,2021-07-13_22h01.25.654,rantool2,2021.1.4,Win32,59.66231132,6066e7e5642c6520dabcdb5b,60d9d14f4a8a35a482e0d9bf,60edef3eee977e4d5a263b78,,,,,,,,,,,,
"[""period""]",0,[0.07389999997616314],57,0,57,0,1,6066e7e5642c6520dabcdb5b,Mężczyzna,20,2021-07-13_22h01.25.654,rantool2,2021.1.4,Win32,59.66231132,6066e7e5642c6520dabcdb5b,60d9d14f4a8a35a482e0d9bf,60edef3eee977e4d5a263b78,,,,,,,,,,,,
"[""period""]",0,[0.040100000023841176],58,0,58,0,1,6066e7e5642c6520dabcdb5b,Mężczyzna,20,2021-07-13_22h01.25.654,rantool2,2021.1.4,Win32,59.66231132,6066e7e5642c6520dabcdb5b,60d9d14f4a8a35a482e0d9bf,60edef3eee977e4d5a263b78,,,,,,,,,,,,
"[""period""]",0,[0.04189999997615246],59,0,59,0,1,6066e7e5642c6520dabcdb5b,Mężczyzna,20,2021-07-13_22h01.25.654,rantool2,2021.1.4,Win32,59.66231132,6066e7e5642c6520dabcdb5b,60d9d14f4a8a35a482e0d9bf,60edef3eee977e4d5a263b78,,,,,,,,,,,,
"[""comma""]",0,[0.2242000000476878],60,0,60,0,1,6066e7e5642c6520dabcdb5b,Mężczyzna,20,2021-07-13_22h01.25.654,rantool2,2021.1.4,Win32,59.66231132,6066e7e5642c6520dabcdb5b,60d9d14f4a8a35a482e0d9bf,60edef3eee977e4d5a263b78,,,,,,,,,,,,
"[""comma""]",0,[0.35189999997618315],61,0,61,0,1,6066e7e5642c6520dabcdb5b,Mężczyzna,20,2021-07-13_22h01.25.654,rantool2,2021.1.4,Win32,59.66231132,6066e7e5642c6520dabcdb5b,60d9d14f4a8a35a482e0d9bf,60edef3eee977e4d5a263b78,,,,,,,,,,,,
"[""period""]",0,[0.1666999999284826],62,0,62,0,1,6066e7e5642c6520dabcdb5b,Mężczyzna,20,2021-07-13_22h01.25.654,rantool2,2021.1.4,Win32,59.66231132,6066e7e5642c6520dabcdb5b,60d9d14f4a8a35a482e0d9bf,60edef3eee977e4d5a263b78,,,,,,,,,,,,
"[""comma""]",0,[0.20010000002383777],63,0,63,0,1,6066e7e5642c6520dabcdb5b,Mężczyzna,20,2021-07-13_22h01.25.654,rantool2,2021.1.4,Win32,59.66231132,6066e7e5642c6520dabcdb5b,60d9d14f4a8a35a482e0d9bf,60edef3eee977e4d5a263b78,,,,,,,,,,,,
"[""comma""]",0,[0.21839999997615678],64,0,64,0,1,6066e7e5642c6520dabcdb5b,Mężczyzna,20,2021-07-13_22h01.25.654,rantool2,2021.1.4,Win32,59.66231132,6066e7e5642c6520dabcdb5b,60d9d14f4a8a35a482e0d9bf,60edef3eee977e4d5a263b78,,,,,,,,,,,,
"[""period""]",0,[0.1484999999999843],65,0,65,0,1,6066e7e5642c6520dabcdb5b,Mężczyzna,20,2021-07-13_22h01.25.654,rantool2,2021.1.4,Win32,59.66231132,6066e7e5642c6520dabcdb5b,60d9d14f4a8a35a482e0d9bf,60edef3eee977e4d5a263b78,,,,,,,,,,,,
"[""comma"",""period""]",0,"[0.1343999999761536,1.9792999999523033]",66,0,66,0,1,6066e7e5642c6520dabcdb5b,Mężczyzna,20,2021-07-13_22h01.25.654,rantool2,2021.1.4,Win32,59.66231132,6066e7e5642c6520dabcdb5b,60d9d14f4a8a35a482e0d9bf,60edef3eee977e4d5a263b78,,,,,,,,,,,,
0,0,,67,0,67,0,1,6066e7e5642c6520dabcdb5b,Mężczyzna,20,2021-07-13_22h01.25.654,rantool2,2021.1.4,Win32,59.66231132,6066e7e5642c6520dabcdb5b,60d9d14f4a8a35a482e0d9bf,60edef3eee977e4d5a263b78,,,,,,,,,,,,
"[""comma""]",0,[0.12619999992847397],68,0,68,0,1,6066e7e5642c6520dabcdb5b,Mężczyzna,20,2021-07-13_22h01.25.654,rantool2,2021.1.4,Win32,59.66231132,6066e7e5642c6520dabcdb5b,60d9d14f4a8a35a482e0d9bf,60edef3eee977e4d5a263b78,,,,,,,,,,,,
"[""period""]",0,[0.33910000002384777],69,0,69,0,1,6066e7e5642c6520dabcdb5b,Mężczyzna,20,2021-07-13_22h01.25.654,rantool2,2021.1.4,Win32,59.66231132,6066e7e5642c6520dabcdb5b,60d9d14f4a8a35a482e0d9bf,60edef3eee977e4d5a263b78,,,,,,,,,,,,
"[""period""]",0,[0.22339999997615223],70,0,70,0,1,6066e7e5642c6520dabcdb5b,Mężczyzna,20,2021-07-13_22h01.25.654,rantool2,2021.1.4,Win32,59.66231132,6066e7e5642c6520dabcdb5b,60d9d14f4a8a35a482e0d9bf,60edef3eee977e4d5a263b78,,,,,,,,,,,,
"[""period""]",0,[0.15039999997617315],71,0,71,0,1,6066e7e5642c6520dabcdb5b,Mężczyzna,20,2021-07-13_22h01.25.654,rantool2,2021.1.4,Win32,59.66231132,6066e7e5642c6520dabcdb5b,60d9d14f4a8a35a482e0d9bf,60edef3eee977e4d5a263b78,,,,,,,,,,,,
"[""period""]",0,[0.20139999997616087],72,0,72,0,1,6066e7e5642c6520dabcdb5b,Mężczyzna,20,2021-07-13_22h01.25.654,rantool2,2021.1.4,Win32,59.66231132,6066e7e5642c6520dabcdb5b,60d9d14f4a8a35a482e0d9bf,60edef3eee977e4d5a263b78,,,,,,,,,,,,
"[""period""]",0,[0.3072000000476862],73,0,73,0,1,6066e7e5642c6520dabcdb5b,Mężczyzna,20,2021-07-13_22h01.25.654,rantool2,2021.1.4,Win32,59.66231132,6066e7e5642c6520dabcdb5b,60d9d14f4a8a35a482e0d9bf,60edef3eee977e4d5a263b78,,,,,,,,,,,,
"[""comma""]",0,[0.19110000002385163],74,0,74,0,1,6066e7e5642c6520dabcdb5b,Mężczyzna,20,2021-07-13_22h01.25.654,rantool2,2021.1.4,Win32,59.66231132,6066e7e5642c6520dabcdb5b,60d9d14f4a8a35a482e0d9bf,60edef3eee977e4d5a263b78,,,,,,,,,,,,
"[""comma""]",0,[0.06730000007152626],75,0,75,0,1,6066e7e5642c6520dabcdb5b,Mężczyzna,20,2021-07-13_22h01.25.654,rantool2,2021.1.4,Win32,59.66231132,6066e7e5642c6520dabcdb5b,60d9d14f4a8a35a482e0d9bf,60edef3eee977e4d5a263b78,,,,,,,,,,,,
"[""period""]",0,[0.06850000000000023],76,0,76,0,1,6066e7e5642c6520dabcdb5b,Mężczyzna,20,2021-07-13_22h01.25.654,rantool2,2021.1.4,Win32,59.66231132,6066e7e5642c6520dabcdb5b,60d9d14f4a8a35a482e0d9bf,60edef3eee977e4d5a263b78,,,,,,,,,,,,
"[""period""]",0,[0.08469999992848898],77,0,77,0,1,6066e7e5642c6520dabcdb5b,Mężczyzna,20,2021-07-13_22h01.25.654,rantool2,2021.1.4,Win32,59.66231132,6066e7e5642c6520dabcdb5b,60d9d14f4a8a35a482e0d9bf,60edef3eee977e4d5a263b78,,,,,,,,,,,,
"[""comma""]",0,[0.07310000002385664],78,0,78,0,1,6066e7e5642c6520dabcdb5b,Mężczyzna,20,2021-07-13_22h01.25.654,rantool2,2021.1.4,Win32,59.66231132,6066e7e5642c6520dabcdb5b,60d9d14f4a8a35a482e0d9bf,60edef3eee977e4d5a263b78,,,,,,,,,,,,
"[""comma""]",0,[0.11920000004766962],79,0,79,0,1,6066e7e5642c6520dabcdb5b,Mężczyzna,20,2021-07-13_22h01.25.654,rantool2,2021.1.4,Win32,59.66231132,6066e7e5642c6520dabcdb5b,60d9d14f4a8a35a482e0d9bf,60edef3eee977e4d5a263b78,,,,,,,,,,,,
"[""comma""]",0,[0.10970000004766689],80,0,80,0,1,6066e7e5642c6520dabcdb5b,Mężczyzna,20,2021-07-13_22h01.25.654,rantool2,2021.1.4,Win32,59.66231132,6066e7e5642c6520dabcdb5b,60d9d14f4a8a35a482e0d9bf,60edef3eee977e4d5a263b78,,,,,,,,,,,,
"[""period""]",0,[0.21189999997616837],81,0,81,0,1,6066e7e5642c6520dabcdb5b,Mężczyzna,20,2021-07-13_22h01.25.654,rantool2,2021.1.4,Win32,59.66231132,6066e7e5642c6520dabcdb5b,60d9d14f4a8a35a482e0d9bf,60edef3eee977e4d5a263b78,,,,,,,,,,,,
"[""period""]",0,[0.0836999999284842],82,0,82,0,1,6066e7e5642c6520dabcdb5b,Mężczyzna,20,2021-07-13_22h01.25.654,rantool2,2021.1.4,Win32,59.66231132,6066e7e5642c6520dabcdb5b,60d9d14f4a8a35a482e0d9bf,60edef3eee977e4d5a263b78,,,,,,,,,,,,
"[""comma""]",0,[0.3018000000715233],83,0,83,0,1,6066e7e5642c6520dabcdb5b,Mężczyzna,20,2021-07-13_22h01.25.654,rantool2,2021.1.4,Win32,59.66231132,6066e7e5642c6520dabcdb5b,60d9d14f4a8a35a482e0d9bf,60edef3eee977e4d5a263b78,,,,,,,,,,,,
"[""period""]",0,[0.36810000002384413],84,0,84,0,1,6066e7e5642c6520dabcdb5b,Mężczyzna,20,2021-07-13_22h01.25.654,rantool2,2021.1.4,Win32,59.66231132,6066e7e5642c6520dabcdb5b,60d9d14f4a8a35a482e0d9bf,60edef3eee977e4d5a263b78,,,,,,,,,,,,
"[""comma""]",0,[0.3689999999999998],85,0,85,0,1,6066e7e5642c6520dabcdb5b,Mężczyzna,20,2021-07-13_22h01.25.654,rantool2,2021.1.4,Win32,59.66231132,6066e7e5642c6520dabcdb5b,60d9d14f4a8a35a482e0d9bf,60edef3eee977e4d5a263b78,,,,,,,,,,,,
"[""comma""]",0,[0.23460000002384618],86,0,86,0,1,6066e7e5642c6520dabcdb5b,Mężczyzna,20,2021-07-13_22h01.25.654,rantool2,2021.1.4,Win32,59.66231132,6066e7e5642c6520dabcdb5b,60d9d14f4a8a35a482e0d9bf,60edef3eee977e4d5a263b78,,,,,,,,,,,,
"[""comma""]",0,[0.250300000071519],87,0,87,0,1,6066e7e5642c6520dabcdb5b,Mężczyzna,20,2021-07-13_22h01.25.654,rantool2,2021.1.4,Win32,59.66231132,6066e7e5642c6520dabcdb5b,60d9d14f4a8a35a482e0d9bf,60edef3eee977e4d5a263b78,,,,,,,,,,,,
"[""period""]",0,[0.3348999999761588],88,0,88,0,1,6066e7e5642c6520dabcdb5b,Mężczyzna,20,2021-07-13_22h01.25.654,rantool2,2021.1.4,Win32,59.66231132,6066e7e5642c6520dabcdb5b,60d9d14f4a8a35a482e0d9bf,60edef3eee977e4d5a263b78,,,,,,,,,,,,
"[""period""]",0,[0.3189999999999884],89,0,89,0,1,6066e7e5642c6520dabcdb5b,Mężczyzna,20,2021-07-13_22h01.25.654,rantool2,2021.1.4,Win32,59.66231132,6066e7e5642c6520dabcdb5b,60d9d14f4a8a35a482e0d9bf,60edef3eee977e4d5a263b78,,,,,,,,,,,,
"[""comma""]",0,[0.08519999992847715],90,0,90,0,1,6066e7e5642c6520dabcdb5b,Mężczyzna,20,2021-07-13_22h01.25.654,rantool2,2021.1.4,Win32,59.66231132,6066e7e5642c6520dabcdb5b,60d9d14f4a8a35a482e0d9bf,60edef3eee977e4d5a263b78,,,,,,,,,,,,
"[""period"",""comma""]",0,"[0.08320000004769668,1.915899999976176]",91,0,91,0,1,6066e7e5642c6520dabcdb5b,Mężczyzna,20,2021-07-13_22h01.25.654,rantool2,2021.1.4,Win32,59.66231132,6066e7e5642c6520dabcdb5b,60d9d14f4a8a35a482e0d9bf,60edef3eee977e4d5a263b78,,,,,,,,,,,,
0,0,,92,0,92,0,1,6066e7e5642c6520dabcdb5b,Mężczyzna,20,2021-07-13_22h01.25.654,rantool2,2021.1.4,Win32,59.66231132,6066e7e5642c6520dabcdb5b,60d9d14f4a8a35a482e0d9bf,60edef3eee977e4d5a263b78,,,,,,,,,,,,
"[""period""]",0,[0.05179999995232265],93,0,93,0,1,6066e7e5642c6520dabcdb5b,Mężczyzna,20,2021-07-13_22h01.25.654,rantool2,2021.1.4,Win32,59.66231132,6066e7e5642c6520dabcdb5b,60d9d14f4a8a35a482e0d9bf,60edef3eee977e4d5a263b78,,,,,,,,,,,,
"[""comma""]",0,[0.4018999999761661],94,0,94,0,1,6066e7e5642c6520dabcdb5b,Mężczyzna,20,2021-07-13_22h01.25.654,rantool2,2021.1.4,Win32,59.66231132,6066e7e5642c6520dabcdb5b,60d9d14f4a8a35a482e0d9bf,60edef3eee977e4d5a263b78,,,,,,,,,,,,
"[""comma""]",0,[0.32550000000000523],95,0,95,0,1,6066e7e5642c6520dabcdb5b,Mężczyzna,20,2021-07-13_22h01.25.654,rantool2,2021.1.4,Win32,59.66231132,6066e7e5642c6520dabcdb5b,60d9d14f4a8a35a482e0d9bf,60edef3eee977e4d5a263b78,,,,,,,,,,,,
"[""comma""]",0,[0.3515000000000157],96,0,96,0,1,6066e7e5642c6520dabcdb5b,Mężczyzna,20,2021-07-13_22h01.25.654,rantool2,2021.1.4,Win32,59.66231132,6066e7e5642c6520dabcdb5b,60d9d14f4a8a35a482e0d9bf,60edef3eee977e4d5a263b78,,,,,,,,,,,,
"[""period""]",0,[0.2909999999999968],97,0,97,0,1,6066e7e5642c6520dabcdb5b,Mężczyzna,20,2021-07-13_22h01.25.654,rantool2,2021.1.4,Win32,59.66231132,6066e7e5642c6520dabcdb5b,60d9d14f4a8a35a482e0d9bf,60edef3eee977e4d5a263b78,,,,,,,,,,,,
"[""period""]",0,[0.29349999999999454],98,0,98,0,1,6066e7e5642c6520dabcdb5b,Mężczyzna,20,2021-07-13_22h01.25.654,rantool2,2021.1.4,Win32,59.66231132,6066e7e5642c6520dabcdb5b,60d9d14f4a8a35a482e0d9bf,60edef3eee977e4d5a263b78,,,,,,,,,,,,
"[""period""]",0,[0.4025000000000034],99,0,99,0,1,6066e7e5642c6520dabcdb5b,Mężczyzna,20,2021-07-13_22h01.25.654,rantool2,2021.1.4,Win32,59.66231132,6066e7e5642c6520dabcdb5b,60d9d14f4a8a35a482e0d9bf,60edef3eee977e4d5a263b78,,,,,,,,,,,,
"[""period""]",0,[0.3545999999046501],100,0,100,0,1,6066e7e5642c6520dabcdb5b,Mężczyzna,20,2021-07-13_22h01.25.654,rantool2,2021.1.4,Win32,59.66231132,6066e7e5642c6520dabcdb5b,60d9d14f4a8a35a482e0d9bf,60edef3eee977e4d5a263b78,,,,,,,,,,,,
"[""period""]",0,[0.4437000000476985],101,0,101,0,1,6066e7e5642c6520dabcdb5b,Mężczyzna,20,2021-07-13_22h01.25.654,rantool2,2021.1.4,Win32,59.66231132,6066e7e5642c6520dabcdb5b,60d9d14f4a8a35a482e0d9bf,60edef3eee977e4d5a263b78,,,,,,,,,,,,
"[""period""]",0,[0.4352999999522922],102,0,102,0,1,6066e7e5642c6520dabcdb5b,Mężczyzna,20,2021-07-13_22h01.25.654,rantool2,2021.1.4,Win32,59.66231132,6066e7e5642c6520dabcdb5b,60d9d14f4a8a35a482e0d9bf,60edef3eee977e4d5a263b78,,,,,,,,,,,,
"[""comma""]",0,[0.5176999999284817],103,0,103,0,1,6066e7e5642c6520dabcdb5b,Mężczyzna,20,2021-07-13_22h01.25.654,rantool2,2021.1.4,Win32,59.66231132,6066e7e5642c6520dabcdb5b,60d9d14f4a8a35a482e0d9bf,60edef3eee977e4d5a263b78,,,,,,,,,,,,
"[""comma""]",0,[0.36939999997616724],104,0,104,0,1,6066e7e5642c6520dabcdb5b,Mężczyzna,20,2021-07-13_22h01.25.654,rantool2,2021.1.4,Win32,59.66231132,6066e7e5642c6520dabcdb5b,60d9d14f4a8a35a482e0d9bf,60edef3eee977e4d5a263b78,,,,,,,,,,,,
"[""comma""]",0,[0.4068000000715415],105,0,105,0,1,6066e7e5642c6520dabcdb5b,Mężczyzna,20,2021-07-13_22h01.25.654,rantool2,2021.1.4,Win32,59.66231132,6066e7e5642c6520dabcdb5b,60d9d14f4a8a35a482e0d9bf,60edef3eee977e4d5a263b78,,,,,,,,,,,,
"[""period""]",0,[0.3320000000000505],106,0,106,0,1,6066e7e5642c6520dabcdb5b,Mężczyzna,20,2021-07-13_22h01.25.654,rantool2,2021.1.4,Win32,59.66231132,6066e7e5642c6520dabcdb5b,60d9d14f4a8a35a482e0d9bf,60edef3eee977e4d5a263b78,,,,,,,,,,,,
"[""comma""]",0,[0.1371000000238496],107,0,107,0,1,6066e7e5642c6520dabcdb5b,Mężczyzna,20,2021-07-13_22h01.25.654,rantool2,2021.1.4,Win32,59.66231132,6066e7e5642c6520dabcdb5b,60d9d14f4a8a35a482e0d9bf,60edef3eee977e4d5a263b78,,,,,,,,,,,,
"[""comma""]",0,[0.1675000000000182],108,0,108,0,1,6066e7e5642c6520dabcdb5b,Mężczyzna,20,2021-07-13_22h01.25.654,rantool2,2021.1.4,Win32,59.66231132,6066e7e5642c6520dabcdb5b,60d9d14f4a8a35a482e0d9bf,60edef3eee977e4d5a263b78,,,,,,,,,,,,
"[""period""]",0,[0.3534999999999968],109,0,109,0,1,6066e7e5642c6520dabcdb5b,Mężczyzna,20,2021-07-13_22h01.25.654,rantool2,2021.1.4,Win32,59.66231132,6066e7e5642c6520dabcdb5b,60d9d14f4a8a35a482e0d9bf,60edef3eee977e4d5a263b78,,,,,,,,,,,,
"[""comma""]",0,[0.33530000007152694],110,0,110,0,1,6066e7e5642c6520dabcdb5b,Mężczyzna,20,2021-07-13_22h01.25.654,rantool2,2021.1.4,Win32,59.66231132,6066e7e5642c6520dabcdb5b,60d9d14f4a8a35a482e0d9bf,60edef3eee977e4d5a263b78,,,,,,,,,,,,
"[""period""]",0,[0.3774999999999977],111,0,111,0,1,6066e7e5642c6520dabcdb5b,Mężczyzna,20,2021-07-13_22h01.25.654,rantool2,2021.1.4,Win32,59.66231132,6066e7e5642c6520dabcdb5b,60d9d14f4a8a35a482e0d9bf,60edef3eee977e4d5a263b78,,,,,,,,,,,,
"[""period""]",0,[0.273200000047666],112,0,112,0,1,6066e7e5642c6520dabcdb5b,Mężczyzna,20,2021-07-13_22h01.25.654,rantool2,2021.1.4,Win32,59.66231132,6066e7e5642c6520dabcdb5b,60d9d14f4a8a35a482e0d9bf,60edef3eee977e4d5a263b78,,,,,,,,,,,,
"[""comma""]",0,[0.21380000007155786],113,0,113,0,1,6066e7e5642c6520dabcdb5b,Mężczyzna,20,2021-07-13_22h01.25.654,rantool2,2021.1.4,Win32,59.66231132,6066e7e5642c6520dabcdb5b,60d9d14f4a8a35a482e0d9bf,60edef3eee977e4d5a263b78,,,,,,,,,,,,
"[""period""]",0,[0.3184999999999718],114,0,114,0,1,6066e7e5642c6520dabcdb5b,Mężczyzna,20,2021-07-13_22h01.25.654,rantool2,2021.1.4,Win32,59.66231132,6066e7e5642c6520dabcdb5b,60d9d14f4a8a35a482e0d9bf,60edef3eee977e4d5a263b78,,,,,,,,,,,,
"[""comma""]",0,[0.3065000000000282],115,0,115,0,1,6066e7e5642c6520dabcdb5b,Mężczyzna,20,2021-07-13_22h01.25.654,rantool2,2021.1.4,Win32,59.66231132,6066e7e5642c6520dabcdb5b,60d9d14f4a8a35a482e0d9bf,60edef3eee977e4d5a263b78,,,,,,,,,,,,
"[""period""]",0,[0.32260000002384004],116,0,116,0,1,6066e7e5642c6520dabcdb5b,Mężczyzna,20,2021-07-13_22h01.25.654,rantool2,2021.1.4,Win32,59.66231132,6066e7e5642c6520dabcdb5b,60d9d14f4a8a35a482e0d9bf,60edef3eee977e4d5a263b78,,,,,,,,,,,,
"[""comma""]",0,[0.33530000007152694],117,0,117,0,1,6066e7e5642c6520dabcdb5b,Mężczyzna,20,2021-07-13_22h01.25.654,rantool2,2021.1.4,Win32,59.66231132,6066e7e5642c6520dabcdb5b,60d9d14f4a8a35a482e0d9bf,60edef3eee977e4d5a263b78,,,,,,,,,,,,
"[""comma""]",0,[0.38589999997617497],118,0,118,0,1,6066e7e5642c6520dabcdb5b,Mężczyzna,20,2021-07-13_22h01.25.654,rantool2,2021.1.4,Win32,59.66231132,6066e7e5642c6520dabcdb5b,60d9d14f4a8a35a482e0d9bf,60edef3eee977e4d5a263b78,,,,,,,,,,,,
"[""period""]",0,[0.36889999997617906],119,0,119,0,1,6066e7e5642c6520dabcdb5b,Mężczyzna,20,2021-07-13_22h01.25.654,rantool2,2021.1.4,Win32,59.66231132,6066e7e5642c6520dabcdb5b,60d9d14f4a8a35a482e0d9bf,60edef3eee977e4d5a263b78,,,,,,,,,,,,
,,,,,,,,6066e7e5642c6520dabcdb5b,Mężczyzna,20,2021-07-13_22h01.25.654,rantool2,2021.1.4,Win32,59.66231132,6066e7e5642c6520dabcdb5b,60d9d14f4a8a35a482e0d9bf,60edef3eee977e4d5a263b78,j,2.9675,0,0,0,41,1,ROROORO,ROROORR,20.42602454,21.71443381,series_1
,,,,,,,,6066e7e5642c6520dabcdb5b,Mężczyzna,20,2021-07-13_22h01.25.654,rantool2,2021.1.4,Win32,59.66231132,6066e7e5642c6520dabcdb5b,60d9d14f4a8a35a482e0d9bf,60edef3eee977e4d5a263b78,f,2.8923,0,1,1,1,1,OOOOORO,OOOOORR,19.92253567,20.74050628,series_1
,,,,,,,,6066e7e5642c6520dabcdb5b,Mężczyzna,20,2021-07-13_22h01.25.654,rantool2,2021.1.4,Win32,59.66231132,6066e7e5642c6520dabcdb5b,60d9d14f4a8a35a482e0d9bf,60edef3eee977e4d5a263b78,j,3.1428,0,2,2,55,1,RRORRRO,RRORRRR,21.56657303,21.21223021,series_0
,,,,,,,,6066e7e5642c6520dabcdb5b,Mężczyzna,20,2021-07-13_22h01.25.654,rantool2,2021.1.4,Win32,59.66231132,6066e7e5642c6520dabcdb5b,60d9d14f4a8a35a482e0d9bf,60edef3eee977e4d5a263b78,f,2.252,0,3,3,47,1,RORRRRO,RORRRRR,21.81333602,21.02936224,series_0
,,,,,,,,6066e7e5642c6520dabcdb5b,Mężczyzna,20,2021-07-13_22h01.25.654,rantool2,2021.1.4,Win32,59.66231132,6066e7e5642c6520dabcdb5b,60d9d14f4a8a35a482e0d9bf,60edef3eee977e4d5a263b78,j,3.1819,0,4,4,56,1,RRROOOO,RRROOOR,21.6194508,22.31681875,series_1
,,,,,,,,6066e7e5642c6520dabcdb5b,Mężczyzna,20,2021-07-13_22h01.25.654,rantool2,2021.1.4,Win32,59.66231132,6066e7e5642c6520dabcdb5b,60d9d14f4a8a35a482e0d9bf,60edef3eee977e4d5a263b78,f,3.8256,0,5,5,60,1,RRRROOO,RRRROOR,22.10108823,22.15934078,series_1
,,,,,,,,6066e7e5642c6520dabcdb5b,Mężczyzna,20,2021-07-13_22h01.25.654,rantool2,2021.1.4,Win32,59.66231132,6066e7e5642c6520dabcdb5b,60d9d14f4a8a35a482e0d9bf,60edef3eee977e4d5a263b78,j,2.0705,0,6,6,40,1,ROROOOO,ROROOOR,20.87963819,21.37121559,series_1
,,,,,,,,6066e7e5642c6520dabcdb5b,Mężczyzna,20,2021-07-13_22h01.25.654,rantool2,2021.1.4,Win32,59.66231132,6066e7e5642c6520dabcdb5b,60d9d14f4a8a35a482e0d9bf,60edef3eee977e4d5a263b78,f,3.2385,0,7,7,5,1,OOORORO,OOORORR,20.87963819,21.9921709,series_1
,,,,,,,,6066e7e5642c6520dabcdb5b,Mężczyzna,20,2021-07-13_22h01.25.654,rantool2,2021.1.4,Win32,59.66231132,6066e7e5642c6520dabcdb5b,60d9d14f4a8a35a482e0d9bf,60edef3eee977e4d5a263b78,j,3.4819,0,8,8,19,1,OROORRO,OROORRR,21.73568164,22.11181017,series_1
,,,,,,,,6066e7e5642c6520dabcdb5b,Mężczyzna,20,2021-07-13_22h01.25.654,rantool2,2021.1.4,Win32,59.66231132,6066e7e5642c6520dabcdb5b,60d9d14f4a8a35a482e0d9bf,60edef3eee977e4d5a263b78,f,2.9923,0,9,9,2,1,OOOOROO,OOOOROR,20.43051175,21.02936224,series_1
,,,,,,,,6066e7e5642c6520dabcdb5b,Mężczyzna,20,2021-07-13_22h01.25.654,rantool2,2021.1.4,Win32,59.66231132,6066e7e5642c6520dabcdb5b,60d9d14f4a8a35a482e0d9bf,60edef3eee977e4d5a263b78,j,2.9947,0,10,10,28,1,ORRROOO,ORRROOR,22.24142883,22.53364006,series_1
,,,,,,,,6066e7e5642c6520dabcdb5b,Mężczyzna,20,2021-07-13_22h01.25.654,rantool2,2021.1.4,Win32,59.66231132,6066e7e5642c6520dabcdb5b,60d9d14f4a8a35a482e0d9bf,60edef3eee977e4d5a263b78,f,1.9034,0,11,11,20,1,OROROOO,OROROOR,21.31236711,21.90565814,series_1
,,,,,,,,6066e7e5642c6520dabcdb5b,Mężczyzna,20,2021-07-13_22h01.25.654,rantool2,2021.1.4,Win32,59.66231132,6066e7e5642c6520dabcdb5b,60d9d14f4a8a35a482e0d9bf,60edef3eee977e4d5a263b78,j,2.9298,0,12,12,51,1,RROORRO,RROORRR,21.89852628,22.02786418,series_1
,,,,,,,,6066e7e5642c6520dabcdb5b,Mężczyzna,20,2021-07-13_22h01.25.654,rantool2,2021.1.4,Win32,59.66231132,6066e7e5642c6520dabcdb5b,60d9d14f4a8a35a482e0d9bf,60edef3eee977e4d5a263b78,j,3.0084,0,13,13,3,1,OOOORRO,OOOORRR,20.90986523,21.74922619,series_1
,,,,,,,,6066e7e5642c6520dabcdb5b,Mężczyzna,20,2021-07-13_22h01.25.654,rantool2,2021.1.4,Win32,59.66231132,6066e7e5642c6520dabcdb5b,60d9d14f4a8a35a482e0d9bf,60edef3eee977e4d5a263b78,j,3.146,0,14,14,48,1,RROOOOO,RROOOOR,20.90986523,22.15934078,series_1
,,,,,,,,6066e7e5642c6520dabcdb5b,Mężczyzna,20,2021-07-13_22h01.25.654,rantool2,2021.1.4,Win32,59.66231132,6066e7e5642c6520dabcdb5b,60d9d14f4a8a35a482e0d9bf,60edef3eee977e4d5a263b78,j,3.248,0,15,15,18,1,OROOROO,OROOROR,20.84860893,21.22513037,series_1
,,,,,,,,6066e7e5642c6520dabcdb5b,Mężczyzna,20,2021-07-13_22h01.25.654,rantool2,2021.1.4,Win32,59.66231132,6066e7e5642c6520dabcdb5b,60d9d14f4a8a35a482e0d9bf,60edef3eee977e4d5a263b78,f,2.2392,0,16,16,14,1,OORRROO,OORRROR,22.24142883,22.16977179,series_0
,,,,,,,,6066e7e5642c6520dabcdb5b,Mężczyzna,20,2021-07-13_22h01.25.654,rantool2,2021.1.4,Win32,59.66231132,6066e7e5642c6520dabcdb5b,60d9d14f4a8a35a482e0d9bf,60edef3eee977e4d5a263b78,f,3.3969,0,17,17,39,1,ROORRRO,ROORRRR,21.82425538,21.38562617,series_0
,,,,,,,,6066e7e5642c6520dabcdb5b,Mężczyzna,20,2021-07-13_22h01.25.654,rantool2,2021.1.4,Win32,59.66231132,6066e7e5642c6520dabcdb5b,60d9d14f4a8a35a482e0d9bf,60edef3eee977e4d5a263b78,j,2.0379,0,18,18,21,1,ORORORO,ORORORR,20.39515459,22.06781359,series_1
,,,,,,,,6066e7e5642c6520dabcdb5b,Mężczyzna,20,2021-07-13_22h01.25.654,rantool2,2021.1.4,Win32,59.66231132,6066e7e5642c6520dabcdb5b,60d9d14f4a8a35a482e0d9bf,60edef3eee977e4d5a263b78,f,3.4504,0,19,19,27,1,ORRORRO,ORRORRR,21.55250791,22.2428857,series_1
,,,,,,,,6066e7e5642c6520dabcdb5b,Mężczyzna,20,2021-07-13_22h01.25.654,rantool2,2021.1.4,Win32,59.66231132,6066e7e5642c6520dabcdb5b,60d9d14f4a8a35a482e0d9bf,60edef3eee977e4d5a263b78,j,3.027,0,20,20,45,1,RORRORO,RORRORR,20.78182524,21.22513037,series_1
,,,,,,,,6066e7e5642c6520dabcdb5b,Mężczyzna,20,2021-07-13_22h01.25.654,rantool2,2021.1.4,Win32,59.66231132,6066e7e5642c6520dabcdb5b,60d9d14f4a8a35a482e0d9bf,60edef3eee977e4d5a263b78,f,3.2422,0,21,21,57,1,RRROORO,RRROORR,21.82425538,22.07102821,series_1
,,,,,,,,6066e7e5642c6520dabcdb5b,Mężczyzna,20,2021-07-13_22h01.25.654,rantool2,2021.1.4,Win32,59.66231132,6066e7e5642c6520dabcdb5b,60d9d14f4a8a35a482e0d9bf,60edef3eee977e4d5a263b78,j,3.3417,0,22,22,16,1,OROOOOO,OROOOOR,20.43051175,21.17347734,series_1
,,,,,,,,6066e7e5642c6520dabcdb5b,Mężczyzna,20,2021-07-13_22h01.25.654,rantool2,2021.1.4,Win32,59.66231132,6066e7e5642c6520dabcdb5b,60d9d14f4a8a35a482e0d9bf,60edef3eee977e4d5a263b78,f,3.3944,0,23,23,58,1,RRROROO,RRROROR,22.1285618,21.37121559,series_0
,,,,,,,,6066e7e5642c6520dabcdb5b,Mężczyzna,20,2021-07-13_22h01.25.654,rantool2,2021.1.4,Win32,59.66231132,6066e7e5642c6520dabcdb5b,60d9d14f4a8a35a482e0d9bf,60edef3eee977e4d5a263b78,j,3.6894,0,24,24,37,1,ROORORO,ROORORR,20.42602454,21.57657071,series_1
,,,,,,,,6066e7e5642c6520dabcdb5b,Mężczyzna,20,2021-07-13_22h01.25.654,rantool2,2021.1.4,Win32,59.66231132,6066e7e5642c6520dabcdb5b,60d9d14f4a8a35a482e0d9bf,60edef3eee977e4d5a263b78,f,3.2406,0,25,25,36,1,ROOROOO,ROOROOR,21.07991943,20.9984461,series_0
,,,,,,,,6066e7e5642c6520dabcdb5b,Mężczyzna,20,2021-07-13_22h01.25.654,rantool2,2021.1.4,Win32,59.66231132,6066e7e5642c6520dabcdb5b,60d9d14f4a8a35a482e0d9bf,60edef3eee977e4d5a263b78,j,3.4355,0,26,26,54,1,RRORROO,RRORROR,21.55250791,20.9984461,series_0
,,,,,,,,6066e7e5642c6520dabcdb5b,Mężczyzna,20,2021-07-13_22h01.25.654,rantool2,2021.1.4,Win32,59.66231132,6066e7e5642c6520dabcdb5b,60d9d14f4a8a35a482e0d9bf,60edef3eee977e4d5a263b78,f,3.3297,0,27,27,9,1,OOROORO,OOROORR,21.07991943,22.2428857,series_1
,,,,,,,,6066e7e5642c6520dabcdb5b,Mężczyzna,20,2021-07-13_22h01.25.654,rantool2,2021.1.4,Win32,59.66231132,6066e7e5642c6520dabcdb5b,60d9d14f4a8a35a482e0d9bf,60edef3eee977e4d5a263b78,j,3.3058,0,28,28,32,1,ROOOOOO,ROOOOOR,19.92253567,21.27974287,series_1
,,,,,,,,6066e7e5642c6520dabcdb5b,Mężczyzna,20,2021-07-13_22h01.25.654,rantool2,2021.1.4,Win32,59.66231132,6066e7e5642c6520dabcdb5b,60d9d14f4a8a35a482e0d9bf,60edef3eee977e4d5a263b78,f,3.5781,0,29,29,63,1,RRRRRRO,RRRRRRR,21.35278725,19.62521613,series_0
,,,,,,,,6066e7e5642c6520dabcdb5b,Mężczyzna,20,2021-07-13_22h01.25.654,rantool2,2021.1.4,Win32,59.66231132,6066e7e5642c6520dabcdb5b,60d9d14f4a8a35a482e0d9bf,60edef3eee977e4d5a263b78,j,3.0267,0,30,30,49,1,RROOORO,RROOORR,21.76276513,22.53364006,series_1
,,,,,,,,6066e7e5642c6520dabcdb5b,Mężczyzna,20,2021-07-13_22h01.25.654,rantool2,2021.1.4,Win32,59.66231132,6066e7e5642c6520dabcdb5b,60d9d14f4a8a35a482e0d9bf,60edef3eee977e4d5a263b78,f,3.7156,0,31,31,12,1,OORROOO,OORROOR,21.30250474,22.02786418,series_1
,,,,,,,,6066e7e5642c6520dabcdb5b,Mężczyzna,20,2021-07-13_22h01.25.654,rantool2,2021.1.4,Win32,59.66231132,6066e7e5642c6520dabcdb5b,60d9d14f4a8a35a482e0d9bf,60edef3eee977e4d5a263b78,j,3.843,0,32,32,50,1,RROOROO,RROOROR,21.73568164,22.02566557,series_1
,,,,,,,,6066e7e5642c6520dabcdb5b,Mężczyzna,20,2021-07-13_22h01.25.654,rantool2,2021.1.4,Win32,59.66231132,6066e7e5642c6520dabcdb5b,60d9d14f4a8a35a482e0d9bf,60edef3eee977e4d5a263b78,f,3.2082,0,33,33,29,1,ORRRORO,ORRRORR,22.00300695,22.12173012,series_1
,,,,,,,,6066e7e5642c6520dabcdb5b,Mężczyzna,20,2021-07-13_22h01.25.654,rantool2,2021.1.4,Win32,59.66231132,6066e7e5642c6520dabcdb5b,60d9d14f4a8a35a482e0d9bf,60edef3eee977e4d5a263b78,j,2.6906,0,34,34,7,1,OOORRRO,OOORRRR,21.6194508,21.899017,series_1
,,,,,,,,6066e7e5642c6520dabcdb5b,Mężczyzna,20,2021-07-13_22h01.25.654,rantool2,2021.1.4,Win32,59.66231132,6066e7e5642c6520dabcdb5b,60d9d14f4a8a35a482e0d9bf,60edef3eee977e4d5a263b78,f,2.8904,0,35,35,26,1,ORROROO,ORROROR,22.02732763,21.71443381,series_0
,,,,,,,,6066e7e5642c6520dabcdb5b,Mężczyzna,20,2021-07-13_22h01.25.654,rantool2,2021.1.4,Win32,59.66231132,6066e7e5642c6520dabcdb5b,60d9d14f4a8a35a482e0d9bf,60edef3eee977e4d5a263b78,j,2.9746,0,36,36,25,1,ORROORO,ORROORR,21.79500819,22.61624387,series_1
,,,,,,,,6066e7e5642c6520dabcdb5b,Mężczyzna,20,2021-07-13_22h01.25.654,rantool2,2021.1.4,Win32,59.66231132,6066e7e5642c6520dabcdb5b,60d9d14f4a8a35a482e0d9bf,60edef3eee977e4d5a263b78,f,3.6667,0,37,37,17,1,OROOORO,OROOORR,21.03750787,22.12173012,series_1
,,,,,,,,6066e7e5642c6520dabcdb5b,Mężczyzna,20,2021-07-13_22h01.25.654,rantool2,2021.1.4,Win32,59.66231132,6066e7e5642c6520dabcdb5b,60d9d14f4a8a35a482e0d9bf,60edef3eee977e4d5a263b78,f,3.348,0,38,38,30,1,ORRRROO,ORRRROR,22.46748491,22.03072203,series_0
,,,,,,,,6066e7e5642c6520dabcdb5b,Mężczyzna,20,2021-07-13_22h01.25.654,rantool2,2021.1.4,Win32,59.66231132,6066e7e5642c6520dabcdb5b,60d9d14f4a8a35a482e0d9bf,60edef3eee977e4d5a263b78,j,3.31,0,39,39,43,1,RORORRO,RORORRR,20.71309134,21.07490964,series_1
,,,,,,,,6066e7e5642c6520dabcdb5b,Mężczyzna,20,2021-07-13_22h01.25.654,rantool2,2021.1.4,Win32,59.66231132,6066e7e5642c6520dabcdb5b,60d9d14f4a8a35a482e0d9bf,60edef3eee977e4d5a263b78,j,3.611,0,40,40,59,1,RRRORRO,RRRORRR,21.56657303,20.89823192,series_0
,,,,,,,,6066e7e5642c6520dabcdb5b,Mężczyzna,20,2021-07-13_22h01.25.654,rantool2,2021.1.4,Win32,59.66231132,6066e7e5642c6520dabcdb5b,60d9d14f4a8a35a482e0d9bf,60edef3eee977e4d5a263b78,f,3.434,0,41,41,53,1,RRORORO,RRORORR,20.71309134,21.90565814,series_1
,,,,,,,,6066e7e5642c6520dabcdb5b,Mężczyzna,20,2021-07-13_22h01.25.654,rantool2,2021.1.4,Win32,59.66231132,6066e7e5642c6520dabcdb5b,60d9d14f4a8a35a482e0d9bf,60edef3eee977e4d5a263b78,j,3.2403,0,42,42,35,1,ROOORRO,ROOORRR,21.76276513,22.16977179,series_1
,,,,,,,,6066e7e5642c6520dabcdb5b,Mężczyzna,20,2021-07-13_22h01.25.654,rantool2,2021.1.4,Win32,59.66231132,6066e7e5642c6520dabcdb5b,60d9d14f4a8a35a482e0d9bf,60edef3eee977e4d5a263b78,j,1.7029,0,43,43,62,1,RRRRROO,RRRRROR,22.16413392,21.27974287,series_0
,,,,,,,,6066e7e5642c6520dabcdb5b,Mężczyzna,20,2021-07-13_22h01.25.654,rantool2,2021.1.4,Win32,59.66231132,6066e7e5642c6520dabcdb5b,60d9d14f4a8a35a482e0d9bf,60edef3eee977e4d5a263b78,j,3.0293,0,44,44,4,1,OOOROOO,OOOROOR,19.91402015,21.21223021,series_1
,,,,,,,,6066e7e5642c6520dabcdb5b,Mężczyzna,20,2021-07-13_22h01.25.654,rantool2,2021.1.4,Win32,59.66231132,6066e7e5642c6520dabcdb5b,60d9d14f4a8a35a482e0d9bf,60edef3eee977e4d5a263b78,f,3.2087,0,45,45,22,1,ORORROO,ORORROR,22.02732763,21.57657071,series_0
,,,,,,,,6066e7e5642c6520dabcdb5b,Mężczyzna,20,2021-07-13_22h01.25.654,rantool2,2021.1.4,Win32,59.66231132,6066e7e5642c6520dabcdb5b,60d9d14f4a8a35a482e0d9bf,60edef3eee977e4d5a263b78,j,3.7655,0,46,46,10,1,OOROROO,OOROROR,21.31236711,21.07490964,series_0
,,,,,,,,6066e7e5642c6520dabcdb5b,Mężczyzna,20,2021-07-13_22h01.25.654,rantool2,2021.1.4,Win32,59.66231132,6066e7e5642c6520dabcdb5b,60d9d14f4a8a35a482e0d9bf,60edef3eee977e4d5a263b78,f,1.2523,0,47,47,0,1,OOOOOOO,OOOOOOR,18.52739004,19.62521613,series_1
,,,,,,,,6066e7e5642c6520dabcdb5b,Mężczyzna,20,2021-07-13_22h01.25.654,rantool2,2021.1.4,Win32,59.66231132,6066e7e5642c6520dabcdb5b,60d9d14f4a8a35a482e0d9bf,60edef3eee977e4d5a263b78,j,2.8585,0,48,48,52,1,RROROOO,RROROOR,22.18365867,22.11097995,series_0
,,,,,,,,6066e7e5642c6520dabcdb5b,Mężczyzna,20,2021-07-13_22h01.25.654,rantool2,2021.1.4,Win32,59.66231132,6066e7e5642c6520dabcdb5b,60d9d14f4a8a35a482e0d9bf,60edef3eee977e4d5a263b78,f,2.7912,0,49,49,31,1,ORRRRRO,ORRRRRR,22.16413392,20.74050628,series_0
,,,,,,,,6066e7e5642c6520dabcdb5b,Mężczyzna,20,2021-07-13_22h01.25.654,rantool2,2021.1.4,Win32,59.66231132,6066e7e5642c6520dabcdb5b,60d9d14f4a8a35a482e0d9bf,60edef3eee977e4d5a263b78,f,2.9074,0,50,50,11,1,OORORRO,OORORRR,22.18365867,22.6797523,series_1
,,,,,,,,6066e7e5642c6520dabcdb5b,Mężczyzna,20,2021-07-13_22h01.25.654,rantool2,2021.1.4,Win32,59.66231132,6066e7e5642c6520dabcdb5b,60d9d14f4a8a35a482e0d9bf,60edef3eee977e4d5a263b78,f,3.5752,0,51,51,13,1,OORRORO,OORRORR,21.66733484,22.11181017,series_1
,,,,,,,,6066e7e5642c6520dabcdb5b,Mężczyzna,20,2021-07-13_22h01.25.654,rantool2,2021.1.4,Win32,59.66231132,6066e7e5642c6520dabcdb5b,60d9d14f4a8a35a482e0d9bf,60edef3eee977e4d5a263b78,j,2.8428,0,52,52,46,1,RORRROO,RORRROR,22.00300695,21.24781509,series_0
,,,,,,,,6066e7e5642c6520dabcdb5b,Mężczyzna,20,2021-07-13_22h01.25.654,rantool2,2021.1.4,Win32,59.66231132,6066e7e5642c6520dabcdb5b,60d9d14f4a8a35a482e0d9bf,60edef3eee977e4d5a263b78,f,3.1584,0,53,53,61,1,RRRRORO,RRRRORR,21.81333602,21.17347734,series_0
,,,,,,,,6066e7e5642c6520dabcdb5b,Mężczyzna,20,2021-07-13_22h01.25.654,rantool2,2021.1.4,Win32,59.66231132,6066e7e5642c6520dabcdb5b,60d9d14f4a8a35a482e0d9bf,60edef3eee977e4d5a263b78,j,2.9952,0,54,54,15,1,OORRRRO,OORRRRR,22.10108823,21.74922619,series_0
,,,,,,,,6066e7e5642c6520dabcdb5b,Mężczyzna,20,2021-07-13_22h01.25.654,rantool2,2021.1.4,Win32,59.66231132,6066e7e5642c6520dabcdb5b,60d9d14f4a8a35a482e0d9bf,60edef3eee977e4d5a263b78,f,3.3947,0,55,55,38,1,ROORROO,ROORROR,21.79500819,21.36812781,series_0
,,,,,,,,6066e7e5642c6520dabcdb5b,Mężczyzna,20,2021-07-13_22h01.25.654,rantool2,2021.1.4,Win32,59.66231132,6066e7e5642c6520dabcdb5b,60d9d14f4a8a35a482e0d9bf,60edef3eee977e4d5a263b78,j,3.2077,0,56,56,33,1,ROOOORO,ROOOORR,20.83779602,22.03072203,series_1
,,,,,,,,6066e7e5642c6520dabcdb5b,Mężczyzna,20,2021-07-13_22h01.25.654,rantool2,2021.1.4,Win32,59.66231132,6066e7e5642c6520dabcdb5b,60d9d14f4a8a35a482e0d9bf,60edef3eee977e4d5a263b78,j,3.209,0,57,57,23,1,ORORRRO,ORORRRR,22.1285618,21.9921709,series_0
,,,,,,,,6066e7e5642c6520dabcdb5b,Mężczyzna,20,2021-07-13_22h01.25.654,rantool2,2021.1.4,Win32,59.66231132,6066e7e5642c6520dabcdb5b,60d9d14f4a8a35a482e0d9bf,60edef3eee977e4d5a263b78,f,2.9798,0,58,58,34,1,ROOOROO,ROOOROR,21.03750787,21.24781509,series_1
,,,,,,,,6066e7e5642c6520dabcdb5b,Mężczyzna,20,2021-07-13_22h01.25.654,rantool2,2021.1.4,Win32,59.66231132,6066e7e5642c6520dabcdb5b,60d9d14f4a8a35a482e0d9bf,60edef3eee977e4d5a263b78,f,2.172,0,59,59,8,1,OOROOOO,OOROOOR,19.91402015,20.89823192,series_1
,,,,,,,,6066e7e5642c6520dabcdb5b,Mężczyzna,20,2021-07-13_22h01.25.654,rantool2,2021.1.4,Win32,59.66231132,6066e7e5642c6520dabcdb5b,60d9d14f4a8a35a482e0d9bf,60edef3eee977e4d5a263b78,f,3.1878,0,60,60,42,1,ROROROO,ROROROR,20.39515459,19.8361834,series_0
,,,,,,,,6066e7e5642c6520dabcdb5b,Mężczyzna,20,2021-07-13_22h01.25.654,rantool2,2021.1.4,Win32,59.66231132,6066e7e5642c6520dabcdb5b,60d9d14f4a8a35a482e0d9bf,60edef3eee977e4d5a263b78,j,3.2096,0,61,61,44,1,RORROOO,RORROOR,21.66733484,22.02566557,series_1
,,,,,,,,6066e7e5642c6520dabcdb5b,Mężczyzna,20,2021-07-13_22h01.25.654,rantool2,2021.1.4,Win32,59.66231132,6066e7e5642c6520dabcdb5b,60d9d14f4a8a35a482e0d9bf,60edef3eee977e4d5a263b78,j,2.7585,0,62,62,24,1,ORROOOO,ORROOOR,21.12383932,22.07102821,series_1
,,,,,,,,6066e7e5642c6520dabcdb5b,Mężczyzna,20,2021-07-13_22h01.25.654,rantool2,2021.1.4,Win32,59.66231132,6066e7e5642c6520dabcdb5b,60d9d14f4a8a35a482e0d9bf,60edef3eee977e4d5a263b78,f,2.6776,0,63,63,6,1,OOORROO,OOORROR,21.12383932,21.38562617,series_1
