key_resp_7.keys,key_resp_7.rt,trials_2.thisRepN,trials_2.thisTrialN,trials_2.thisN,trials_2.thisIndex,trials_2.ran,id,series_0,series_1,acss_0,acss_1,comparison,id*,Płeć*,Wiek*,date,expName,psychopyVersion,OS,frameRate,STUDY_ID,SESSION_ID,key_resp_5.keys,key_resp_5.corr,key_resp_5.rt,trials.thisRepN,trials.thisTrialN,trials.thisN,trials.thisIndex,trials.ran
f,3.6062,0,0,0,18,1,5e307a080551ae02939239f3,OROOROO,OROOROR,20.84860893,21.22513037,series_1,5e307a080551ae02939239f3,Kobieta,22,2021-09-06_18h39.07.460,rantool2,2021.1.4,Win32,59.11563017,6135e006383e6ea6c3d06a28,61364409c2bb53a884574fb0,,,,,,,,
j,2.7929,0,1,1,14,1,5e307a080551ae02939239f3,OORRROO,OORRROR,22.24142883,22.16977179,series_0,5e307a080551ae02939239f3,Kobieta,22,2021-09-06_18h39.07.460,rantool2,2021.1.4,Win32,59.11563017,6135e006383e6ea6c3d06a28,61364409c2bb53a884574fb0,,,,,,,,
f,0.7179,0,2,2,36,1,5e307a080551ae02939239f3,ROOROOO,ROOROOR,21.07991943,20.9984461,series_0,5e307a080551ae02939239f3,Kobieta,22,2021-09-06_18h39.07.460,rantool2,2021.1.4,Win32,59.11563017,6135e006383e6ea6c3d06a28,61364409c2bb53a884574fb0,,,,,,,,
f,1.7598,0,3,3,13,1,5e307a080551ae02939239f3,OORRORO,OORRORR,21.66733484,22.11181017,series_1,5e307a080551ae02939239f3,Kobieta,22,2021-09-06_18h39.07.460,rantool2,2021.1.4,Win32,59.11563017,6135e006383e6ea6c3d06a28,61364409c2bb53a884574fb0,,,,,,,,
f,1.4249,0,4,4,40,1,5e307a080551ae02939239f3,ROROOOO,ROROOOR,20.87963819,21.37121559,series_1,5e307a080551ae02939239f3,Kobieta,22,2021-09-06_18h39.07.460,rantool2,2021.1.4,Win32,59.11563017,6135e006383e6ea6c3d06a28,61364409c2bb53a884574fb0,,,,,,,,
f,1.3526,0,5,5,58,1,5e307a080551ae02939239f3,RRROROO,RRROROR,22.1285618,21.37121559,series_0,5e307a080551ae02939239f3,Kobieta,22,2021-09-06_18h39.07.460,rantool2,2021.1.4,Win32,59.11563017,6135e006383e6ea6c3d06a28,61364409c2bb53a884574fb0,,,,,,,,
j,2.2592,0,6,6,31,1,5e307a080551ae02939239f3,ORRRRRO,ORRRRRR,22.16413392,20.74050628,series_0,5e307a080551ae02939239f3,Kobieta,22,2021-09-06_18h39.07.460,rantool2,2021.1.4,Win32,59.11563017,6135e006383e6ea6c3d06a28,61364409c2bb53a884574fb0,,,,,,,,
j,2.2783,0,7,7,42,1,5e307a080551ae02939239f3,ROROROO,ROROROR,20.39515459,19.8361834,series_0,5e307a080551ae02939239f3,Kobieta,22,2021-09-06_18h39.07.460,rantool2,2021.1.4,Win32,59.11563017,6135e006383e6ea6c3d06a28,61364409c2bb53a884574fb0,,,,,,,,
f,1.078,0,8,8,26,1,5e307a080551ae02939239f3,ORROROO,ORROROR,22.02732763,21.71443381,series_0,5e307a080551ae02939239f3,Kobieta,22,2021-09-06_18h39.07.460,rantool2,2021.1.4,Win32,59.11563017,6135e006383e6ea6c3d06a28,61364409c2bb53a884574fb0,,,,,,,,
f,1.551,0,9,9,60,1,5e307a080551ae02939239f3,RRRROOO,RRRROOR,22.10108823,22.15934078,series_1,5e307a080551ae02939239f3,Kobieta,22,2021-09-06_18h39.07.460,rantool2,2021.1.4,Win32,59.11563017,6135e006383e6ea6c3d06a28,61364409c2bb53a884574fb0,,,,,,,,
f,1.1754,0,10,10,61,1,5e307a080551ae02939239f3,RRRRORO,RRRRORR,21.81333602,21.17347734,series_0,5e307a080551ae02939239f3,Kobieta,22,2021-09-06_18h39.07.460,rantool2,2021.1.4,Win32,59.11563017,6135e006383e6ea6c3d06a28,61364409c2bb53a884574fb0,,,,,,,,
f,2.5276,0,11,11,17,1,5e307a080551ae02939239f3,OROOORO,OROOORR,21.03750787,22.12173012,series_1,5e307a080551ae02939239f3,Kobieta,22,2021-09-06_18h39.07.460,rantool2,2021.1.4,Win32,59.11563017,6135e006383e6ea6c3d06a28,61364409c2bb53a884574fb0,,,,,,,,
j,1.133,0,12,12,22,1,5e307a080551ae02939239f3,ORORROO,ORORROR,22.02732763,21.57657071,series_0,5e307a080551ae02939239f3,Kobieta,22,2021-09-06_18h39.07.460,rantool2,2021.1.4,Win32,59.11563017,6135e006383e6ea6c3d06a28,61364409c2bb53a884574fb0,,,,,,,,
f,1.0054,0,13,13,55,1,5e307a080551ae02939239f3,RRORRRO,RRORRRR,21.56657303,21.21223021,series_0,5e307a080551ae02939239f3,Kobieta,22,2021-09-06_18h39.07.460,rantool2,2021.1.4,Win32,59.11563017,6135e006383e6ea6c3d06a28,61364409c2bb53a884574fb0,,,,,,,,
f,1.4238,0,14,14,53,1,5e307a080551ae02939239f3,RRORORO,RRORORR,20.71309134,21.90565814,series_1,5e307a080551ae02939239f3,Kobieta,22,2021-09-06_18h39.07.460,rantool2,2021.1.4,Win32,59.11563017,6135e006383e6ea6c3d06a28,61364409c2bb53a884574fb0,,,,,,,,
j,0.9671,0,15,15,51,1,5e307a080551ae02939239f3,RROORRO,RROORRR,21.89852628,22.02786418,series_1,5e307a080551ae02939239f3,Kobieta,22,2021-09-06_18h39.07.460,rantool2,2021.1.4,Win32,59.11563017,6135e006383e6ea6c3d06a28,61364409c2bb53a884574fb0,,,,,,,,
f,0.6048,0,16,16,50,1,5e307a080551ae02939239f3,RROOROO,RROOROR,21.73568164,22.02566557,series_1,5e307a080551ae02939239f3,Kobieta,22,2021-09-06_18h39.07.460,rantool2,2021.1.4,Win32,59.11563017,6135e006383e6ea6c3d06a28,61364409c2bb53a884574fb0,,,,,,,,
j,1.0909,0,17,17,33,1,5e307a080551ae02939239f3,ROOOORO,ROOOORR,20.83779602,22.03072203,series_1,5e307a080551ae02939239f3,Kobieta,22,2021-09-06_18h39.07.460,rantool2,2021.1.4,Win32,59.11563017,6135e006383e6ea6c3d06a28,61364409c2bb53a884574fb0,,,,,,,,
f,0.8242,0,18,18,38,1,5e307a080551ae02939239f3,ROORROO,ROORROR,21.79500819,21.36812781,series_0,5e307a080551ae02939239f3,Kobieta,22,2021-09-06_18h39.07.460,rantool2,2021.1.4,Win32,59.11563017,6135e006383e6ea6c3d06a28,61364409c2bb53a884574fb0,,,,,,,,
j,0.8948,0,19,19,6,1,5e307a080551ae02939239f3,OOORROO,OOORROR,21.12383932,21.38562617,series_1,5e307a080551ae02939239f3,Kobieta,22,2021-09-06_18h39.07.460,rantool2,2021.1.4,Win32,59.11563017,6135e006383e6ea6c3d06a28,61364409c2bb53a884574fb0,,,,,,,,
j,0.7617,0,20,20,1,1,5e307a080551ae02939239f3,OOOOORO,OOOOORR,19.92253567,20.74050628,series_1,5e307a080551ae02939239f3,Kobieta,22,2021-09-06_18h39.07.460,rantool2,2021.1.4,Win32,59.11563017,6135e006383e6ea6c3d06a28,61364409c2bb53a884574fb0,,,,,,,,
j,2.1334,0,21,21,41,1,5e307a080551ae02939239f3,ROROORO,ROROORR,20.42602454,21.71443381,series_1,5e307a080551ae02939239f3,Kobieta,22,2021-09-06_18h39.07.460,rantool2,2021.1.4,Win32,59.11563017,6135e006383e6ea6c3d06a28,61364409c2bb53a884574fb0,,,,,,,,
j,1.8449,0,22,22,9,1,5e307a080551ae02939239f3,OOROORO,OOROORR,21.07991943,22.2428857,series_1,5e307a080551ae02939239f3,Kobieta,22,2021-09-06_18h39.07.460,rantool2,2021.1.4,Win32,59.11563017,6135e006383e6ea6c3d06a28,61364409c2bb53a884574fb0,,,,,,,,
f,1.0277,0,23,23,29,1,5e307a080551ae02939239f3,ORRRORO,ORRRORR,22.00300695,22.12173012,series_1,5e307a080551ae02939239f3,Kobieta,22,2021-09-06_18h39.07.460,rantool2,2021.1.4,Win32,59.11563017,6135e006383e6ea6c3d06a28,61364409c2bb53a884574fb0,,,,,,,,
f,0.7885,0,24,24,3,1,5e307a080551ae02939239f3,OOOORRO,OOOORRR,20.90986523,21.74922619,series_1,5e307a080551ae02939239f3,Kobieta,22,2021-09-06_18h39.07.460,rantool2,2021.1.4,Win32,59.11563017,6135e006383e6ea6c3d06a28,61364409c2bb53a884574fb0,,,,,,,,
f,1.1238,0,25,25,59,1,5e307a080551ae02939239f3,RRRORRO,RRRORRR,21.56657303,20.89823192,series_0,5e307a080551ae02939239f3,Kobieta,22,2021-09-06_18h39.07.460,rantool2,2021.1.4,Win32,59.11563017,6135e006383e6ea6c3d06a28,61364409c2bb53a884574fb0,,,,,,,,
j,1.4417,0,26,26,46,1,5e307a080551ae02939239f3,RORRROO,RORRROR,22.00300695,21.24781509,series_0,5e307a080551ae02939239f3,Kobieta,22,2021-09-06_18h39.07.460,rantool2,2021.1.4,Win32,59.11563017,6135e006383e6ea6c3d06a28,61364409c2bb53a884574fb0,,,,,,,,
j,1.6418,0,27,27,11,1,5e307a080551ae02939239f3,OORORRO,OORORRR,22.18365867,22.6797523,series_1,5e307a080551ae02939239f3,Kobieta,22,2021-09-06_18h39.07.460,rantool2,2021.1.4,Win32,59.11563017,6135e006383e6ea6c3d06a28,61364409c2bb53a884574fb0,,,,,,,,
f,1.2339,0,28,28,47,1,5e307a080551ae02939239f3,RORRRRO,RORRRRR,21.81333602,21.02936224,series_0,5e307a080551ae02939239f3,Kobieta,22,2021-09-06_18h39.07.460,rantool2,2021.1.4,Win32,59.11563017,6135e006383e6ea6c3d06a28,61364409c2bb53a884574fb0,,,,,,,,
j,1.4739,0,29,29,4,1,5e307a080551ae02939239f3,OOOROOO,OOOROOR,19.91402015,21.21223021,series_1,5e307a080551ae02939239f3,Kobieta,22,2021-09-06_18h39.07.460,rantool2,2021.1.4,Win32,59.11563017,6135e006383e6ea6c3d06a28,61364409c2bb53a884574fb0,,,,,,,,
j,0.9795,0,30,30,45,1,5e307a080551ae02939239f3,RORRORO,RORRORR,20.78182524,21.22513037,series_1,5e307a080551ae02939239f3,Kobieta,22,2021-09-06_18h39.07.460,rantool2,2021.1.4,Win32,59.11563017,6135e006383e6ea6c3d06a28,61364409c2bb53a884574fb0,,,,,,,,
j,0.6491,0,31,31,24,1,5e307a080551ae02939239f3,ORROOOO,ORROOOR,21.12383932,22.07102821,series_1,5e307a080551ae02939239f3,Kobieta,22,2021-09-06_18h39.07.460,rantool2,2021.1.4,Win32,59.11563017,6135e006383e6ea6c3d06a28,61364409c2bb53a884574fb0,,,,,,,,
f,0.6045,0,32,32,49,1,5e307a080551ae02939239f3,RROOORO,RROOORR,21.76276513,22.53364006,series_1,5e307a080551ae02939239f3,Kobieta,22,2021-09-06_18h39.07.460,rantool2,2021.1.4,Win32,59.11563017,6135e006383e6ea6c3d06a28,61364409c2bb53a884574fb0,,,,,,,,
j,1.4338,0,33,33,25,1,5e307a080551ae02939239f3,ORROORO,ORROORR,21.79500819,22.61624387,series_1,5e307a080551ae02939239f3,Kobieta,22,2021-09-06_18h39.07.460,rantool2,2021.1.4,Win32,59.11563017,6135e006383e6ea6c3d06a28,61364409c2bb53a884574fb0,,,,,,,,
f,0.7574,0,34,34,2,1,5e307a080551ae02939239f3,OOOOROO,OOOOROR,20.43051175,21.02936224,series_1,5e307a080551ae02939239f3,Kobieta,22,2021-09-06_18h39.07.460,rantool2,2021.1.4,Win32,59.11563017,6135e006383e6ea6c3d06a28,61364409c2bb53a884574fb0,,,,,,,,
j,1.758,0,35,35,28,1,5e307a080551ae02939239f3,ORRROOO,ORRROOR,22.24142883,22.53364006,series_1,5e307a080551ae02939239f3,Kobieta,22,2021-09-06_18h39.07.460,rantool2,2021.1.4,Win32,59.11563017,6135e006383e6ea6c3d06a28,61364409c2bb53a884574fb0,,,,,,,,
j,1.3488,0,36,36,27,1,5e307a080551ae02939239f3,ORRORRO,ORRORRR,21.55250791,22.2428857,series_1,5e307a080551ae02939239f3,Kobieta,22,2021-09-06_18h39.07.460,rantool2,2021.1.4,Win32,59.11563017,6135e006383e6ea6c3d06a28,61364409c2bb53a884574fb0,,,,,,,,
f,0.9346,0,37,37,37,1,5e307a080551ae02939239f3,ROORORO,ROORORR,20.42602454,21.57657071,series_1,5e307a080551ae02939239f3,Kobieta,22,2021-09-06_18h39.07.460,rantool2,2021.1.4,Win32,59.11563017,6135e006383e6ea6c3d06a28,61364409c2bb53a884574fb0,,,,,,,,
f,1.7021,0,38,38,57,1,5e307a080551ae02939239f3,RRROORO,RRROORR,21.82425538,22.07102821,series_1,5e307a080551ae02939239f3,Kobieta,22,2021-09-06_18h39.07.460,rantool2,2021.1.4,Win32,59.11563017,6135e006383e6ea6c3d06a28,61364409c2bb53a884574fb0,,,,,,,,
j,1.0001,0,39,39,0,1,5e307a080551ae02939239f3,OOOOOOO,OOOOOOR,18.52739004,19.62521613,series_1,5e307a080551ae02939239f3,Kobieta,22,2021-09-06_18h39.07.460,rantool2,2021.1.4,Win32,59.11563017,6135e006383e6ea6c3d06a28,61364409c2bb53a884574fb0,,,,,,,,
j,2.2625,0,40,40,21,1,5e307a080551ae02939239f3,ORORORO,ORORORR,20.39515459,22.06781359,series_1,5e307a080551ae02939239f3,Kobieta,22,2021-09-06_18h39.07.460,rantool2,2021.1.4,Win32,59.11563017,6135e006383e6ea6c3d06a28,61364409c2bb53a884574fb0,,,,,,,,
j,1.3405,0,41,41,20,1,5e307a080551ae02939239f3,OROROOO,OROROOR,21.31236711,21.90565814,series_1,5e307a080551ae02939239f3,Kobieta,22,2021-09-06_18h39.07.460,rantool2,2021.1.4,Win32,59.11563017,6135e006383e6ea6c3d06a28,61364409c2bb53a884574fb0,,,,,,,,
f,1.1714,0,42,42,12,1,5e307a080551ae02939239f3,OORROOO,OORROOR,21.30250474,22.02786418,series_1,5e307a080551ae02939239f3,Kobieta,22,2021-09-06_18h39.07.460,rantool2,2021.1.4,Win32,59.11563017,6135e006383e6ea6c3d06a28,61364409c2bb53a884574fb0,,,,,,,,
f,0.7364,0,43,43,34,1,5e307a080551ae02939239f3,ROOOROO,ROOOROR,21.03750787,21.24781509,series_1,5e307a080551ae02939239f3,Kobieta,22,2021-09-06_18h39.07.460,rantool2,2021.1.4,Win32,59.11563017,6135e006383e6ea6c3d06a28,61364409c2bb53a884574fb0,,,,,,,,
j,2.3323,0,44,44,35,1,5e307a080551ae02939239f3,ROOORRO,ROOORRR,21.76276513,22.16977179,series_1,5e307a080551ae02939239f3,Kobieta,22,2021-09-06_18h39.07.460,rantool2,2021.1.4,Win32,59.11563017,6135e006383e6ea6c3d06a28,61364409c2bb53a884574fb0,,,,,,,,
j,1.2111,0,45,45,43,1,5e307a080551ae02939239f3,RORORRO,RORORRR,20.71309134,21.07490964,series_1,5e307a080551ae02939239f3,Kobieta,22,2021-09-06_18h39.07.460,rantool2,2021.1.4,Win32,59.11563017,6135e006383e6ea6c3d06a28,61364409c2bb53a884574fb0,,,,,,,,
j,0.8677,0,46,46,19,1,5e307a080551ae02939239f3,OROORRO,OROORRR,21.73568164,22.11181017,series_1,5e307a080551ae02939239f3,Kobieta,22,2021-09-06_18h39.07.460,rantool2,2021.1.4,Win32,59.11563017,6135e006383e6ea6c3d06a28,61364409c2bb53a884574fb0,,,,,,,,
j,1.084,0,47,47,32,1,5e307a080551ae02939239f3,ROOOOOO,ROOOOOR,19.92253567,21.27974287,series_1,5e307a080551ae02939239f3,Kobieta,22,2021-09-06_18h39.07.460,rantool2,2021.1.4,Win32,59.11563017,6135e006383e6ea6c3d06a28,61364409c2bb53a884574fb0,,,,,,,,
f,1.1945,0,48,48,54,1,5e307a080551ae02939239f3,RRORROO,RRORROR,21.55250791,20.9984461,series_0,5e307a080551ae02939239f3,Kobieta,22,2021-09-06_18h39.07.460,rantool2,2021.1.4,Win32,59.11563017,6135e006383e6ea6c3d06a28,61364409c2bb53a884574fb0,,,,,,,,
j,0.8496,0,49,49,15,1,5e307a080551ae02939239f3,OORRRRO,OORRRRR,22.10108823,21.74922619,series_0,5e307a080551ae02939239f3,Kobieta,22,2021-09-06_18h39.07.460,rantool2,2021.1.4,Win32,59.11563017,6135e006383e6ea6c3d06a28,61364409c2bb53a884574fb0,,,,,,,,
f,0.8855,0,50,50,63,1,5e307a080551ae02939239f3,RRRRRRO,RRRRRRR,21.35278725,19.62521613,series_0,5e307a080551ae02939239f3,Kobieta,22,2021-09-06_18h39.07.460,rantool2,2021.1.4,Win32,59.11563017,6135e006383e6ea6c3d06a28,61364409c2bb53a884574fb0,,,,,,,,
f,1.5064,0,51,51,5,1,5e307a080551ae02939239f3,OOORORO,OOORORR,20.87963819,21.9921709,series_1,5e307a080551ae02939239f3,Kobieta,22,2021-09-06_18h39.07.460,rantool2,2021.1.4,Win32,59.11563017,6135e006383e6ea6c3d06a28,61364409c2bb53a884574fb0,,,,,,,,
f,0.9834,0,52,52,56,1,5e307a080551ae02939239f3,RRROOOO,RRROOOR,21.6194508,22.31681875,series_1,5e307a080551ae02939239f3,Kobieta,22,2021-09-06_18h39.07.460,rantool2,2021.1.4,Win32,59.11563017,6135e006383e6ea6c3d06a28,61364409c2bb53a884574fb0,,,,,,,,
j,0.96,0,53,53,48,1,5e307a080551ae02939239f3,RROOOOO,RROOOOR,20.90986523,22.15934078,series_1,5e307a080551ae02939239f3,Kobieta,22,2021-09-06_18h39.07.460,rantool2,2021.1.4,Win32,59.11563017,6135e006383e6ea6c3d06a28,61364409c2bb53a884574fb0,,,,,,,,
f,0.5438,0,54,54,7,1,5e307a080551ae02939239f3,OOORRRO,OOORRRR,21.6194508,21.899017,series_1,5e307a080551ae02939239f3,Kobieta,22,2021-09-06_18h39.07.460,rantool2,2021.1.4,Win32,59.11563017,6135e006383e6ea6c3d06a28,61364409c2bb53a884574fb0,,,,,,,,
j,0.5951,0,55,55,30,1,5e307a080551ae02939239f3,ORRRROO,ORRRROR,22.46748491,22.03072203,series_0,5e307a080551ae02939239f3,Kobieta,22,2021-09-06_18h39.07.460,rantool2,2021.1.4,Win32,59.11563017,6135e006383e6ea6c3d06a28,61364409c2bb53a884574fb0,,,,,,,,
f,1.0852,0,56,56,16,1,5e307a080551ae02939239f3,OROOOOO,OROOOOR,20.43051175,21.17347734,series_1,5e307a080551ae02939239f3,Kobieta,22,2021-09-06_18h39.07.460,rantool2,2021.1.4,Win32,59.11563017,6135e006383e6ea6c3d06a28,61364409c2bb53a884574fb0,,,,,,,,
j,0.8394,0,57,57,62,1,5e307a080551ae02939239f3,RRRRROO,RRRRROR,22.16413392,21.27974287,series_0,5e307a080551ae02939239f3,Kobieta,22,2021-09-06_18h39.07.460,rantool2,2021.1.4,Win32,59.11563017,6135e006383e6ea6c3d06a28,61364409c2bb53a884574fb0,,,,,,,,
j,0.9794,0,58,58,10,1,5e307a080551ae02939239f3,OOROROO,OOROROR,21.31236711,21.07490964,series_0,5e307a080551ae02939239f3,Kobieta,22,2021-09-06_18h39.07.460,rantool2,2021.1.4,Win32,59.11563017,6135e006383e6ea6c3d06a28,61364409c2bb53a884574fb0,,,,,,,,
f,0.753,0,59,59,52,1,5e307a080551ae02939239f3,RROROOO,RROROOR,22.18365867,22.11097995,series_0,5e307a080551ae02939239f3,Kobieta,22,2021-09-06_18h39.07.460,rantool2,2021.1.4,Win32,59.11563017,6135e006383e6ea6c3d06a28,61364409c2bb53a884574fb0,,,,,,,,
j,0.8161,0,60,60,44,1,5e307a080551ae02939239f3,RORROOO,RORROOR,21.66733484,22.02566557,series_1,5e307a080551ae02939239f3,Kobieta,22,2021-09-06_18h39.07.460,rantool2,2021.1.4,Win32,59.11563017,6135e006383e6ea6c3d06a28,61364409c2bb53a884574fb0,,,,,,,,
j,0.8514,0,61,61,39,1,5e307a080551ae02939239f3,ROORRRO,ROORRRR,21.82425538,21.38562617,series_0,5e307a080551ae02939239f3,Kobieta,22,2021-09-06_18h39.07.460,rantool2,2021.1.4,Win32,59.11563017,6135e006383e6ea6c3d06a28,61364409c2bb53a884574fb0,,,,,,,,
f,0.9248,0,62,62,8,1,5e307a080551ae02939239f3,OOROOOO,OOROOOR,19.91402015,20.89823192,series_1,5e307a080551ae02939239f3,Kobieta,22,2021-09-06_18h39.07.460,rantool2,2021.1.4,Win32,59.11563017,6135e006383e6ea6c3d06a28,61364409c2bb53a884574fb0,,,,,,,,
j,0.8882,0,63,63,23,1,5e307a080551ae02939239f3,ORORRRO,ORORRRR,22.1285618,21.9921709,series_0,5e307a080551ae02939239f3,Kobieta,22,2021-09-06_18h39.07.460,rantool2,2021.1.4,Win32,59.11563017,6135e006383e6ea6c3d06a28,61364409c2bb53a884574fb0,,,,,,,,
,,,,,,,5e307a080551ae02939239f3,,,,,,5e307a080551ae02939239f3,Kobieta,22,2021-09-06_18h39.07.460,rantool2,2021.1.4,Win32,59.11563017,6135e006383e6ea6c3d06a28,61364409c2bb53a884574fb0,"[""period""]",0,[1.271799999952293],0,0,0,0,1
,,,,,,,5e307a080551ae02939239f3,,,,,,5e307a080551ae02939239f3,Kobieta,22,2021-09-06_18h39.07.460,rantool2,2021.1.4,Win32,59.11563017,6135e006383e6ea6c3d06a28,61364409c2bb53a884574fb0,"[""comma"",""comma""]",0,"[0.16710000014302295,0.6839000000953774]",1,0,1,0,1
,,,,,,,5e307a080551ae02939239f3,,,,,,5e307a080551ae02939239f3,Kobieta,22,2021-09-06_18h39.07.460,rantool2,2021.1.4,Win32,59.11563017,6135e006383e6ea6c3d06a28,61364409c2bb53a884574fb0,"[""period"",""period""]",0,"[0.1507000000476637,0.7172999999522744]",2,0,2,0,1
,,,,,,,5e307a080551ae02939239f3,,,,,,5e307a080551ae02939239f3,Kobieta,22,2021-09-06_18h39.07.460,rantool2,2021.1.4,Win32,59.11563017,6135e006383e6ea6c3d06a28,61364409c2bb53a884574fb0,"[""period""]",0,[0.23490000009536516],3,0,3,0,1
,,,,,,,5e307a080551ae02939239f3,,,,,,5e307a080551ae02939239f3,Kobieta,22,2021-09-06_18h39.07.460,rantool2,2021.1.4,Win32,59.11563017,6135e006383e6ea6c3d06a28,61364409c2bb53a884574fb0,"[""period""]",0,[0.4217000000476787],4,0,4,0,1
,,,,,,,5e307a080551ae02939239f3,,,,,,5e307a080551ae02939239f3,Kobieta,22,2021-09-06_18h39.07.460,rantool2,2021.1.4,Win32,59.11563017,6135e006383e6ea6c3d06a28,61364409c2bb53a884574fb0,"[""comma""]",0,[0.3336000001430648],5,0,5,0,1
,,,,,,,5e307a080551ae02939239f3,,,,,,5e307a080551ae02939239f3,Kobieta,22,2021-09-06_18h39.07.460,rantool2,2021.1.4,Win32,59.11563017,6135e006383e6ea6c3d06a28,61364409c2bb53a884574fb0,"[""period"",""period""]",0,"[0.25060000014303796,1.8002999999523013]",6,0,6,0,1
,,,,,,,5e307a080551ae02939239f3,,,,,,5e307a080551ae02939239f3,Kobieta,22,2021-09-06_18h39.07.460,rantool2,2021.1.4,Win32,59.11563017,6135e006383e6ea6c3d06a28,61364409c2bb53a884574fb0,"[""period""]",0,[0.41700000000003],7,0,7,0,1
,,,,,,,5e307a080551ae02939239f3,,,,,,5e307a080551ae02939239f3,Kobieta,22,2021-09-06_18h39.07.460,rantool2,2021.1.4,Win32,59.11563017,6135e006383e6ea6c3d06a28,61364409c2bb53a884574fb0,"[""comma""]",0,[0.23640000009538653],8,0,8,0,1
,,,,,,,5e307a080551ae02939239f3,,,,,,5e307a080551ae02939239f3,Kobieta,22,2021-09-06_18h39.07.460,rantool2,2021.1.4,Win32,59.11563017,6135e006383e6ea6c3d06a28,61364409c2bb53a884574fb0,"[""period"",""period""]",0,"[0.19499999999999318,0.6919999999999504]",9,0,9,0,1
,,,,,,,5e307a080551ae02939239f3,,,,,,5e307a080551ae02939239f3,Kobieta,22,2021-09-06_18h39.07.460,rantool2,2021.1.4,Win32,59.11563017,6135e006383e6ea6c3d06a28,61364409c2bb53a884574fb0,"[""comma"",""comma""]",0,"[0.30920000004766734,0.7339999999999804]",10,0,10,0,1
,,,,,,,5e307a080551ae02939239f3,,,,,,5e307a080551ae02939239f3,Kobieta,22,2021-09-06_18h39.07.460,rantool2,2021.1.4,Win32,59.11563017,6135e006383e6ea6c3d06a28,61364409c2bb53a884574fb0,"[""period"",""period""]",0,"[0.09379999995235266,0.5747999999523472]",11,0,11,0,1
,,,,,,,5e307a080551ae02939239f3,,,,,,5e307a080551ae02939239f3,Kobieta,22,2021-09-06_18h39.07.460,rantool2,2021.1.4,Win32,59.11563017,6135e006383e6ea6c3d06a28,61364409c2bb53a884574fb0,"[""comma"",""period""]",0,"[0.23410000014303023,1.633900000095366]",12,0,12,0,1
,,,,,,,5e307a080551ae02939239f3,,,,,,5e307a080551ae02939239f3,Kobieta,22,2021-09-06_18h39.07.460,rantool2,2021.1.4,Win32,59.11563017,6135e006383e6ea6c3d06a28,61364409c2bb53a884574fb0,"[""period"",""period""]",0,"[0.43390000009537744,0.8127999999523468]",13,0,13,0,1
,,,,,,,5e307a080551ae02939239f3,,,,,,5e307a080551ae02939239f3,Kobieta,22,2021-09-06_18h39.07.460,rantool2,2021.1.4,Win32,59.11563017,6135e006383e6ea6c3d06a28,61364409c2bb53a884574fb0,"[""comma""]",0,[0.3244000000954088],14,0,14,0,1
,,,,,,,5e307a080551ae02939239f3,,,,,,5e307a080551ae02939239f3,Kobieta,22,2021-09-06_18h39.07.460,rantool2,2021.1.4,Win32,59.11563017,6135e006383e6ea6c3d06a28,61364409c2bb53a884574fb0,"[""period"",""period"",""period""]",0,"[0.2719000000953997,0.6533000001907681,0.8563000001907426]",15,0,15,0,1
,,,,,,,5e307a080551ae02939239f3,,,,,,5e307a080551ae02939239f3,Kobieta,22,2021-09-06_18h39.07.460,rantool2,2021.1.4,Win32,59.11563017,6135e006383e6ea6c3d06a28,61364409c2bb53a884574fb0,"[""period"",""period"",""period""]",0,"[0.3962000000477133,1.4671000001430343,1.6504000000953738]",16,0,16,0,1
,,,,,,,5e307a080551ae02939239f3,,,,,,5e307a080551ae02939239f3,Kobieta,22,2021-09-06_18h39.07.460,rantool2,2021.1.4,Win32,59.11563017,6135e006383e6ea6c3d06a28,61364409c2bb53a884574fb0,"[""period"",""comma"",""comma""]",0,"[0.3898999998569366,0.8875999999046371,1.9056999998092579]",17,0,17,0,1
,,,,,,,5e307a080551ae02939239f3,,,,,,5e307a080551ae02939239f3,Kobieta,22,2021-09-06_18h39.07.460,rantool2,2021.1.4,Win32,59.11563017,6135e006383e6ea6c3d06a28,61364409c2bb53a884574fb0,"[""period"",""period""]",0,"[0.17829999995228718,0.9257999999522895]",18,0,18,0,1
,,,,,,,5e307a080551ae02939239f3,,,,,,5e307a080551ae02939239f3,Kobieta,22,2021-09-06_18h39.07.460,rantool2,2021.1.4,Win32,59.11563017,6135e006383e6ea6c3d06a28,61364409c2bb53a884574fb0,"[""comma"",""period""]",0,"[0.18459999990460574,0.7282000000476501]",19,0,19,0,1
,,,,,,,5e307a080551ae02939239f3,,,,,,5e307a080551ae02939239f3,Kobieta,22,2021-09-06_18h39.07.460,rantool2,2021.1.4,Win32,59.11563017,6135e006383e6ea6c3d06a28,61364409c2bb53a884574fb0,"[""comma"",""comma"",""comma"",""period""]",0,"[0.244599999904608,0.45090000009537334,0.6840000000000259,0.900900000095362]",20,0,20,0,1
,,,,,,,5e307a080551ae02939239f3,,,,,,5e307a080551ae02939239f3,Kobieta,22,2021-09-06_18h39.07.460,rantool2,2021.1.4,Win32,59.11563017,6135e006383e6ea6c3d06a28,61364409c2bb53a884574fb0,"[""comma"",""comma""]",0,"[0.5366000001430962,0.8957999999523167]",21,0,21,0,1
,,,,,,,5e307a080551ae02939239f3,,,,,,5e307a080551ae02939239f3,Kobieta,22,2021-09-06_18h39.07.460,rantool2,2021.1.4,Win32,59.11563017,6135e006383e6ea6c3d06a28,61364409c2bb53a884574fb0,"[""period""]",0,[0.2672999999522858],22,0,22,0,1
,,,,,,,5e307a080551ae02939239f3,,,,,,5e307a080551ae02939239f3,Kobieta,22,2021-09-06_18h39.07.460,rantool2,2021.1.4,Win32,59.11563017,6135e006383e6ea6c3d06a28,61364409c2bb53a884574fb0,"[""comma"",""period""]",0,"[0.16800000000000637,1.3179999999999836]",23,0,23,0,1
,,,,,,,5e307a080551ae02939239f3,,,,,,5e307a080551ae02939239f3,Kobieta,22,2021-09-06_18h39.07.460,rantool2,2021.1.4,Win32,59.11563017,6135e006383e6ea6c3d06a28,61364409c2bb53a884574fb0,"[""comma"",""comma"",""comma""]",0,"[0.4263000001907358,0.6516000001430484,0.8202000000476914]",24,0,24,0,1
,,,,,,,5e307a080551ae02939239f3,,,,,,5e307a080551ae02939239f3,Kobieta,22,2021-09-06_18h39.07.460,rantool2,2021.1.4,Win32,59.11563017,6135e006383e6ea6c3d06a28,61364409c2bb53a884574fb0,"[""period"",""period""]",0,"[0.16279999995231265,1.8016000001430257]",25,0,25,0,1
,,,,,,,5e307a080551ae02939239f3,,,,,,5e307a080551ae02939239f3,Kobieta,22,2021-09-06_18h39.07.460,rantool2,2021.1.4,Win32,59.11563017,6135e006383e6ea6c3d06a28,61364409c2bb53a884574fb0,"[""period""]",0,[0.4518999998569484],26,0,26,0,1
,,,,,,,5e307a080551ae02939239f3,,,,,,5e307a080551ae02939239f3,Kobieta,22,2021-09-06_18h39.07.460,rantool2,2021.1.4,Win32,59.11563017,6135e006383e6ea6c3d06a28,61364409c2bb53a884574fb0,"[""comma"",""comma""]",0,"[0.06879999995231856,1.067099999904599]",27,0,27,0,1
,,,,,,,5e307a080551ae02939239f3,,,,,,5e307a080551ae02939239f3,Kobieta,22,2021-09-06_18h39.07.460,rantool2,2021.1.4,Win32,59.11563017,6135e006383e6ea6c3d06a28,61364409c2bb53a884574fb0,"[""period"",""period""]",0,"[0.2838000001907517,1.6009000000953506]",28,0,28,0,1
,,,,,,,5e307a080551ae02939239f3,,,,,,5e307a080551ae02939239f3,Kobieta,22,2021-09-06_18h39.07.460,rantool2,2021.1.4,Win32,59.11563017,6135e006383e6ea6c3d06a28,61364409c2bb53a884574fb0,"[""period"",""period""]",0,"[0.45479999995234266,0.7610000000000241]",29,0,29,0,1
,,,,,,,5e307a080551ae02939239f3,,,,,,5e307a080551ae02939239f3,Kobieta,22,2021-09-06_18h39.07.460,rantool2,2021.1.4,Win32,59.11563017,6135e006383e6ea6c3d06a28,61364409c2bb53a884574fb0,"[""comma"",""period""]",0,"[0.5174000000953924,1.878500000000031]",30,0,30,0,1
,,,,,,,5e307a080551ae02939239f3,,,,,,5e307a080551ae02939239f3,Kobieta,22,2021-09-06_18h39.07.460,rantool2,2021.1.4,Win32,59.11563017,6135e006383e6ea6c3d06a28,61364409c2bb53a884574fb0,"[""period"",""comma""]",0,"[0.41740000009531286,0.8318000001906967]",31,0,31,0,1
,,,,,,,5e307a080551ae02939239f3,,,,,,5e307a080551ae02939239f3,Kobieta,22,2021-09-06_18h39.07.460,rantool2,2021.1.4,Win32,59.11563017,6135e006383e6ea6c3d06a28,61364409c2bb53a884574fb0,"[""period"",""period""]",0,"[0.2981999998092988,1.7897999999523222]",32,0,32,0,1
,,,,,,,5e307a080551ae02939239f3,,,,,,5e307a080551ae02939239f3,Kobieta,22,2021-09-06_18h39.07.460,rantool2,2021.1.4,Win32,59.11563017,6135e006383e6ea6c3d06a28,61364409c2bb53a884574fb0,"[""period"",""comma""]",0,"[0.6172000000476601,1.7537999999523208]",33,0,33,0,1
,,,,,,,5e307a080551ae02939239f3,,,,,,5e307a080551ae02939239f3,Kobieta,22,2021-09-06_18h39.07.460,rantool2,2021.1.4,Win32,59.11563017,6135e006383e6ea6c3d06a28,61364409c2bb53a884574fb0,"[""comma"",""comma"",""comma"",""comma"",""period""]",0,"[0.1506999998092624,0.5006999998092851,0.8220999999046512,1.1380999999046253,1.163000000000011]",34,0,34,0,1
,,,,,,,5e307a080551ae02939239f3,,,,,,5e307a080551ae02939239f3,Kobieta,22,2021-09-06_18h39.07.460,rantool2,2021.1.4,Win32,59.11563017,6135e006383e6ea6c3d06a28,61364409c2bb53a884574fb0,"[""period""]",0,[0.2909999999999968],35,0,35,0,1
,,,,,,,5e307a080551ae02939239f3,,,,,,5e307a080551ae02939239f3,Kobieta,22,2021-09-06_18h39.07.460,rantool2,2021.1.4,Win32,59.11563017,6135e006383e6ea6c3d06a28,61364409c2bb53a884574fb0,"[""comma""]",0,[0.41229999995232447],36,0,36,0,1
,,,,,,,5e307a080551ae02939239f3,,,,,,5e307a080551ae02939239f3,Kobieta,22,2021-09-06_18h39.07.460,rantool2,2021.1.4,Win32,59.11563017,6135e006383e6ea6c3d06a28,61364409c2bb53a884574fb0,"[""period""]",0,[0.269899999856932],37,0,37,0,1
,,,,,,,5e307a080551ae02939239f3,,,,,,5e307a080551ae02939239f3,Kobieta,22,2021-09-06_18h39.07.460,rantool2,2021.1.4,Win32,59.11563017,6135e006383e6ea6c3d06a28,61364409c2bb53a884574fb0,"[""comma""]",0,[0.36529999995235585],38,0,38,0,1
,,,,,,,5e307a080551ae02939239f3,,,,,,5e307a080551ae02939239f3,Kobieta,22,2021-09-06_18h39.07.460,rantool2,2021.1.4,Win32,59.11563017,6135e006383e6ea6c3d06a28,61364409c2bb53a884574fb0,"[""comma""]",0,[0.3720999999046626],39,0,39,0,1
,,,,,,,5e307a080551ae02939239f3,,,,,,5e307a080551ae02939239f3,Kobieta,22,2021-09-06_18h39.07.460,rantool2,2021.1.4,Win32,59.11563017,6135e006383e6ea6c3d06a28,61364409c2bb53a884574fb0,"[""comma""]",0,[0.3460999999045953],40,0,40,0,1
,,,,,,,5e307a080551ae02939239f3,,,,,,5e307a080551ae02939239f3,Kobieta,22,2021-09-06_18h39.07.460,rantool2,2021.1.4,Win32,59.11563017,6135e006383e6ea6c3d06a28,61364409c2bb53a884574fb0,"[""period""]",0,[0.39699999999999136],41,0,41,0,1
,,,,,,,5e307a080551ae02939239f3,,,,,,5e307a080551ae02939239f3,Kobieta,22,2021-09-06_18h39.07.460,rantool2,2021.1.4,Win32,59.11563017,6135e006383e6ea6c3d06a28,61364409c2bb53a884574fb0,"[""period""]",0,[0.4387999999523231],42,0,42,0,1
,,,,,,,5e307a080551ae02939239f3,,,,,,5e307a080551ae02939239f3,Kobieta,22,2021-09-06_18h39.07.460,rantool2,2021.1.4,Win32,59.11563017,6135e006383e6ea6c3d06a28,61364409c2bb53a884574fb0,"[""comma""]",0,[0.30079999995228945],43,0,43,0,1
,,,,,,,5e307a080551ae02939239f3,,,,,,5e307a080551ae02939239f3,Kobieta,22,2021-09-06_18h39.07.460,rantool2,2021.1.4,Win32,59.11563017,6135e006383e6ea6c3d06a28,61364409c2bb53a884574fb0,"[""period"",""period""]",0,"[0.0007999999523349288,0.7790999999046448]",44,0,44,0,1
,,,,,,,5e307a080551ae02939239f3,,,,,,5e307a080551ae02939239f3,Kobieta,22,2021-09-06_18h39.07.460,rantool2,2021.1.4,Win32,59.11563017,6135e006383e6ea6c3d06a28,61364409c2bb53a884574fb0,"[""comma""]",0,[0.8672999999523086],45,0,45,0,1
,,,,,,,5e307a080551ae02939239f3,,,,,,5e307a080551ae02939239f3,Kobieta,22,2021-09-06_18h39.07.460,rantool2,2021.1.4,Win32,59.11563017,6135e006383e6ea6c3d06a28,61364409c2bb53a884574fb0,"[""period""]",0,[0.29069999980924877],46,0,46,0,1
,,,,,,,5e307a080551ae02939239f3,,,,,,5e307a080551ae02939239f3,Kobieta,22,2021-09-06_18h39.07.460,rantool2,2021.1.4,Win32,59.11563017,6135e006383e6ea6c3d06a28,61364409c2bb53a884574fb0,"[""period""]",0,[0.08590000009536425],47,0,47,0,1
,,,,,,,5e307a080551ae02939239f3,,,,,,5e307a080551ae02939239f3,Kobieta,22,2021-09-06_18h39.07.460,rantool2,2021.1.4,Win32,59.11563017,6135e006383e6ea6c3d06a28,61364409c2bb53a884574fb0,"[""period"",""period""]",0,"[-0.015799999952321286,1.961200000047711]",48,0,48,0,1
,,,,,,,5e307a080551ae02939239f3,,,,,,5e307a080551ae02939239f3,Kobieta,22,2021-09-06_18h39.07.460,rantool2,2021.1.4,Win32,59.11563017,6135e006383e6ea6c3d06a28,61364409c2bb53a884574fb0,"[""period""]",0,[0.933800000190729],49,0,49,0,1
,,,,,,,5e307a080551ae02939239f3,,,,,,5e307a080551ae02939239f3,Kobieta,22,2021-09-06_18h39.07.460,rantool2,2021.1.4,Win32,59.11563017,6135e006383e6ea6c3d06a28,61364409c2bb53a884574fb0,"[""comma""]",0,[0.476799999952334],50,0,50,0,1
,,,,,,,5e307a080551ae02939239f3,,,,,,5e307a080551ae02939239f3,Kobieta,22,2021-09-06_18h39.07.460,rantool2,2021.1.4,Win32,59.11563017,6135e006383e6ea6c3d06a28,61364409c2bb53a884574fb0,"[""period""]",0,[0.25070000004768644],51,0,51,0,1
,,,,,,,5e307a080551ae02939239f3,,,,,,5e307a080551ae02939239f3,Kobieta,22,2021-09-06_18h39.07.460,rantool2,2021.1.4,Win32,59.11563017,6135e006383e6ea6c3d06a28,61364409c2bb53a884574fb0,"[""comma"",""period""]",0,"[0.2675000000000409,1.3671000001430684]",52,0,52,0,1
,,,,,,,5e307a080551ae02939239f3,,,,,,5e307a080551ae02939239f3,Kobieta,22,2021-09-06_18h39.07.460,rantool2,2021.1.4,Win32,59.11563017,6135e006383e6ea6c3d06a28,61364409c2bb53a884574fb0,"[""period""]",0,[0.6937999999523186],53,0,53,0,1
,,,,,,,5e307a080551ae02939239f3,,,,,,5e307a080551ae02939239f3,Kobieta,22,2021-09-06_18h39.07.460,rantool2,2021.1.4,Win32,59.11563017,6135e006383e6ea6c3d06a28,61364409c2bb53a884574fb0,"[""comma""]",0,[0.5509999999999877],54,0,54,0,1
,,,,,,,5e307a080551ae02939239f3,,,,,,5e307a080551ae02939239f3,Kobieta,22,2021-09-06_18h39.07.460,rantool2,2021.1.4,Win32,59.11563017,6135e006383e6ea6c3d06a28,61364409c2bb53a884574fb0,"[""period""]",0,[0.2756999998092624],55,0,55,0,1
,,,,,,,5e307a080551ae02939239f3,,,,,,5e307a080551ae02939239f3,Kobieta,22,2021-09-06_18h39.07.460,rantool2,2021.1.4,Win32,59.11563017,6135e006383e6ea6c3d06a28,61364409c2bb53a884574fb0,"[""comma"",""period""]",0,"[0.2669999999999959,1.8666999998092706]",56,0,56,0,1
,,,,,,,5e307a080551ae02939239f3,,,,,,5e307a080551ae02939239f3,Kobieta,22,2021-09-06_18h39.07.460,rantool2,2021.1.4,Win32,59.11563017,6135e006383e6ea6c3d06a28,61364409c2bb53a884574fb0,"[""period"",""comma""]",0,"[0.3410000000000082,1.4014999999999986]",57,0,57,0,1
,,,,,,,5e307a080551ae02939239f3,,,,,,5e307a080551ae02939239f3,Kobieta,22,2021-09-06_18h39.07.460,rantool2,2021.1.4,Win32,59.11563017,6135e006383e6ea6c3d06a28,61364409c2bb53a884574fb0,"[""period"",""comma""]",0,"[0.540399999856902,1.6058999998569448]",58,0,58,0,1
,,,,,,,5e307a080551ae02939239f3,,,,,,5e307a080551ae02939239f3,Kobieta,22,2021-09-06_18h39.07.460,rantool2,2021.1.4,Win32,59.11563017,6135e006383e6ea6c3d06a28,61364409c2bb53a884574fb0,"[""period""]",0,[0.5870999999046376],59,0,59,0,1
,,,,,,,5e307a080551ae02939239f3,,,,,,5e307a080551ae02939239f3,Kobieta,22,2021-09-06_18h39.07.460,rantool2,2021.1.4,Win32,59.11563017,6135e006383e6ea6c3d06a28,61364409c2bb53a884574fb0,"[""comma"",""period""]",0,"[0.14290000009532378,1.8810999999046203]",60,0,60,0,1
,,,,,,,5e307a080551ae02939239f3,,,,,,5e307a080551ae02939239f3,Kobieta,22,2021-09-06_18h39.07.460,rantool2,2021.1.4,Win32,59.11563017,6135e006383e6ea6c3d06a28,61364409c2bb53a884574fb0,0,0,,61,0,61,0,1
,,,,,,,5e307a080551ae02939239f3,,,,,,5e307a080551ae02939239f3,Kobieta,22,2021-09-06_18h39.07.460,rantool2,2021.1.4,Win32,59.11563017,6135e006383e6ea6c3d06a28,61364409c2bb53a884574fb0,"[""comma"",""period""]",0,"[0.25329999995233266,1.4332999999523395]",62,0,62,0,1
,,,,,,,5e307a080551ae02939239f3,,,,,,5e307a080551ae02939239f3,Kobieta,22,2021-09-06_18h39.07.460,rantool2,2021.1.4,Win32,59.11563017,6135e006383e6ea6c3d06a28,61364409c2bb53a884574fb0,"[""period""]",0,[0.4017000000476969],63,0,63,0,1
,,,,,,,5e307a080551ae02939239f3,,,,,,5e307a080551ae02939239f3,Kobieta,22,2021-09-06_18h39.07.460,rantool2,2021.1.4,Win32,59.11563017,6135e006383e6ea6c3d06a28,61364409c2bb53a884574fb0,"[""comma"",""comma""]",0,"[0.015199999809226483,0.600699999809251]",64,0,64,0,1
,,,,,,,5e307a080551ae02939239f3,,,,,,5e307a080551ae02939239f3,Kobieta,22,2021-09-06_18h39.07.460,rantool2,2021.1.4,Win32,59.11563017,6135e006383e6ea6c3d06a28,61364409c2bb53a884574fb0,"[""period""]",0,[0.4212999999522822],65,0,65,0,1
,,,,,,,5e307a080551ae02939239f3,,,,,,5e307a080551ae02939239f3,Kobieta,22,2021-09-06_18h39.07.460,rantool2,2021.1.4,Win32,59.11563017,6135e006383e6ea6c3d06a28,61364409c2bb53a884574fb0,"[""comma""]",0,[0.25409999990461074],66,0,66,0,1
,,,,,,,5e307a080551ae02939239f3,,,,,,5e307a080551ae02939239f3,Kobieta,22,2021-09-06_18h39.07.460,rantool2,2021.1.4,Win32,59.11563017,6135e006383e6ea6c3d06a28,61364409c2bb53a884574fb0,"[""period""]",0,[0.2673999998569343],67,0,67,0,1
,,,,,,,5e307a080551ae02939239f3,,,,,,5e307a080551ae02939239f3,Kobieta,22,2021-09-06_18h39.07.460,rantool2,2021.1.4,Win32,59.11563017,6135e006383e6ea6c3d06a28,61364409c2bb53a884574fb0,"[""comma"",""period""]",0,"[0.37829999995233266,1.8512000000476974]",68,0,68,0,1
,,,,,,,5e307a080551ae02939239f3,,,,,,5e307a080551ae02939239f3,Kobieta,22,2021-09-06_18h39.07.460,rantool2,2021.1.4,Win32,59.11563017,6135e006383e6ea6c3d06a28,61364409c2bb53a884574fb0,"[""period""]",0,[0.6172000000477169],69,0,69,0,1
,,,,,,,5e307a080551ae02939239f3,,,,,,5e307a080551ae02939239f3,Kobieta,22,2021-09-06_18h39.07.460,rantool2,2021.1.4,Win32,59.11563017,6135e006383e6ea6c3d06a28,61364409c2bb53a884574fb0,"[""comma""]",0,[0.5504999999999995],70,0,70,0,1
,,,,,,,5e307a080551ae02939239f3,,,,,,5e307a080551ae02939239f3,Kobieta,22,2021-09-06_18h39.07.460,rantool2,2021.1.4,Win32,59.11563017,6135e006383e6ea6c3d06a28,61364409c2bb53a884574fb0,"[""period""]",0,[0.20400000000000773],71,0,71,0,1
,,,,,,,5e307a080551ae02939239f3,,,,,,5e307a080551ae02939239f3,Kobieta,22,2021-09-06_18h39.07.460,rantool2,2021.1.4,Win32,59.11563017,6135e006383e6ea6c3d06a28,61364409c2bb53a884574fb0,"[""period""]",0,[-0.030799999952307644],72,0,72,0,1
,,,,,,,5e307a080551ae02939239f3,,,,,,5e307a080551ae02939239f3,Kobieta,22,2021-09-06_18h39.07.460,rantool2,2021.1.4,Win32,59.11563017,6135e006383e6ea6c3d06a28,61364409c2bb53a884574fb0,"[""period""]",0,[0.24840000009538699],73,0,73,0,1
,,,,,,,5e307a080551ae02939239f3,,,,,,5e307a080551ae02939239f3,Kobieta,22,2021-09-06_18h39.07.460,rantool2,2021.1.4,Win32,59.11563017,6135e006383e6ea6c3d06a28,61364409c2bb53a884574fb0,"[""comma"",""period""]",0,"[0.02469999980922921,1.7639999999999532]",74,0,74,0,1
,,,,,,,5e307a080551ae02939239f3,,,,,,5e307a080551ae02939239f3,Kobieta,22,2021-09-06_18h39.07.460,rantool2,2021.1.4,Win32,59.11563017,6135e006383e6ea6c3d06a28,61364409c2bb53a884574fb0,"[""comma""]",0,[1.1107000000476432],75,0,75,0,1
,,,,,,,5e307a080551ae02939239f3,,,,,,5e307a080551ae02939239f3,Kobieta,22,2021-09-06_18h39.07.460,rantool2,2021.1.4,Win32,59.11563017,6135e006383e6ea6c3d06a28,61364409c2bb53a884574fb0,"[""period""]",0,[0.8369000000953974],76,0,76,0,1
,,,,,,,5e307a080551ae02939239f3,,,,,,5e307a080551ae02939239f3,Kobieta,22,2021-09-06_18h39.07.460,rantool2,2021.1.4,Win32,59.11563017,6135e006383e6ea6c3d06a28,61364409c2bb53a884574fb0,"[""period"",""period""]",0,"[0.04630000019068348,0.6739999999999782]",77,0,77,0,1
,,,,,,,5e307a080551ae02939239f3,,,,,,5e307a080551ae02939239f3,Kobieta,22,2021-09-06_18h39.07.460,rantool2,2021.1.4,Win32,59.11563017,6135e006383e6ea6c3d06a28,61364409c2bb53a884574fb0,"[""comma"",""period""]",0,"[0.31739999985694567,1.7338999998569307]",78,0,78,0,1
,,,,,,,5e307a080551ae02939239f3,,,,,,5e307a080551ae02939239f3,Kobieta,22,2021-09-06_18h39.07.460,rantool2,2021.1.4,Win32,59.11563017,6135e006383e6ea6c3d06a28,61364409c2bb53a884574fb0,"[""period""]",0,[0.33380000019076306],79,0,79,0,1
,,,,,,,5e307a080551ae02939239f3,,,,,,5e307a080551ae02939239f3,Kobieta,22,2021-09-06_18h39.07.460,rantool2,2021.1.4,Win32,59.11563017,6135e006383e6ea6c3d06a28,61364409c2bb53a884574fb0,"[""comma""]",0,[0.21839999985695613],80,0,80,0,1
,,,,,,,5e307a080551ae02939239f3,,,,,,5e307a080551ae02939239f3,Kobieta,22,2021-09-06_18h39.07.460,rantool2,2021.1.4,Win32,59.11563017,6135e006383e6ea6c3d06a28,61364409c2bb53a884574fb0,"[""period""]",0,[0.2172000000476828],81,0,81,0,1
,,,,,,,5e307a080551ae02939239f3,,,,,,5e307a080551ae02939239f3,Kobieta,22,2021-09-06_18h39.07.460,rantool2,2021.1.4,Win32,59.11563017,6135e006383e6ea6c3d06a28,61364409c2bb53a884574fb0,"[""comma""]",0,[0.004200000047660524],82,0,82,0,1
,,,,,,,5e307a080551ae02939239f3,,,,,,5e307a080551ae02939239f3,Kobieta,22,2021-09-06_18h39.07.460,rantool2,2021.1.4,Win32,59.11563017,6135e006383e6ea6c3d06a28,61364409c2bb53a884574fb0,"[""period""]",0,[0.2727999999523263],83,0,83,0,1
,,,,,,,5e307a080551ae02939239f3,,,,,,5e307a080551ae02939239f3,Kobieta,22,2021-09-06_18h39.07.460,rantool2,2021.1.4,Win32,59.11563017,6135e006383e6ea6c3d06a28,61364409c2bb53a884574fb0,"[""comma"",""period""]",0,"[0.030799999952307644,1.8697999999523063]",84,0,84,0,1
,,,,,,,5e307a080551ae02939239f3,,,,,,5e307a080551ae02939239f3,Kobieta,22,2021-09-06_18h39.07.460,rantool2,2021.1.4,Win32,59.11563017,6135e006383e6ea6c3d06a28,61364409c2bb53a884574fb0,"[""period""]",0,[1.8117999999523136],85,0,85,0,1
,,,,,,,5e307a080551ae02939239f3,,,,,,5e307a080551ae02939239f3,Kobieta,22,2021-09-06_18h39.07.460,rantool2,2021.1.4,Win32,59.11563017,6135e006383e6ea6c3d06a28,61364409c2bb53a884574fb0,"[""period""]",0,[1.5852999999522694],86,0,86,0,1
,,,,,,,5e307a080551ae02939239f3,,,,,,5e307a080551ae02939239f3,Kobieta,22,2021-09-06_18h39.07.460,rantool2,2021.1.4,Win32,59.11563017,6135e006383e6ea6c3d06a28,61364409c2bb53a884574fb0,"[""period"",""period""]",0,"[0.9058999998569561,1.2722000000476896]",87,0,87,0,1
,,,,,,,5e307a080551ae02939239f3,,,,,,5e307a080551ae02939239f3,Kobieta,22,2021-09-06_18h39.07.460,rantool2,2021.1.4,Win32,59.11563017,6135e006383e6ea6c3d06a28,61364409c2bb53a884574fb0,"[""period"",""period"",""period"",""period"",""period""]",0,"[0.18510000014305206,0.6721000001430752,0.8854000000953874,1.4212000000476905,1.9775000000000205]",88,0,88,0,1
,,,,,,,5e307a080551ae02939239f3,,,,,,5e307a080551ae02939239f3,Kobieta,22,2021-09-06_18h39.07.460,rantool2,2021.1.4,Win32,59.11563017,6135e006383e6ea6c3d06a28,61364409c2bb53a884574fb0,"[""comma"",""comma""]",0,"[0.7110000000000127,0.9578999998569202]",89,0,89,0,1
,,,,,,,5e307a080551ae02939239f3,,,,,,5e307a080551ae02939239f3,Kobieta,22,2021-09-06_18h39.07.460,rantool2,2021.1.4,Win32,59.11563017,6135e006383e6ea6c3d06a28,61364409c2bb53a884574fb0,"[""comma""]",0,[0.40049999999996544],90,0,90,0,1
,,,,,,,5e307a080551ae02939239f3,,,,,,5e307a080551ae02939239f3,Kobieta,22,2021-09-06_18h39.07.460,rantool2,2021.1.4,Win32,59.11563017,6135e006383e6ea6c3d06a28,61364409c2bb53a884574fb0,"[""period"",""period""]",0,"[0.1271000001430025,1.807700000047646]",91,0,91,0,1
,,,,,,,5e307a080551ae02939239f3,,,,,,5e307a080551ae02939239f3,Kobieta,22,2021-09-06_18h39.07.460,rantool2,2021.1.4,Win32,59.11563017,6135e006383e6ea6c3d06a28,61364409c2bb53a884574fb0,"[""comma""]",0,[1.4615999999046494],92,0,92,0,1
,,,,,,,5e307a080551ae02939239f3,,,,,,5e307a080551ae02939239f3,Kobieta,22,2021-09-06_18h39.07.460,rantool2,2021.1.4,Win32,59.11563017,6135e006383e6ea6c3d06a28,61364409c2bb53a884574fb0,"[""period""]",0,[1.1007000000477092],93,0,93,0,1
,,,,,,,5e307a080551ae02939239f3,,,,,,5e307a080551ae02939239f3,Kobieta,22,2021-09-06_18h39.07.460,rantool2,2021.1.4,Win32,59.11563017,6135e006383e6ea6c3d06a28,61364409c2bb53a884574fb0,"[""period""]",0,[0.5110000000000241],94,0,94,0,1
,,,,,,,5e307a080551ae02939239f3,,,,,,5e307a080551ae02939239f3,Kobieta,22,2021-09-06_18h39.07.460,rantool2,2021.1.4,Win32,59.11563017,6135e006383e6ea6c3d06a28,61364409c2bb53a884574fb0,"[""period"",""period""]",0,"[-0.01680000019075578,0.4548999998569343]",95,0,95,0,1
,,,,,,,5e307a080551ae02939239f3,,,,,,5e307a080551ae02939239f3,Kobieta,22,2021-09-06_18h39.07.460,rantool2,2021.1.4,Win32,59.11563017,6135e006383e6ea6c3d06a28,61364409c2bb53a884574fb0,"[""comma""]",0,[0.573799999952314],96,0,96,0,1
,,,,,,,5e307a080551ae02939239f3,,,,,,5e307a080551ae02939239f3,Kobieta,22,2021-09-06_18h39.07.460,rantool2,2021.1.4,Win32,59.11563017,6135e006383e6ea6c3d06a28,61364409c2bb53a884574fb0,"[""period"",""period""]",0,"[0.10700000000002774,1.8702000000477028]",97,0,97,0,1
,,,,,,,5e307a080551ae02939239f3,,,,,,5e307a080551ae02939239f3,Kobieta,22,2021-09-06_18h39.07.460,rantool2,2021.1.4,Win32,59.11563017,6135e006383e6ea6c3d06a28,61364409c2bb53a884574fb0,"[""period""]",0,[1.0089999999999577],98,0,98,0,1
,,,,,,,5e307a080551ae02939239f3,,,,,,5e307a080551ae02939239f3,Kobieta,22,2021-09-06_18h39.07.460,rantool2,2021.1.4,Win32,59.11563017,6135e006383e6ea6c3d06a28,61364409c2bb53a884574fb0,"[""period""]",0,[1.2707000000476683],99,0,99,0,1
,,,,,,,5e307a080551ae02939239f3,,,,,,5e307a080551ae02939239f3,Kobieta,22,2021-09-06_18h39.07.460,rantool2,2021.1.4,Win32,59.11563017,6135e006383e6ea6c3d06a28,61364409c2bb53a884574fb0,"[""period""]",0,[0.2750000000000341],100,0,100,0,1
,,,,,,,5e307a080551ae02939239f3,,,,,,5e307a080551ae02939239f3,Kobieta,22,2021-09-06_18h39.07.460,rantool2,2021.1.4,Win32,59.11563017,6135e006383e6ea6c3d06a28,61364409c2bb53a884574fb0,"[""comma""]",0,[0.36329999995228945],101,0,101,0,1
,,,,,,,5e307a080551ae02939239f3,,,,,,5e307a080551ae02939239f3,Kobieta,22,2021-09-06_18h39.07.460,rantool2,2021.1.4,Win32,59.11563017,6135e006383e6ea6c3d06a28,61364409c2bb53a884574fb0,"[""period""]",0,[0.12649999999996453],102,0,102,0,1
,,,,,,,5e307a080551ae02939239f3,,,,,,5e307a080551ae02939239f3,Kobieta,22,2021-09-06_18h39.07.460,rantool2,2021.1.4,Win32,59.11563017,6135e006383e6ea6c3d06a28,61364409c2bb53a884574fb0,"[""period""]",0,[0.01770000004768235],103,0,103,0,1
,,,,,,,5e307a080551ae02939239f3,,,,,,5e307a080551ae02939239f3,Kobieta,22,2021-09-06_18h39.07.460,rantool2,2021.1.4,Win32,59.11563017,6135e006383e6ea6c3d06a28,61364409c2bb53a884574fb0,"[""period""]",0,[-0.010900000095375617],104,0,104,0,1
,,,,,,,5e307a080551ae02939239f3,,,,,,5e307a080551ae02939239f3,Kobieta,22,2021-09-06_18h39.07.460,rantool2,2021.1.4,Win32,59.11563017,6135e006383e6ea6c3d06a28,61364409c2bb53a884574fb0,"[""period"",""comma""]",0,"[0.22050000000001546,1.6582999999523622]",105,0,105,0,1
,,,,,,,5e307a080551ae02939239f3,,,,,,5e307a080551ae02939239f3,Kobieta,22,2021-09-06_18h39.07.460,rantool2,2021.1.4,Win32,59.11563017,6135e006383e6ea6c3d06a28,61364409c2bb53a884574fb0,"[""period""]",0,[1.3671999998092588],106,0,106,0,1
,,,,,,,5e307a080551ae02939239f3,,,,,,5e307a080551ae02939239f3,Kobieta,22,2021-09-06_18h39.07.460,rantool2,2021.1.4,Win32,59.11563017,6135e006383e6ea6c3d06a28,61364409c2bb53a884574fb0,"[""comma""]",0,[0.9076999998092106],107,0,107,0,1
,,,,,,,5e307a080551ae02939239f3,,,,,,5e307a080551ae02939239f3,Kobieta,22,2021-09-06_18h39.07.460,rantool2,2021.1.4,Win32,59.11563017,6135e006383e6ea6c3d06a28,61364409c2bb53a884574fb0,"[""period""]",0,[0.5422000000476714],108,0,108,0,1
,,,,,,,5e307a080551ae02939239f3,,,,,,5e307a080551ae02939239f3,Kobieta,22,2021-09-06_18h39.07.460,rantool2,2021.1.4,Win32,59.11563017,6135e006383e6ea6c3d06a28,61364409c2bb53a884574fb0,"[""comma"",""period""]",0,"[0.06870000004767007,1.538799999952289]",109,0,109,0,1
,,,,,,,5e307a080551ae02939239f3,,,,,,5e307a080551ae02939239f3,Kobieta,22,2021-09-06_18h39.07.460,rantool2,2021.1.4,Win32,59.11563017,6135e006383e6ea6c3d06a28,61364409c2bb53a884574fb0,"[""period""]",0,[0.7357000000477001],110,0,110,0,1
,,,,,,,5e307a080551ae02939239f3,,,,,,5e307a080551ae02939239f3,Kobieta,22,2021-09-06_18h39.07.460,rantool2,2021.1.4,Win32,59.11563017,6135e006383e6ea6c3d06a28,61364409c2bb53a884574fb0,"[""period"",""period"",""comma""]",0,"[0.26650000000000773,0.9495999999046489,1.9730999999046617]",111,0,111,0,1
,,,,,,,5e307a080551ae02939239f3,,,,,,5e307a080551ae02939239f3,Kobieta,22,2021-09-06_18h39.07.460,rantool2,2021.1.4,Win32,59.11563017,6135e006383e6ea6c3d06a28,61364409c2bb53a884574fb0,"[""comma""]",0,[0.7772000000476851],112,0,112,0,1
,,,,,,,5e307a080551ae02939239f3,,,,,,5e307a080551ae02939239f3,Kobieta,22,2021-09-06_18h39.07.460,rantool2,2021.1.4,Win32,59.11563017,6135e006383e6ea6c3d06a28,61364409c2bb53a884574fb0,"[""comma""]",0,[0.8340000000000032],113,0,113,0,1
,,,,,,,5e307a080551ae02939239f3,,,,,,5e307a080551ae02939239f3,Kobieta,22,2021-09-06_18h39.07.460,rantool2,2021.1.4,Win32,59.11563017,6135e006383e6ea6c3d06a28,61364409c2bb53a884574fb0,"[""comma""]",0,[0.3924999999999841],114,0,114,0,1
,,,,,,,5e307a080551ae02939239f3,,,,,,5e307a080551ae02939239f3,Kobieta,22,2021-09-06_18h39.07.460,rantool2,2021.1.4,Win32,59.11563017,6135e006383e6ea6c3d06a28,61364409c2bb53a884574fb0,"[""comma"",""period""]",0,"[0.30119999980922785,1.5256999998092624]",115,0,115,0,1
,,,,,,,5e307a080551ae02939239f3,,,,,,5e307a080551ae02939239f3,Kobieta,22,2021-09-06_18h39.07.460,rantool2,2021.1.4,Win32,59.11563017,6135e006383e6ea6c3d06a28,61364409c2bb53a884574fb0,0,0,,116,0,116,0,1
,,,,,,,5e307a080551ae02939239f3,,,,,,5e307a080551ae02939239f3,Kobieta,22,2021-09-06_18h39.07.460,rantool2,2021.1.4,Win32,59.11563017,6135e006383e6ea6c3d06a28,61364409c2bb53a884574fb0,"[""period"",""period""]",0,"[0.8357999999523713,1.9005000000000223]",117,0,117,0,1
,,,,,,,5e307a080551ae02939239f3,,,,,,5e307a080551ae02939239f3,Kobieta,22,2021-09-06_18h39.07.460,rantool2,2021.1.4,Win32,59.11563017,6135e006383e6ea6c3d06a28,61364409c2bb53a884574fb0,"[""comma""]",0,[1.86879999995233],118,0,118,0,1
,,,,,,,5e307a080551ae02939239f3,,,,,,5e307a080551ae02939239f3,Kobieta,22,2021-09-06_18h39.07.460,rantool2,2021.1.4,Win32,59.11563017,6135e006383e6ea6c3d06a28,61364409c2bb53a884574fb0,"[""period""]",0,[1.9504999999999768],119,0,119,0,1
