key_resp_7.keys,key_resp_7.rt,trials_2.thisRepN,trials_2.thisTrialN,trials_2.thisN,trials_2.thisIndex,trials_2.ran,id,series_0,series_1,acss_0,acss_1,comparison,id*,Płeć*,Wiek*,date,expName,psychopyVersion,OS,frameRate,STUDY_ID,SESSION_ID,key_resp_5.keys,key_resp_5.corr,key_resp_5.rt,trials.thisRepN,trials.thisTrialN,trials.thisN,trials.thisIndex,trials.ran
f,1.7429,0,0,0,16,1,5fbf63b9f1a66f21abe16adc,OROOOOO,OROOOOR,20.43051175,21.17347734,series_1,5fbf63b9f1a66f21abe16adc,Mężczyzna,26,2021-09-06_18h54.44.651,rantool2,2021.1.4,Win32,74.99625019,6135e006383e6ea6c3d06a28,613647c08dc9cc2083db3b8a,,,,,,,,
j,0.8865,0,1,1,37,1,5fbf63b9f1a66f21abe16adc,ROORORO,ROORORR,20.42602454,21.57657071,series_1,5fbf63b9f1a66f21abe16adc,Mężczyzna,26,2021-09-06_18h54.44.651,rantool2,2021.1.4,Win32,74.99625019,6135e006383e6ea6c3d06a28,613647c08dc9cc2083db3b8a,,,,,,,,
f,0.9366,0,2,2,32,1,5fbf63b9f1a66f21abe16adc,ROOOOOO,ROOOOOR,19.92253567,21.27974287,series_1,5fbf63b9f1a66f21abe16adc,Mężczyzna,26,2021-09-06_18h54.44.651,rantool2,2021.1.4,Win32,74.99625019,6135e006383e6ea6c3d06a28,613647c08dc9cc2083db3b8a,,,,,,,,
j,1.2252,0,3,3,40,1,5fbf63b9f1a66f21abe16adc,ROROOOO,ROROOOR,20.87963819,21.37121559,series_1,5fbf63b9f1a66f21abe16adc,Mężczyzna,26,2021-09-06_18h54.44.651,rantool2,2021.1.4,Win32,74.99625019,6135e006383e6ea6c3d06a28,613647c08dc9cc2083db3b8a,,,,,,,,
f,1.1166,0,4,4,56,1,5fbf63b9f1a66f21abe16adc,RRROOOO,RRROOOR,21.6194508,22.31681875,series_1,5fbf63b9f1a66f21abe16adc,Mężczyzna,26,2021-09-06_18h54.44.651,rantool2,2021.1.4,Win32,74.99625019,6135e006383e6ea6c3d06a28,613647c08dc9cc2083db3b8a,,,,,,,,
f,1.1313,0,5,5,3,1,5fbf63b9f1a66f21abe16adc,OOOORRO,OOOORRR,20.90986523,21.74922619,series_1,5fbf63b9f1a66f21abe16adc,Mężczyzna,26,2021-09-06_18h54.44.651,rantool2,2021.1.4,Win32,74.99625019,6135e006383e6ea6c3d06a28,613647c08dc9cc2083db3b8a,,,,,,,,
j,0.896,0,6,6,23,1,5fbf63b9f1a66f21abe16adc,ORORRRO,ORORRRR,22.1285618,21.9921709,series_0,5fbf63b9f1a66f21abe16adc,Mężczyzna,26,2021-09-06_18h54.44.651,rantool2,2021.1.4,Win32,74.99625019,6135e006383e6ea6c3d06a28,613647c08dc9cc2083db3b8a,,,,,,,,
f,1.0541,0,7,7,55,1,5fbf63b9f1a66f21abe16adc,RRORRRO,RRORRRR,21.56657303,21.21223021,series_0,5fbf63b9f1a66f21abe16adc,Mężczyzna,26,2021-09-06_18h54.44.651,rantool2,2021.1.4,Win32,74.99625019,6135e006383e6ea6c3d06a28,613647c08dc9cc2083db3b8a,,,,,,,,
j,0.727,0,8,8,22,1,5fbf63b9f1a66f21abe16adc,ORORROO,ORORROR,22.02732763,21.57657071,series_0,5fbf63b9f1a66f21abe16adc,Mężczyzna,26,2021-09-06_18h54.44.651,rantool2,2021.1.4,Win32,74.99625019,6135e006383e6ea6c3d06a28,613647c08dc9cc2083db3b8a,,,,,,,,
j,1.3083,0,9,9,48,1,5fbf63b9f1a66f21abe16adc,RROOOOO,RROOOOR,20.90986523,22.15934078,series_1,5fbf63b9f1a66f21abe16adc,Mężczyzna,26,2021-09-06_18h54.44.651,rantool2,2021.1.4,Win32,74.99625019,6135e006383e6ea6c3d06a28,613647c08dc9cc2083db3b8a,,,,,,,,
f,0.7618,0,10,10,34,1,5fbf63b9f1a66f21abe16adc,ROOOROO,ROOOROR,21.03750787,21.24781509,series_1,5fbf63b9f1a66f21abe16adc,Mężczyzna,26,2021-09-06_18h54.44.651,rantool2,2021.1.4,Win32,74.99625019,6135e006383e6ea6c3d06a28,613647c08dc9cc2083db3b8a,,,,,,,,
j,0.8413,0,11,11,25,1,5fbf63b9f1a66f21abe16adc,ORROORO,ORROORR,21.79500819,22.61624387,series_1,5fbf63b9f1a66f21abe16adc,Mężczyzna,26,2021-09-06_18h54.44.651,rantool2,2021.1.4,Win32,74.99625019,6135e006383e6ea6c3d06a28,613647c08dc9cc2083db3b8a,,,,,,,,
j,0.8521,0,12,12,33,1,5fbf63b9f1a66f21abe16adc,ROOOORO,ROOOORR,20.83779602,22.03072203,series_1,5fbf63b9f1a66f21abe16adc,Mężczyzna,26,2021-09-06_18h54.44.651,rantool2,2021.1.4,Win32,74.99625019,6135e006383e6ea6c3d06a28,613647c08dc9cc2083db3b8a,,,,,,,,
j,0.9762,0,13,13,47,1,5fbf63b9f1a66f21abe16adc,RORRRRO,RORRRRR,21.81333602,21.02936224,series_0,5fbf63b9f1a66f21abe16adc,Mężczyzna,26,2021-09-06_18h54.44.651,rantool2,2021.1.4,Win32,74.99625019,6135e006383e6ea6c3d06a28,613647c08dc9cc2083db3b8a,,,,,,,,
f,0.8879,0,14,14,4,1,5fbf63b9f1a66f21abe16adc,OOOROOO,OOOROOR,19.91402015,21.21223021,series_1,5fbf63b9f1a66f21abe16adc,Mężczyzna,26,2021-09-06_18h54.44.651,rantool2,2021.1.4,Win32,74.99625019,6135e006383e6ea6c3d06a28,613647c08dc9cc2083db3b8a,,,,,,,,
j,0.8641,0,15,15,52,1,5fbf63b9f1a66f21abe16adc,RROROOO,RROROOR,22.18365867,22.11097995,series_0,5fbf63b9f1a66f21abe16adc,Mężczyzna,26,2021-09-06_18h54.44.651,rantool2,2021.1.4,Win32,74.99625019,6135e006383e6ea6c3d06a28,613647c08dc9cc2083db3b8a,,,,,,,,
f,1.0418,0,16,16,41,1,5fbf63b9f1a66f21abe16adc,ROROORO,ROROORR,20.42602454,21.71443381,series_1,5fbf63b9f1a66f21abe16adc,Mężczyzna,26,2021-09-06_18h54.44.651,rantool2,2021.1.4,Win32,74.99625019,6135e006383e6ea6c3d06a28,613647c08dc9cc2083db3b8a,,,,,,,,
f,0.2565,0,17,17,49,1,5fbf63b9f1a66f21abe16adc,RROOORO,RROOORR,21.76276513,22.53364006,series_1,5fbf63b9f1a66f21abe16adc,Mężczyzna,26,2021-09-06_18h54.44.651,rantool2,2021.1.4,Win32,74.99625019,6135e006383e6ea6c3d06a28,613647c08dc9cc2083db3b8a,,,,,,,,
j,1.9127,0,18,18,1,1,5fbf63b9f1a66f21abe16adc,OOOOORO,OOOOORR,19.92253567,20.74050628,series_1,5fbf63b9f1a66f21abe16adc,Mężczyzna,26,2021-09-06_18h54.44.651,rantool2,2021.1.4,Win32,74.99625019,6135e006383e6ea6c3d06a28,613647c08dc9cc2083db3b8a,,,,,,,,
j,1.4248,0,19,19,10,1,5fbf63b9f1a66f21abe16adc,OOROROO,OOROROR,21.31236711,21.07490964,series_0,5fbf63b9f1a66f21abe16adc,Mężczyzna,26,2021-09-06_18h54.44.651,rantool2,2021.1.4,Win32,74.99625019,6135e006383e6ea6c3d06a28,613647c08dc9cc2083db3b8a,,,,,,,,
f,1.0301,0,20,20,36,1,5fbf63b9f1a66f21abe16adc,ROOROOO,ROOROOR,21.07991943,20.9984461,series_0,5fbf63b9f1a66f21abe16adc,Mężczyzna,26,2021-09-06_18h54.44.651,rantool2,2021.1.4,Win32,74.99625019,6135e006383e6ea6c3d06a28,613647c08dc9cc2083db3b8a,,,,,,,,
f,1.1415,0,21,21,61,1,5fbf63b9f1a66f21abe16adc,RRRRORO,RRRRORR,21.81333602,21.17347734,series_0,5fbf63b9f1a66f21abe16adc,Mężczyzna,26,2021-09-06_18h54.44.651,rantool2,2021.1.4,Win32,74.99625019,6135e006383e6ea6c3d06a28,613647c08dc9cc2083db3b8a,,,,,,,,
f,1.0011,0,22,22,20,1,5fbf63b9f1a66f21abe16adc,OROROOO,OROROOR,21.31236711,21.90565814,series_1,5fbf63b9f1a66f21abe16adc,Mężczyzna,26,2021-09-06_18h54.44.651,rantool2,2021.1.4,Win32,74.99625019,6135e006383e6ea6c3d06a28,613647c08dc9cc2083db3b8a,,,,,,,,
j,0.3281,0,23,23,30,1,5fbf63b9f1a66f21abe16adc,ORRRROO,ORRRROR,22.46748491,22.03072203,series_0,5fbf63b9f1a66f21abe16adc,Mężczyzna,26,2021-09-06_18h54.44.651,rantool2,2021.1.4,Win32,74.99625019,6135e006383e6ea6c3d06a28,613647c08dc9cc2083db3b8a,,,,,,,,
j,0.8753,0,24,24,18,1,5fbf63b9f1a66f21abe16adc,OROOROO,OROOROR,20.84860893,21.22513037,series_1,5fbf63b9f1a66f21abe16adc,Mężczyzna,26,2021-09-06_18h54.44.651,rantool2,2021.1.4,Win32,74.99625019,6135e006383e6ea6c3d06a28,613647c08dc9cc2083db3b8a,,,,,,,,
f,0.6857,0,25,25,43,1,5fbf63b9f1a66f21abe16adc,RORORRO,RORORRR,20.71309134,21.07490964,series_1,5fbf63b9f1a66f21abe16adc,Mężczyzna,26,2021-09-06_18h54.44.651,rantool2,2021.1.4,Win32,74.99625019,6135e006383e6ea6c3d06a28,613647c08dc9cc2083db3b8a,,,,,,,,
f,0.9188,0,26,26,21,1,5fbf63b9f1a66f21abe16adc,ORORORO,ORORORR,20.39515459,22.06781359,series_1,5fbf63b9f1a66f21abe16adc,Mężczyzna,26,2021-09-06_18h54.44.651,rantool2,2021.1.4,Win32,74.99625019,6135e006383e6ea6c3d06a28,613647c08dc9cc2083db3b8a,,,,,,,,
j,0.8539,0,27,27,38,1,5fbf63b9f1a66f21abe16adc,ROORROO,ROORROR,21.79500819,21.36812781,series_0,5fbf63b9f1a66f21abe16adc,Mężczyzna,26,2021-09-06_18h54.44.651,rantool2,2021.1.4,Win32,74.99625019,6135e006383e6ea6c3d06a28,613647c08dc9cc2083db3b8a,,,,,,,,
f,0.7333,0,28,28,44,1,5fbf63b9f1a66f21abe16adc,RORROOO,RORROOR,21.66733484,22.02566557,series_1,5fbf63b9f1a66f21abe16adc,Mężczyzna,26,2021-09-06_18h54.44.651,rantool2,2021.1.4,Win32,74.99625019,6135e006383e6ea6c3d06a28,613647c08dc9cc2083db3b8a,,,,,,,,
f,0.2903,0,29,29,58,1,5fbf63b9f1a66f21abe16adc,RRROROO,RRROROR,22.1285618,21.37121559,series_0,5fbf63b9f1a66f21abe16adc,Mężczyzna,26,2021-09-06_18h54.44.651,rantool2,2021.1.4,Win32,74.99625019,6135e006383e6ea6c3d06a28,613647c08dc9cc2083db3b8a,,,,,,,,
j,0.6976,0,30,30,35,1,5fbf63b9f1a66f21abe16adc,ROOORRO,ROOORRR,21.76276513,22.16977179,series_1,5fbf63b9f1a66f21abe16adc,Mężczyzna,26,2021-09-06_18h54.44.651,rantool2,2021.1.4,Win32,74.99625019,6135e006383e6ea6c3d06a28,613647c08dc9cc2083db3b8a,,,,,,,,
j,0.2942,0,31,31,27,1,5fbf63b9f1a66f21abe16adc,ORRORRO,ORRORRR,21.55250791,22.2428857,series_1,5fbf63b9f1a66f21abe16adc,Mężczyzna,26,2021-09-06_18h54.44.651,rantool2,2021.1.4,Win32,74.99625019,6135e006383e6ea6c3d06a28,613647c08dc9cc2083db3b8a,,,,,,,,
j,0.2818,0,32,32,59,1,5fbf63b9f1a66f21abe16adc,RRRORRO,RRRORRR,21.56657303,20.89823192,series_0,5fbf63b9f1a66f21abe16adc,Mężczyzna,26,2021-09-06_18h54.44.651,rantool2,2021.1.4,Win32,74.99625019,6135e006383e6ea6c3d06a28,613647c08dc9cc2083db3b8a,,,,,,,,
j,0.9771,0,33,33,8,1,5fbf63b9f1a66f21abe16adc,OOROOOO,OOROOOR,19.91402015,20.89823192,series_1,5fbf63b9f1a66f21abe16adc,Mężczyzna,26,2021-09-06_18h54.44.651,rantool2,2021.1.4,Win32,74.99625019,6135e006383e6ea6c3d06a28,613647c08dc9cc2083db3b8a,,,,,,,,
j,0.8212,0,34,34,11,1,5fbf63b9f1a66f21abe16adc,OORORRO,OORORRR,22.18365867,22.6797523,series_1,5fbf63b9f1a66f21abe16adc,Mężczyzna,26,2021-09-06_18h54.44.651,rantool2,2021.1.4,Win32,74.99625019,6135e006383e6ea6c3d06a28,613647c08dc9cc2083db3b8a,,,,,,,,
j,0.7178,0,35,35,24,1,5fbf63b9f1a66f21abe16adc,ORROOOO,ORROOOR,21.12383932,22.07102821,series_1,5fbf63b9f1a66f21abe16adc,Mężczyzna,26,2021-09-06_18h54.44.651,rantool2,2021.1.4,Win32,74.99625019,6135e006383e6ea6c3d06a28,613647c08dc9cc2083db3b8a,,,,,,,,
f,0.6873,0,36,36,60,1,5fbf63b9f1a66f21abe16adc,RRRROOO,RRRROOR,22.10108823,22.15934078,series_1,5fbf63b9f1a66f21abe16adc,Mężczyzna,26,2021-09-06_18h54.44.651,rantool2,2021.1.4,Win32,74.99625019,6135e006383e6ea6c3d06a28,613647c08dc9cc2083db3b8a,,,,,,,,
j,0.7014,0,37,37,19,1,5fbf63b9f1a66f21abe16adc,OROORRO,OROORRR,21.73568164,22.11181017,series_1,5fbf63b9f1a66f21abe16adc,Mężczyzna,26,2021-09-06_18h54.44.651,rantool2,2021.1.4,Win32,74.99625019,6135e006383e6ea6c3d06a28,613647c08dc9cc2083db3b8a,,,,,,,,
f,0.601,0,38,38,6,1,5fbf63b9f1a66f21abe16adc,OOORROO,OOORROR,21.12383932,21.38562617,series_1,5fbf63b9f1a66f21abe16adc,Mężczyzna,26,2021-09-06_18h54.44.651,rantool2,2021.1.4,Win32,74.99625019,6135e006383e6ea6c3d06a28,613647c08dc9cc2083db3b8a,,,,,,,,
f,0.6647,0,39,39,50,1,5fbf63b9f1a66f21abe16adc,RROOROO,RROOROR,21.73568164,22.02566557,series_1,5fbf63b9f1a66f21abe16adc,Mężczyzna,26,2021-09-06_18h54.44.651,rantool2,2021.1.4,Win32,74.99625019,6135e006383e6ea6c3d06a28,613647c08dc9cc2083db3b8a,,,,,,,,
j,0.6041,0,40,40,12,1,5fbf63b9f1a66f21abe16adc,OORROOO,OORROOR,21.30250474,22.02786418,series_1,5fbf63b9f1a66f21abe16adc,Mężczyzna,26,2021-09-06_18h54.44.651,rantool2,2021.1.4,Win32,74.99625019,6135e006383e6ea6c3d06a28,613647c08dc9cc2083db3b8a,,,,,,,,
f,0.7611,0,41,41,63,1,5fbf63b9f1a66f21abe16adc,RRRRRRO,RRRRRRR,21.35278725,19.62521613,series_0,5fbf63b9f1a66f21abe16adc,Mężczyzna,26,2021-09-06_18h54.44.651,rantool2,2021.1.4,Win32,74.99625019,6135e006383e6ea6c3d06a28,613647c08dc9cc2083db3b8a,,,,,,,,
j,0.7042,0,42,42,54,1,5fbf63b9f1a66f21abe16adc,RRORROO,RRORROR,21.55250791,20.9984461,series_0,5fbf63b9f1a66f21abe16adc,Mężczyzna,26,2021-09-06_18h54.44.651,rantool2,2021.1.4,Win32,74.99625019,6135e006383e6ea6c3d06a28,613647c08dc9cc2083db3b8a,,,,,,,,
f,0.7041,0,43,43,51,1,5fbf63b9f1a66f21abe16adc,RROORRO,RROORRR,21.89852628,22.02786418,series_1,5fbf63b9f1a66f21abe16adc,Mężczyzna,26,2021-09-06_18h54.44.651,rantool2,2021.1.4,Win32,74.99625019,6135e006383e6ea6c3d06a28,613647c08dc9cc2083db3b8a,,,,,,,,
f,1.9928,0,44,44,57,1,5fbf63b9f1a66f21abe16adc,RRROORO,RRROORR,21.82425538,22.07102821,series_1,5fbf63b9f1a66f21abe16adc,Mężczyzna,26,2021-09-06_18h54.44.651,rantool2,2021.1.4,Win32,74.99625019,6135e006383e6ea6c3d06a28,613647c08dc9cc2083db3b8a,,,,,,,,
f,0.3112,0,45,45,29,1,5fbf63b9f1a66f21abe16adc,ORRRORO,ORRRORR,22.00300695,22.12173012,series_1,5fbf63b9f1a66f21abe16adc,Mężczyzna,26,2021-09-06_18h54.44.651,rantool2,2021.1.4,Win32,74.99625019,6135e006383e6ea6c3d06a28,613647c08dc9cc2083db3b8a,,,,,,,,
f,0.9904,0,46,46,62,1,5fbf63b9f1a66f21abe16adc,RRRRROO,RRRRROR,22.16413392,21.27974287,series_0,5fbf63b9f1a66f21abe16adc,Mężczyzna,26,2021-09-06_18h54.44.651,rantool2,2021.1.4,Win32,74.99625019,6135e006383e6ea6c3d06a28,613647c08dc9cc2083db3b8a,,,,,,,,
j,0.4277,0,47,47,31,1,5fbf63b9f1a66f21abe16adc,ORRRRRO,ORRRRRR,22.16413392,20.74050628,series_0,5fbf63b9f1a66f21abe16adc,Mężczyzna,26,2021-09-06_18h54.44.651,rantool2,2021.1.4,Win32,74.99625019,6135e006383e6ea6c3d06a28,613647c08dc9cc2083db3b8a,,,,,,,,
j,0.7332,0,48,48,2,1,5fbf63b9f1a66f21abe16adc,OOOOROO,OOOOROR,20.43051175,21.02936224,series_1,5fbf63b9f1a66f21abe16adc,Mężczyzna,26,2021-09-06_18h54.44.651,rantool2,2021.1.4,Win32,74.99625019,6135e006383e6ea6c3d06a28,613647c08dc9cc2083db3b8a,,,,,,,,
j,0.6344,0,49,49,42,1,5fbf63b9f1a66f21abe16adc,ROROROO,ROROROR,20.39515459,19.8361834,series_0,5fbf63b9f1a66f21abe16adc,Mężczyzna,26,2021-09-06_18h54.44.651,rantool2,2021.1.4,Win32,74.99625019,6135e006383e6ea6c3d06a28,613647c08dc9cc2083db3b8a,,,,,,,,
j,0.5147,0,50,50,13,1,5fbf63b9f1a66f21abe16adc,OORRORO,OORRORR,21.66733484,22.11181017,series_1,5fbf63b9f1a66f21abe16adc,Mężczyzna,26,2021-09-06_18h54.44.651,rantool2,2021.1.4,Win32,74.99625019,6135e006383e6ea6c3d06a28,613647c08dc9cc2083db3b8a,,,,,,,,
j,1.1631,0,51,51,0,1,5fbf63b9f1a66f21abe16adc,OOOOOOO,OOOOOOR,18.52739004,19.62521613,series_1,5fbf63b9f1a66f21abe16adc,Mężczyzna,26,2021-09-06_18h54.44.651,rantool2,2021.1.4,Win32,74.99625019,6135e006383e6ea6c3d06a28,613647c08dc9cc2083db3b8a,,,,,,,,
j,1.2466,0,52,52,45,1,5fbf63b9f1a66f21abe16adc,RORRORO,RORRORR,20.78182524,21.22513037,series_1,5fbf63b9f1a66f21abe16adc,Mężczyzna,26,2021-09-06_18h54.44.651,rantool2,2021.1.4,Win32,74.99625019,6135e006383e6ea6c3d06a28,613647c08dc9cc2083db3b8a,,,,,,,,
f,0.6901,0,53,53,5,1,5fbf63b9f1a66f21abe16adc,OOORORO,OOORORR,20.87963819,21.9921709,series_1,5fbf63b9f1a66f21abe16adc,Mężczyzna,26,2021-09-06_18h54.44.651,rantool2,2021.1.4,Win32,74.99625019,6135e006383e6ea6c3d06a28,613647c08dc9cc2083db3b8a,,,,,,,,
f,1.0071,0,54,54,15,1,5fbf63b9f1a66f21abe16adc,OORRRRO,OORRRRR,22.10108823,21.74922619,series_0,5fbf63b9f1a66f21abe16adc,Mężczyzna,26,2021-09-06_18h54.44.651,rantool2,2021.1.4,Win32,74.99625019,6135e006383e6ea6c3d06a28,613647c08dc9cc2083db3b8a,,,,,,,,
j,1.2352,0,55,55,53,1,5fbf63b9f1a66f21abe16adc,RRORORO,RRORORR,20.71309134,21.90565814,series_1,5fbf63b9f1a66f21abe16adc,Mężczyzna,26,2021-09-06_18h54.44.651,rantool2,2021.1.4,Win32,74.99625019,6135e006383e6ea6c3d06a28,613647c08dc9cc2083db3b8a,,,,,,,,
j,1.0541,0,56,56,17,1,5fbf63b9f1a66f21abe16adc,OROOORO,OROOORR,21.03750787,22.12173012,series_1,5fbf63b9f1a66f21abe16adc,Mężczyzna,26,2021-09-06_18h54.44.651,rantool2,2021.1.4,Win32,74.99625019,6135e006383e6ea6c3d06a28,613647c08dc9cc2083db3b8a,,,,,,,,
j,1.0415,0,57,57,14,1,5fbf63b9f1a66f21abe16adc,OORRROO,OORRROR,22.24142883,22.16977179,series_0,5fbf63b9f1a66f21abe16adc,Mężczyzna,26,2021-09-06_18h54.44.651,rantool2,2021.1.4,Win32,74.99625019,6135e006383e6ea6c3d06a28,613647c08dc9cc2083db3b8a,,,,,,,,
f,0.2678,0,58,58,7,1,5fbf63b9f1a66f21abe16adc,OOORRRO,OOORRRR,21.6194508,21.899017,series_1,5fbf63b9f1a66f21abe16adc,Mężczyzna,26,2021-09-06_18h54.44.651,rantool2,2021.1.4,Win32,74.99625019,6135e006383e6ea6c3d06a28,613647c08dc9cc2083db3b8a,,,,,,,,
j,0.8229,0,59,59,39,1,5fbf63b9f1a66f21abe16adc,ROORRRO,ROORRRR,21.82425538,21.38562617,series_0,5fbf63b9f1a66f21abe16adc,Mężczyzna,26,2021-09-06_18h54.44.651,rantool2,2021.1.4,Win32,74.99625019,6135e006383e6ea6c3d06a28,613647c08dc9cc2083db3b8a,,,,,,,,
f,0.7597,0,60,60,9,1,5fbf63b9f1a66f21abe16adc,OOROORO,OOROORR,21.07991943,22.2428857,series_1,5fbf63b9f1a66f21abe16adc,Mężczyzna,26,2021-09-06_18h54.44.651,rantool2,2021.1.4,Win32,74.99625019,6135e006383e6ea6c3d06a28,613647c08dc9cc2083db3b8a,,,,,,,,
f,0.8311,0,61,61,46,1,5fbf63b9f1a66f21abe16adc,RORRROO,RORRROR,22.00300695,21.24781509,series_0,5fbf63b9f1a66f21abe16adc,Mężczyzna,26,2021-09-06_18h54.44.651,rantool2,2021.1.4,Win32,74.99625019,6135e006383e6ea6c3d06a28,613647c08dc9cc2083db3b8a,,,,,,,,
j,0.4224,0,62,62,28,1,5fbf63b9f1a66f21abe16adc,ORRROOO,ORRROOR,22.24142883,22.53364006,series_1,5fbf63b9f1a66f21abe16adc,Mężczyzna,26,2021-09-06_18h54.44.651,rantool2,2021.1.4,Win32,74.99625019,6135e006383e6ea6c3d06a28,613647c08dc9cc2083db3b8a,,,,,,,,
j,0.6742,0,63,63,26,1,5fbf63b9f1a66f21abe16adc,ORROROO,ORROROR,22.02732763,21.71443381,series_0,5fbf63b9f1a66f21abe16adc,Mężczyzna,26,2021-09-06_18h54.44.651,rantool2,2021.1.4,Win32,74.99625019,6135e006383e6ea6c3d06a28,613647c08dc9cc2083db3b8a,,,,,,,,
,,,,,,,5fbf63b9f1a66f21abe16adc,,,,,,5fbf63b9f1a66f21abe16adc,Mężczyzna,26,2021-09-06_18h54.44.651,rantool2,2021.1.4,Win32,74.99625019,6135e006383e6ea6c3d06a28,613647c08dc9cc2083db3b8a,0,,,0,0,0,0,1
,,,,,,,5fbf63b9f1a66f21abe16adc,,,,,,5fbf63b9f1a66f21abe16adc,Mężczyzna,26,2021-09-06_18h54.44.651,rantool2,2021.1.4,Win32,74.99625019,6135e006383e6ea6c3d06a28,613647c08dc9cc2083db3b8a,"[""comma"",""period""]",0,"[0.009599999999608144,1.5965999999996257]",1,0,1,0,1
,,,,,,,5fbf63b9f1a66f21abe16adc,,,,,,5fbf63b9f1a66f21abe16adc,Mężczyzna,26,2021-09-06_18h54.44.651,rantool2,2021.1.4,Win32,74.99625019,6135e006383e6ea6c3d06a28,613647c08dc9cc2083db3b8a,0,0,,2,0,2,0,1
,,,,,,,5fbf63b9f1a66f21abe16adc,,,,,,5fbf63b9f1a66f21abe16adc,Mężczyzna,26,2021-09-06_18h54.44.651,rantool2,2021.1.4,Win32,74.99625019,6135e006383e6ea6c3d06a28,613647c08dc9cc2083db3b8a,"[""comma""]",0,[0.08379999999982601],3,0,3,0,1
,,,,,,,5fbf63b9f1a66f21abe16adc,,,,,,5fbf63b9f1a66f21abe16adc,Mężczyzna,26,2021-09-06_18h54.44.651,rantool2,2021.1.4,Win32,74.99625019,6135e006383e6ea6c3d06a28,613647c08dc9cc2083db3b8a,"[""comma""]",0,[0.36779999999981783],4,0,4,0,1
,,,,,,,5fbf63b9f1a66f21abe16adc,,,,,,5fbf63b9f1a66f21abe16adc,Mężczyzna,26,2021-09-06_18h54.44.651,rantool2,2021.1.4,Win32,74.99625019,6135e006383e6ea6c3d06a28,613647c08dc9cc2083db3b8a,"[""period""]",0,[0.21840000000037207],5,0,5,0,1
,,,,,,,5fbf63b9f1a66f21abe16adc,,,,,,5fbf63b9f1a66f21abe16adc,Mężczyzna,26,2021-09-06_18h54.44.651,rantool2,2021.1.4,Win32,74.99625019,6135e006383e6ea6c3d06a28,613647c08dc9cc2083db3b8a,"[""comma""]",0,[0.4410000000000025],6,0,6,0,1
,,,,,,,5fbf63b9f1a66f21abe16adc,,,,,,5fbf63b9f1a66f21abe16adc,Mężczyzna,26,2021-09-06_18h54.44.651,rantool2,2021.1.4,Win32,74.99625019,6135e006383e6ea6c3d06a28,613647c08dc9cc2083db3b8a,"[""period"",""comma""]",0,"[0.20209999999963202,1.7612000000001728]",7,0,7,0,1
,,,,,,,5fbf63b9f1a66f21abe16adc,,,,,,5fbf63b9f1a66f21abe16adc,Mężczyzna,26,2021-09-06_18h54.44.651,rantool2,2021.1.4,Win32,74.99625019,6135e006383e6ea6c3d06a28,613647c08dc9cc2083db3b8a,"[""comma""]",0,[1.3702999999998156],8,0,8,0,1
,,,,,,,5fbf63b9f1a66f21abe16adc,,,,,,5fbf63b9f1a66f21abe16adc,Mężczyzna,26,2021-09-06_18h54.44.651,rantool2,2021.1.4,Win32,74.99625019,6135e006383e6ea6c3d06a28,613647c08dc9cc2083db3b8a,"[""comma"",""period""]",0,"[0.721100000000547,1.8640000000000043]",9,0,9,0,1
,,,,,,,5fbf63b9f1a66f21abe16adc,,,,,,5fbf63b9f1a66f21abe16adc,Mężczyzna,26,2021-09-06_18h54.44.651,rantool2,2021.1.4,Win32,74.99625019,6135e006383e6ea6c3d06a28,613647c08dc9cc2083db3b8a,"[""period""]",0,[0.36920000000017694],10,0,10,0,1
,,,,,,,5fbf63b9f1a66f21abe16adc,,,,,,5fbf63b9f1a66f21abe16adc,Mężczyzna,26,2021-09-06_18h54.44.651,rantool2,2021.1.4,Win32,74.99625019,6135e006383e6ea6c3d06a28,613647c08dc9cc2083db3b8a,"[""comma""]",0,[0.2265000000000157],11,0,11,0,1
,,,,,,,5fbf63b9f1a66f21abe16adc,,,,,,5fbf63b9f1a66f21abe16adc,Mężczyzna,26,2021-09-06_18h54.44.651,rantool2,2021.1.4,Win32,74.99625019,6135e006383e6ea6c3d06a28,613647c08dc9cc2083db3b8a,"[""period""]",0,[0.19709999999963657],12,0,12,0,1
,,,,,,,5fbf63b9f1a66f21abe16adc,,,,,,5fbf63b9f1a66f21abe16adc,Mężczyzna,26,2021-09-06_18h54.44.651,rantool2,2021.1.4,Win32,74.99625019,6135e006383e6ea6c3d06a28,613647c08dc9cc2083db3b8a,"[""comma""]",0,[0.2112000000001899],13,0,13,0,1
,,,,,,,5fbf63b9f1a66f21abe16adc,,,,,,5fbf63b9f1a66f21abe16adc,Mężczyzna,26,2021-09-06_18h54.44.651,rantool2,2021.1.4,Win32,74.99625019,6135e006383e6ea6c3d06a28,613647c08dc9cc2083db3b8a,"[""period""]",0,[0.14779999999981897],14,0,14,0,1
,,,,,,,5fbf63b9f1a66f21abe16adc,,,,,,5fbf63b9f1a66f21abe16adc,Mężczyzna,26,2021-09-06_18h54.44.651,rantool2,2021.1.4,Win32,74.99625019,6135e006383e6ea6c3d06a28,613647c08dc9cc2083db3b8a,"[""comma""]",0,[0.22370000000017853],15,0,15,0,1
,,,,,,,5fbf63b9f1a66f21abe16adc,,,,,,5fbf63b9f1a66f21abe16adc,Mężczyzna,26,2021-09-06_18h54.44.651,rantool2,2021.1.4,Win32,74.99625019,6135e006383e6ea6c3d06a28,613647c08dc9cc2083db3b8a,"[""comma""]",0,[0.32340000000039026],16,0,16,0,1
,,,,,,,5fbf63b9f1a66f21abe16adc,,,,,,5fbf63b9f1a66f21abe16adc,Mężczyzna,26,2021-09-06_18h54.44.651,rantool2,2021.1.4,Win32,74.99625019,6135e006383e6ea6c3d06a28,613647c08dc9cc2083db3b8a,"[""period""]",0,[0.33330000000074733],17,0,17,0,1
,,,,,,,5fbf63b9f1a66f21abe16adc,,,,,,5fbf63b9f1a66f21abe16adc,Mężczyzna,26,2021-09-06_18h54.44.651,rantool2,2021.1.4,Win32,74.99625019,6135e006383e6ea6c3d06a28,613647c08dc9cc2083db3b8a,"[""comma""]",0,[0.2400000000000091],18,0,18,0,1
,,,,,,,5fbf63b9f1a66f21abe16adc,,,,,,5fbf63b9f1a66f21abe16adc,Mężczyzna,26,2021-09-06_18h54.44.651,rantool2,2021.1.4,Win32,74.99625019,6135e006383e6ea6c3d06a28,613647c08dc9cc2083db3b8a,"[""period""]",0,[0.23459999999963088],19,0,19,0,1
,,,,,,,5fbf63b9f1a66f21abe16adc,,,,,,5fbf63b9f1a66f21abe16adc,Mężczyzna,26,2021-09-06_18h54.44.651,rantool2,2021.1.4,Win32,74.99625019,6135e006383e6ea6c3d06a28,613647c08dc9cc2083db3b8a,"[""comma""]",0,[0.24879999999981806],20,0,20,0,1
,,,,,,,5fbf63b9f1a66f21abe16adc,,,,,,5fbf63b9f1a66f21abe16adc,Mężczyzna,26,2021-09-06_18h54.44.651,rantool2,2021.1.4,Win32,74.99625019,6135e006383e6ea6c3d06a28,613647c08dc9cc2083db3b8a,"[""comma""]",0,[0.2532000000001915],21,0,21,0,1
,,,,,,,5fbf63b9f1a66f21abe16adc,,,,,,5fbf63b9f1a66f21abe16adc,Mężczyzna,26,2021-09-06_18h54.44.651,rantool2,2021.1.4,Win32,74.99625019,6135e006383e6ea6c3d06a28,613647c08dc9cc2083db3b8a,"[""comma""]",0,[0.33390000000036935],22,0,22,0,1
,,,,,,,5fbf63b9f1a66f21abe16adc,,,,,,5fbf63b9f1a66f21abe16adc,Mężczyzna,26,2021-09-06_18h54.44.651,rantool2,2021.1.4,Win32,74.99625019,6135e006383e6ea6c3d06a28,613647c08dc9cc2083db3b8a,"[""comma"",""period""]",0,"[0.45490000000035025,0.6859000000003448]",23,0,23,0,1
,,,,,,,5fbf63b9f1a66f21abe16adc,,,,,,5fbf63b9f1a66f21abe16adc,Mężczyzna,26,2021-09-06_18h54.44.651,rantool2,2021.1.4,Win32,74.99625019,6135e006383e6ea6c3d06a28,613647c08dc9cc2083db3b8a,"[""period""]",0,[0.750299999999811],24,0,24,0,1
,,,,,,,5fbf63b9f1a66f21abe16adc,,,,,,5fbf63b9f1a66f21abe16adc,Mężczyzna,26,2021-09-06_18h54.44.651,rantool2,2021.1.4,Win32,74.99625019,6135e006383e6ea6c3d06a28,613647c08dc9cc2083db3b8a,"[""period"",""comma""]",0,"[0.41550000000000864,0.42659999999963816]",25,0,25,0,1
,,,,,,,5fbf63b9f1a66f21abe16adc,,,,,,5fbf63b9f1a66f21abe16adc,Mężczyzna,26,2021-09-06_18h54.44.651,rantool2,2021.1.4,Win32,74.99625019,6135e006383e6ea6c3d06a28,613647c08dc9cc2083db3b8a,"[""period""]",0,[0.28410000000056357],26,0,26,0,1
,,,,,,,5fbf63b9f1a66f21abe16adc,,,,,,5fbf63b9f1a66f21abe16adc,Mężczyzna,26,2021-09-06_18h54.44.651,rantool2,2021.1.4,Win32,74.99625019,6135e006383e6ea6c3d06a28,613647c08dc9cc2083db3b8a,"[""comma"",""comma""]",0,"[0.2303999999994346,1.4803999999994346]",27,0,27,0,1
,,,,,,,5fbf63b9f1a66f21abe16adc,,,,,,5fbf63b9f1a66f21abe16adc,Mężczyzna,26,2021-09-06_18h54.44.651,rantool2,2021.1.4,Win32,74.99625019,6135e006383e6ea6c3d06a28,613647c08dc9cc2083db3b8a,"[""comma""]",0,[0.4976999999992415],28,0,28,0,1
,,,,,,,5fbf63b9f1a66f21abe16adc,,,,,,5fbf63b9f1a66f21abe16adc,Mężczyzna,26,2021-09-06_18h54.44.651,rantool2,2021.1.4,Win32,74.99625019,6135e006383e6ea6c3d06a28,613647c08dc9cc2083db3b8a,"[""period""]",0,[0.30400000000000205],29,0,29,0,1
,,,,,,,5fbf63b9f1a66f21abe16adc,,,,,,5fbf63b9f1a66f21abe16adc,Mężczyzna,26,2021-09-06_18h54.44.651,rantool2,2021.1.4,Win32,74.99625019,6135e006383e6ea6c3d06a28,613647c08dc9cc2083db3b8a,"[""period""]",0,[0.31829999999982306],30,0,30,0,1
,,,,,,,5fbf63b9f1a66f21abe16adc,,,,,,5fbf63b9f1a66f21abe16adc,Mężczyzna,26,2021-09-06_18h54.44.651,rantool2,2021.1.4,Win32,74.99625019,6135e006383e6ea6c3d06a28,613647c08dc9cc2083db3b8a,"[""period""]",0,[0.23099999999999454],31,0,31,0,1
,,,,,,,5fbf63b9f1a66f21abe16adc,,,,,,5fbf63b9f1a66f21abe16adc,Mężczyzna,26,2021-09-06_18h54.44.651,rantool2,2021.1.4,Win32,74.99625019,6135e006383e6ea6c3d06a28,613647c08dc9cc2083db3b8a,"[""comma""]",0,[0.26200000000000045],32,0,32,0,1
,,,,,,,5fbf63b9f1a66f21abe16adc,,,,,,5fbf63b9f1a66f21abe16adc,Mężczyzna,26,2021-09-06_18h54.44.651,rantool2,2021.1.4,Win32,74.99625019,6135e006383e6ea6c3d06a28,613647c08dc9cc2083db3b8a,"[""comma"",""period""]",0,"[0.3047000000001674,1.2615999999996177]",33,0,33,0,1
,,,,,,,5fbf63b9f1a66f21abe16adc,,,,,,5fbf63b9f1a66f21abe16adc,Mężczyzna,26,2021-09-06_18h54.44.651,rantool2,2021.1.4,Win32,74.99625019,6135e006383e6ea6c3d06a28,613647c08dc9cc2083db3b8a,"[""period""]",0,[0.2957999999998151],34,0,34,0,1
,,,,,,,5fbf63b9f1a66f21abe16adc,,,,,,5fbf63b9f1a66f21abe16adc,Mężczyzna,26,2021-09-06_18h54.44.651,rantool2,2021.1.4,Win32,74.99625019,6135e006383e6ea6c3d06a28,613647c08dc9cc2083db3b8a,"[""comma""]",0,[0.4003000000007262],35,0,35,0,1
,,,,,,,5fbf63b9f1a66f21abe16adc,,,,,,5fbf63b9f1a66f21abe16adc,Mężczyzna,26,2021-09-06_18h54.44.651,rantool2,2021.1.4,Win32,74.99625019,6135e006383e6ea6c3d06a28,613647c08dc9cc2083db3b8a,"[""comma"",""period"",""period""]",0,"[0.35270000000019763,0.6677000000001954,0.8307000000001779]",36,0,36,0,1
,,,,,,,5fbf63b9f1a66f21abe16adc,,,,,,5fbf63b9f1a66f21abe16adc,Mężczyzna,26,2021-09-06_18h54.44.651,rantool2,2021.1.4,Win32,74.99625019,6135e006383e6ea6c3d06a28,613647c08dc9cc2083db3b8a,"[""period"",""comma""]",0,"[0.5880000000000223,0.6829000000003873]",37,0,37,0,1
,,,,,,,5fbf63b9f1a66f21abe16adc,,,,,,5fbf63b9f1a66f21abe16adc,Mężczyzna,26,2021-09-06_18h54.44.651,rantool2,2021.1.4,Win32,74.99625019,6135e006383e6ea6c3d06a28,613647c08dc9cc2083db3b8a,"[""comma"",""period""]",0,"[0.4897999999998035,0.6535000000000082]",38,0,38,0,1
,,,,,,,5fbf63b9f1a66f21abe16adc,,,,,,5fbf63b9f1a66f21abe16adc,Mężczyzna,26,2021-09-06_18h54.44.651,rantool2,2021.1.4,Win32,74.99625019,6135e006383e6ea6c3d06a28,613647c08dc9cc2083db3b8a,"[""period""]",0,[0.41399999999998727],39,0,39,0,1
,,,,,,,5fbf63b9f1a66f21abe16adc,,,,,,5fbf63b9f1a66f21abe16adc,Mężczyzna,26,2021-09-06_18h54.44.651,rantool2,2021.1.4,Win32,74.99625019,6135e006383e6ea6c3d06a28,613647c08dc9cc2083db3b8a,"[""comma""]",0,[0.3728999999994471],40,0,40,0,1
,,,,,,,5fbf63b9f1a66f21abe16adc,,,,,,5fbf63b9f1a66f21abe16adc,Mężczyzna,26,2021-09-06_18h54.44.651,rantool2,2021.1.4,Win32,74.99625019,6135e006383e6ea6c3d06a28,613647c08dc9cc2083db3b8a,"[""period""]",0,[0.9607000000002017],41,0,41,0,1
,,,,,,,5fbf63b9f1a66f21abe16adc,,,,,,5fbf63b9f1a66f21abe16adc,Mężczyzna,26,2021-09-06_18h54.44.651,rantool2,2021.1.4,Win32,74.99625019,6135e006383e6ea6c3d06a28,613647c08dc9cc2083db3b8a,"[""comma""]",0,[0.8681000000005668],42,0,42,0,1
,,,,,,,5fbf63b9f1a66f21abe16adc,,,,,,5fbf63b9f1a66f21abe16adc,Mężczyzna,26,2021-09-06_18h54.44.651,rantool2,2021.1.4,Win32,74.99625019,6135e006383e6ea6c3d06a28,613647c08dc9cc2083db3b8a,"[""period""]",0,[0.6514000000003932],43,0,43,0,1
,,,,,,,5fbf63b9f1a66f21abe16adc,,,,,,5fbf63b9f1a66f21abe16adc,Mężczyzna,26,2021-09-06_18h54.44.651,rantool2,2021.1.4,Win32,74.99625019,6135e006383e6ea6c3d06a28,613647c08dc9cc2083db3b8a,"[""comma""]",0,[0.05170000000018149],44,0,44,0,1
,,,,,,,5fbf63b9f1a66f21abe16adc,,,,,,5fbf63b9f1a66f21abe16adc,Mężczyzna,26,2021-09-06_18h54.44.651,rantool2,2021.1.4,Win32,74.99625019,6135e006383e6ea6c3d06a28,613647c08dc9cc2083db3b8a,"[""period""]",0,[0.25089999999946144],45,0,45,0,1
,,,,,,,5fbf63b9f1a66f21abe16adc,,,,,,5fbf63b9f1a66f21abe16adc,Mężczyzna,26,2021-09-06_18h54.44.651,rantool2,2021.1.4,Win32,74.99625019,6135e006383e6ea6c3d06a28,613647c08dc9cc2083db3b8a,"[""comma""]",0,[0.4234000000003846],46,0,46,0,1
,,,,,,,5fbf63b9f1a66f21abe16adc,,,,,,5fbf63b9f1a66f21abe16adc,Mężczyzna,26,2021-09-06_18h54.44.651,rantool2,2021.1.4,Win32,74.99625019,6135e006383e6ea6c3d06a28,613647c08dc9cc2083db3b8a,"[""period""]",0,[0.23989999999946576],47,0,47,0,1
,,,,,,,5fbf63b9f1a66f21abe16adc,,,,,,5fbf63b9f1a66f21abe16adc,Mężczyzna,26,2021-09-06_18h54.44.651,rantool2,2021.1.4,Win32,74.99625019,6135e006383e6ea6c3d06a28,613647c08dc9cc2083db3b8a,"[""period""]",0,[0.29920000000018376],48,0,48,0,1
,,,,,,,5fbf63b9f1a66f21abe16adc,,,,,,5fbf63b9f1a66f21abe16adc,Mężczyzna,26,2021-09-06_18h54.44.651,rantool2,2021.1.4,Win32,74.99625019,6135e006383e6ea6c3d06a28,613647c08dc9cc2083db3b8a,"[""period"",""comma""]",0,"[0.2735999999995897,0.729599999999607]",49,0,49,0,1
,,,,,,,5fbf63b9f1a66f21abe16adc,,,,,,5fbf63b9f1a66f21abe16adc,Mężczyzna,26,2021-09-06_18h54.44.651,rantool2,2021.1.4,Win32,74.99625019,6135e006383e6ea6c3d06a28,613647c08dc9cc2083db3b8a,"[""comma""]",0,[0.7875000000000227],50,0,50,0,1
,,,,,,,5fbf63b9f1a66f21abe16adc,,,,,,5fbf63b9f1a66f21abe16adc,Mężczyzna,26,2021-09-06_18h54.44.651,rantool2,2021.1.4,Win32,74.99625019,6135e006383e6ea6c3d06a28,613647c08dc9cc2083db3b8a,"[""period""]",0,[0.6399000000004094],51,0,51,0,1
,,,,,,,5fbf63b9f1a66f21abe16adc,,,,,,5fbf63b9f1a66f21abe16adc,Mężczyzna,26,2021-09-06_18h54.44.651,rantool2,2021.1.4,Win32,74.99625019,6135e006383e6ea6c3d06a28,613647c08dc9cc2083db3b8a,"[""comma""]",0,[1.3272999999998092],52,0,52,0,1
,,,,,,,5fbf63b9f1a66f21abe16adc,,,,,,5fbf63b9f1a66f21abe16adc,Mężczyzna,26,2021-09-06_18h54.44.651,rantool2,2021.1.4,Win32,74.99625019,6135e006383e6ea6c3d06a28,613647c08dc9cc2083db3b8a,"[""comma""]",0,[0.4087000000001808],53,0,53,0,1
,,,,,,,5fbf63b9f1a66f21abe16adc,,,,,,5fbf63b9f1a66f21abe16adc,Mężczyzna,26,2021-09-06_18h54.44.651,rantool2,2021.1.4,Win32,74.99625019,6135e006383e6ea6c3d06a28,613647c08dc9cc2083db3b8a,"[""period""]",0,[0.24820000000016762],54,0,54,0,1
,,,,,,,5fbf63b9f1a66f21abe16adc,,,,,,5fbf63b9f1a66f21abe16adc,Mężczyzna,26,2021-09-06_18h54.44.651,rantool2,2021.1.4,Win32,74.99625019,6135e006383e6ea6c3d06a28,613647c08dc9cc2083db3b8a,"[""period""]",0,[0.26379999999983283],55,0,55,0,1
,,,,,,,5fbf63b9f1a66f21abe16adc,,,,,,5fbf63b9f1a66f21abe16adc,Mężczyzna,26,2021-09-06_18h54.44.651,rantool2,2021.1.4,Win32,74.99625019,6135e006383e6ea6c3d06a28,613647c08dc9cc2083db3b8a,"[""comma""]",0,[0.37999999999999545],56,0,56,0,1
,,,,,,,5fbf63b9f1a66f21abe16adc,,,,,,5fbf63b9f1a66f21abe16adc,Mężczyzna,26,2021-09-06_18h54.44.651,rantool2,2021.1.4,Win32,74.99625019,6135e006383e6ea6c3d06a28,613647c08dc9cc2083db3b8a,"[""comma""]",0,[0.36069999999921265],57,0,57,0,1
,,,,,,,5fbf63b9f1a66f21abe16adc,,,,,,5fbf63b9f1a66f21abe16adc,Mężczyzna,26,2021-09-06_18h54.44.651,rantool2,2021.1.4,Win32,74.99625019,6135e006383e6ea6c3d06a28,613647c08dc9cc2083db3b8a,"[""period""]",0,[0.008899999999414376],58,0,58,0,1
,,,,,,,5fbf63b9f1a66f21abe16adc,,,,,,5fbf63b9f1a66f21abe16adc,Mężczyzna,26,2021-09-06_18h54.44.651,rantool2,2021.1.4,Win32,74.99625019,6135e006383e6ea6c3d06a28,613647c08dc9cc2083db3b8a,"[""period""]",0,[0.24279999999976098],59,0,59,0,1
,,,,,,,5fbf63b9f1a66f21abe16adc,,,,,,5fbf63b9f1a66f21abe16adc,Mężczyzna,26,2021-09-06_18h54.44.651,rantool2,2021.1.4,Win32,74.99625019,6135e006383e6ea6c3d06a28,613647c08dc9cc2083db3b8a,"[""period""]",0,[0.23430000000070095],60,0,60,0,1
,,,,,,,5fbf63b9f1a66f21abe16adc,,,,,,5fbf63b9f1a66f21abe16adc,Mężczyzna,26,2021-09-06_18h54.44.651,rantool2,2021.1.4,Win32,74.99625019,6135e006383e6ea6c3d06a28,613647c08dc9cc2083db3b8a,"[""comma""]",0,[0.20890000000036935],61,0,61,0,1
,,,,,,,5fbf63b9f1a66f21abe16adc,,,,,,5fbf63b9f1a66f21abe16adc,Mężczyzna,26,2021-09-06_18h54.44.651,rantool2,2021.1.4,Win32,74.99625019,6135e006383e6ea6c3d06a28,613647c08dc9cc2083db3b8a,"[""comma""]",0,[0.42650000000003274],62,0,62,0,1
,,,,,,,5fbf63b9f1a66f21abe16adc,,,,,,5fbf63b9f1a66f21abe16adc,Mężczyzna,26,2021-09-06_18h54.44.651,rantool2,2021.1.4,Win32,74.99625019,6135e006383e6ea6c3d06a28,613647c08dc9cc2083db3b8a,"[""comma""]",0,[0.271399999999403],63,0,63,0,1
,,,,,,,5fbf63b9f1a66f21abe16adc,,,,,,5fbf63b9f1a66f21abe16adc,Mężczyzna,26,2021-09-06_18h54.44.651,rantool2,2021.1.4,Win32,74.99625019,6135e006383e6ea6c3d06a28,613647c08dc9cc2083db3b8a,"[""period""]",0,[0.4549999999999841],64,0,64,0,1
,,,,,,,5fbf63b9f1a66f21abe16adc,,,,,,5fbf63b9f1a66f21abe16adc,Mężczyzna,26,2021-09-06_18h54.44.651,rantool2,2021.1.4,Win32,74.99625019,6135e006383e6ea6c3d06a28,613647c08dc9cc2083db3b8a,"[""period""]",0,[0.3340000000000032],65,0,65,0,1
,,,,,,,5fbf63b9f1a66f21abe16adc,,,,,,5fbf63b9f1a66f21abe16adc,Mężczyzna,26,2021-09-06_18h54.44.651,rantool2,2021.1.4,Win32,74.99625019,6135e006383e6ea6c3d06a28,613647c08dc9cc2083db3b8a,"[""comma""]",0,[0.22510000000056607],66,0,66,0,1
,,,,,,,5fbf63b9f1a66f21abe16adc,,,,,,5fbf63b9f1a66f21abe16adc,Mężczyzna,26,2021-09-06_18h54.44.651,rantool2,2021.1.4,Win32,74.99625019,6135e006383e6ea6c3d06a28,613647c08dc9cc2083db3b8a,"[""comma""]",0,[0.6217999999997801],67,0,67,0,1
,,,,,,,5fbf63b9f1a66f21abe16adc,,,,,,5fbf63b9f1a66f21abe16adc,Mężczyzna,26,2021-09-06_18h54.44.651,rantool2,2021.1.4,Win32,74.99625019,6135e006383e6ea6c3d06a28,613647c08dc9cc2083db3b8a,"[""period"",""period""]",0,"[0.24690000000038026,1.5979000000003794]",68,0,68,0,1
,,,,,,,5fbf63b9f1a66f21abe16adc,,,,,,5fbf63b9f1a66f21abe16adc,Mężczyzna,26,2021-09-06_18h54.44.651,rantool2,2021.1.4,Win32,74.99625019,6135e006383e6ea6c3d06a28,613647c08dc9cc2083db3b8a,"[""period"",""period"",""period""]",0,"[0.56019999999927,1.4146999999993,1.7930000000000064]",69,0,69,0,1
,,,,,,,5fbf63b9f1a66f21abe16adc,,,,,,5fbf63b9f1a66f21abe16adc,Mężczyzna,26,2021-09-06_18h54.44.651,rantool2,2021.1.4,Win32,74.99625019,6135e006383e6ea6c3d06a28,613647c08dc9cc2083db3b8a,"[""comma"",""comma"",""period"",""comma"",""period""]",0,"[0.0724999999999909,0.5736000000005106,0.7816000000005374,1.7436000000005265,1.867700000000184]",70,0,70,0,1
,,,,,,,5fbf63b9f1a66f21abe16adc,,,,,,5fbf63b9f1a66f21abe16adc,Mężczyzna,26,2021-09-06_18h54.44.651,rantool2,2021.1.4,Win32,74.99625019,6135e006383e6ea6c3d06a28,613647c08dc9cc2083db3b8a,"[""period"",""comma""]",0,"[0.60450000000003,0.7735999999996466]",71,0,71,0,1
,,,,,,,5fbf63b9f1a66f21abe16adc,,,,,,5fbf63b9f1a66f21abe16adc,Mężczyzna,26,2021-09-06_18h54.44.651,rantool2,2021.1.4,Win32,74.99625019,6135e006383e6ea6c3d06a28,613647c08dc9cc2083db3b8a,"[""comma"",""period"",""period"",""comma""]",0,"[0.25329999999985375,0.3365000000000009,1.4456000000005815,1.7266000000005874]",72,0,72,0,1
,,,,,,,5fbf63b9f1a66f21abe16adc,,,,,,5fbf63b9f1a66f21abe16adc,Mężczyzna,26,2021-09-06_18h54.44.651,rantool2,2021.1.4,Win32,74.99625019,6135e006383e6ea6c3d06a28,613647c08dc9cc2083db3b8a,"[""comma"",""comma"",""comma"",""period"",""comma""]",0,"[0.27790000000038617,0.8069000000003825,0.9870000000000232,1.217900000000384,1.7299000000003844]",73,0,73,0,1
,,,,,,,5fbf63b9f1a66f21abe16adc,,,,,,5fbf63b9f1a66f21abe16adc,Mężczyzna,26,2021-09-06_18h54.44.651,rantool2,2021.1.4,Win32,74.99625019,6135e006383e6ea6c3d06a28,613647c08dc9cc2083db3b8a,"[""period""]",0,[0.37859999999966476],74,0,74,0,1
,,,,,,,5fbf63b9f1a66f21abe16adc,,,,,,5fbf63b9f1a66f21abe16adc,Mężczyzna,26,2021-09-06_18h54.44.651,rantool2,2021.1.4,Win32,74.99625019,6135e006383e6ea6c3d06a28,613647c08dc9cc2083db3b8a,"[""period""]",0,[0.4830000000000041],75,0,75,0,1
,,,,,,,5fbf63b9f1a66f21abe16adc,,,,,,5fbf63b9f1a66f21abe16adc,Mężczyzna,26,2021-09-06_18h54.44.651,rantool2,2021.1.4,Win32,74.99625019,6135e006383e6ea6c3d06a28,613647c08dc9cc2083db3b8a,"[""comma""]",0,[0.3672000000001958],76,0,76,0,1
,,,,,,,5fbf63b9f1a66f21abe16adc,,,,,,5fbf63b9f1a66f21abe16adc,Mężczyzna,26,2021-09-06_18h54.44.651,rantool2,2021.1.4,Win32,74.99625019,6135e006383e6ea6c3d06a28,613647c08dc9cc2083db3b8a,"[""period""]",0,[0.25329999999985375],77,0,77,0,1
,,,,,,,5fbf63b9f1a66f21abe16adc,,,,,,5fbf63b9f1a66f21abe16adc,Mężczyzna,26,2021-09-06_18h54.44.651,rantool2,2021.1.4,Win32,74.99625019,6135e006383e6ea6c3d06a28,613647c08dc9cc2083db3b8a,"[""comma""]",0,[0.4972000000001344],78,0,78,0,1
,,,,,,,5fbf63b9f1a66f21abe16adc,,,,,,5fbf63b9f1a66f21abe16adc,Mężczyzna,26,2021-09-06_18h54.44.651,rantool2,2021.1.4,Win32,74.99625019,6135e006383e6ea6c3d06a28,613647c08dc9cc2083db3b8a,"[""period""]",0,[0.18669999999923448],79,0,79,0,1
,,,,,,,5fbf63b9f1a66f21abe16adc,,,,,,5fbf63b9f1a66f21abe16adc,Mężczyzna,26,2021-09-06_18h54.44.651,rantool2,2021.1.4,Win32,74.99625019,6135e006383e6ea6c3d06a28,613647c08dc9cc2083db3b8a,"[""comma""]",0,[0.34689999999943666],80,0,80,0,1
,,,,,,,5fbf63b9f1a66f21abe16adc,,,,,,5fbf63b9f1a66f21abe16adc,Mężczyzna,26,2021-09-06_18h54.44.651,rantool2,2021.1.4,Win32,74.99625019,6135e006383e6ea6c3d06a28,613647c08dc9cc2083db3b8a,"[""comma"",""comma""]",0,"[0.03400000000004866,0.7930999999996402]",81,0,81,0,1
,,,,,,,5fbf63b9f1a66f21abe16adc,,,,,,5fbf63b9f1a66f21abe16adc,Mężczyzna,26,2021-09-06_18h54.44.651,rantool2,2021.1.4,Win32,74.99625019,6135e006383e6ea6c3d06a28,613647c08dc9cc2083db3b8a,"[""period""]",0,[0.2905999999996425],82,0,82,0,1
,,,,,,,5fbf63b9f1a66f21abe16adc,,,,,,5fbf63b9f1a66f21abe16adc,Mężczyzna,26,2021-09-06_18h54.44.651,rantool2,2021.1.4,Win32,74.99625019,6135e006383e6ea6c3d06a28,613647c08dc9cc2083db3b8a,"[""period""]",0,[0.23129999999980555],83,0,83,0,1
,,,,,,,5fbf63b9f1a66f21abe16adc,,,,,,5fbf63b9f1a66f21abe16adc,Mężczyzna,26,2021-09-06_18h54.44.651,rantool2,2021.1.4,Win32,74.99625019,6135e006383e6ea6c3d06a28,613647c08dc9cc2083db3b8a,"[""period""]",0,[0.4190999999996734],84,0,84,0,1
,,,,,,,5fbf63b9f1a66f21abe16adc,,,,,,5fbf63b9f1a66f21abe16adc,Mężczyzna,26,2021-09-06_18h54.44.651,rantool2,2021.1.4,Win32,74.99625019,6135e006383e6ea6c3d06a28,613647c08dc9cc2083db3b8a,"[""period""]",0,[0.4333000000007132],85,0,85,0,1
,,,,,,,5fbf63b9f1a66f21abe16adc,,,,,,5fbf63b9f1a66f21abe16adc,Mężczyzna,26,2021-09-06_18h54.44.651,rantool2,2021.1.4,Win32,74.99625019,6135e006383e6ea6c3d06a28,613647c08dc9cc2083db3b8a,"[""comma""]",0,[0.7294000000003962],86,0,86,0,1
,,,,,,,5fbf63b9f1a66f21abe16adc,,,,,,5fbf63b9f1a66f21abe16adc,Mężczyzna,26,2021-09-06_18h54.44.651,rantool2,2021.1.4,Win32,74.99625019,6135e006383e6ea6c3d06a28,613647c08dc9cc2083db3b8a,"[""period""]",0,[0.3163000000007514],87,0,87,0,1
,,,,,,,5fbf63b9f1a66f21abe16adc,,,,,,5fbf63b9f1a66f21abe16adc,Mężczyzna,26,2021-09-06_18h54.44.651,rantool2,2021.1.4,Win32,74.99625019,6135e006383e6ea6c3d06a28,613647c08dc9cc2083db3b8a,"[""period""]",0,[0.3922999999988974],88,0,88,0,1
,,,,,,,5fbf63b9f1a66f21abe16adc,,,,,,5fbf63b9f1a66f21abe16adc,Mężczyzna,26,2021-09-06_18h54.44.651,rantool2,2021.1.4,Win32,74.99625019,6135e006383e6ea6c3d06a28,613647c08dc9cc2083db3b8a,"[""period""]",0,[0.36169999999924585],89,0,89,0,1
,,,,,,,5fbf63b9f1a66f21abe16adc,,,,,,5fbf63b9f1a66f21abe16adc,Mężczyzna,26,2021-09-06_18h54.44.651,rantool2,2021.1.4,Win32,74.99625019,6135e006383e6ea6c3d06a28,613647c08dc9cc2083db3b8a,"[""comma""]",0,[0.25820000000112486],90,0,90,0,1
,,,,,,,5fbf63b9f1a66f21abe16adc,,,,,,5fbf63b9f1a66f21abe16adc,Mężczyzna,26,2021-09-06_18h54.44.651,rantool2,2021.1.4,Win32,74.99625019,6135e006383e6ea6c3d06a28,613647c08dc9cc2083db3b8a,"[""comma""]",0,[0.3903000000007637],91,0,91,0,1
,,,,,,,5fbf63b9f1a66f21abe16adc,,,,,,5fbf63b9f1a66f21abe16adc,Mężczyzna,26,2021-09-06_18h54.44.651,rantool2,2021.1.4,Win32,74.99625019,6135e006383e6ea6c3d06a28,613647c08dc9cc2083db3b8a,"[""comma""]",0,[0.7274999999999636],92,0,92,0,1
,,,,,,,5fbf63b9f1a66f21abe16adc,,,,,,5fbf63b9f1a66f21abe16adc,Mężczyzna,26,2021-09-06_18h54.44.651,rantool2,2021.1.4,Win32,74.99625019,6135e006383e6ea6c3d06a28,613647c08dc9cc2083db3b8a,"[""period""]",0,[0.3806999999992513],93,0,93,0,1
,,,,,,,5fbf63b9f1a66f21abe16adc,,,,,,5fbf63b9f1a66f21abe16adc,Mężczyzna,26,2021-09-06_18h54.44.651,rantool2,2021.1.4,Win32,74.99625019,6135e006383e6ea6c3d06a28,613647c08dc9cc2083db3b8a,"[""period""]",0,[0.34989999999851307],94,0,94,0,1
,,,,,,,5fbf63b9f1a66f21abe16adc,,,,,,5fbf63b9f1a66f21abe16adc,Mężczyzna,26,2021-09-06_18h54.44.651,rantool2,2021.1.4,Win32,74.99625019,6135e006383e6ea6c3d06a28,613647c08dc9cc2083db3b8a,"[""period""]",0,[0.38130000000074915],95,0,95,0,1
,,,,,,,5fbf63b9f1a66f21abe16adc,,,,,,5fbf63b9f1a66f21abe16adc,Mężczyzna,26,2021-09-06_18h54.44.651,rantool2,2021.1.4,Win32,74.99625019,6135e006383e6ea6c3d06a28,613647c08dc9cc2083db3b8a,"[""comma""]",0,[0.5574000000003707],96,0,96,0,1
,,,,,,,5fbf63b9f1a66f21abe16adc,,,,,,5fbf63b9f1a66f21abe16adc,Mężczyzna,26,2021-09-06_18h54.44.651,rantool2,2021.1.4,Win32,74.99625019,6135e006383e6ea6c3d06a28,613647c08dc9cc2083db3b8a,"[""comma""]",0,[0.9613000000007332],97,0,97,0,1
,,,,,,,5fbf63b9f1a66f21abe16adc,,,,,,5fbf63b9f1a66f21abe16adc,Mężczyzna,26,2021-09-06_18h54.44.651,rantool2,2021.1.4,Win32,74.99625019,6135e006383e6ea6c3d06a28,613647c08dc9cc2083db3b8a,"[""period""]",0,[0.4464000000003807],98,0,98,0,1
,,,,,,,5fbf63b9f1a66f21abe16adc,,,,,,5fbf63b9f1a66f21abe16adc,Mężczyzna,26,2021-09-06_18h54.44.651,rantool2,2021.1.4,Win32,74.99625019,6135e006383e6ea6c3d06a28,613647c08dc9cc2083db3b8a,"[""comma""]",0,[0.23559999999963566],99,0,99,0,1
,,,,,,,5fbf63b9f1a66f21abe16adc,,,,,,5fbf63b9f1a66f21abe16adc,Mężczyzna,26,2021-09-06_18h54.44.651,rantool2,2021.1.4,Win32,74.99625019,6135e006383e6ea6c3d06a28,613647c08dc9cc2083db3b8a,"[""period""]",0,[0.2096000000014442],100,0,100,0,1
,,,,,,,5fbf63b9f1a66f21abe16adc,,,,,,5fbf63b9f1a66f21abe16adc,Mężczyzna,26,2021-09-06_18h54.44.651,rantool2,2021.1.4,Win32,74.99625019,6135e006383e6ea6c3d06a28,613647c08dc9cc2083db3b8a,"[""comma""]",0,[0.20730000000077098],101,0,101,0,1
,,,,,,,5fbf63b9f1a66f21abe16adc,,,,,,5fbf63b9f1a66f21abe16adc,Mężczyzna,26,2021-09-06_18h54.44.651,rantool2,2021.1.4,Win32,74.99625019,6135e006383e6ea6c3d06a28,613647c08dc9cc2083db3b8a,"[""period""]",0,[0.2944000000003939],102,0,102,0,1
,,,,,,,5fbf63b9f1a66f21abe16adc,,,,,,5fbf63b9f1a66f21abe16adc,Mężczyzna,26,2021-09-06_18h54.44.651,rantool2,2021.1.4,Win32,74.99625019,6135e006383e6ea6c3d06a28,613647c08dc9cc2083db3b8a,"[""period"",""comma""]",0,"[0.11100000000004684,0.2577000000011367]",103,0,103,0,1
,,,,,,,5fbf63b9f1a66f21abe16adc,,,,,,5fbf63b9f1a66f21abe16adc,Mężczyzna,26,2021-09-06_18h54.44.651,rantool2,2021.1.4,Win32,74.99625019,6135e006383e6ea6c3d06a28,613647c08dc9cc2083db3b8a,"[""period""]",0,[0.3841999999992822],104,0,104,0,1
,,,,,,,5fbf63b9f1a66f21abe16adc,,,,,,5fbf63b9f1a66f21abe16adc,Mężczyzna,26,2021-09-06_18h54.44.651,rantool2,2021.1.4,Win32,74.99625019,6135e006383e6ea6c3d06a28,613647c08dc9cc2083db3b8a,0,0,,105,0,105,0,1
,,,,,,,5fbf63b9f1a66f21abe16adc,,,,,,5fbf63b9f1a66f21abe16adc,Mężczyzna,26,2021-09-06_18h54.44.651,rantool2,2021.1.4,Win32,74.99625019,6135e006383e6ea6c3d06a28,613647c08dc9cc2083db3b8a,"[""period""]",0,[0.41309999999964475],106,0,106,0,1
,,,,,,,5fbf63b9f1a66f21abe16adc,,,,,,5fbf63b9f1a66f21abe16adc,Mężczyzna,26,2021-09-06_18h54.44.651,rantool2,2021.1.4,Win32,74.99625019,6135e006383e6ea6c3d06a28,613647c08dc9cc2083db3b8a,"[""comma""]",0,[0.22949999999997317],107,0,107,0,1
,,,,,,,5fbf63b9f1a66f21abe16adc,,,,,,5fbf63b9f1a66f21abe16adc,Mężczyzna,26,2021-09-06_18h54.44.651,rantool2,2021.1.4,Win32,74.99625019,6135e006383e6ea6c3d06a28,613647c08dc9cc2083db3b8a,"[""period""]",0,[0.2215999999996825],108,0,108,0,1
,,,,,,,5fbf63b9f1a66f21abe16adc,,,,,,5fbf63b9f1a66f21abe16adc,Mężczyzna,26,2021-09-06_18h54.44.651,rantool2,2021.1.4,Win32,74.99625019,6135e006383e6ea6c3d06a28,613647c08dc9cc2083db3b8a,"[""comma""]",0,[0.011300000000744603],109,0,109,0,1
,,,,,,,5fbf63b9f1a66f21abe16adc,,,,,,5fbf63b9f1a66f21abe16adc,Mężczyzna,26,2021-09-06_18h54.44.651,rantool2,2021.1.4,Win32,74.99625019,6135e006383e6ea6c3d06a28,613647c08dc9cc2083db3b8a,"[""period""]",0,[0.20769999999924948],110,0,110,0,1
,,,,,,,5fbf63b9f1a66f21abe16adc,,,,,,5fbf63b9f1a66f21abe16adc,Mężczyzna,26,2021-09-06_18h54.44.651,rantool2,2021.1.4,Win32,74.99625019,6135e006383e6ea6c3d06a28,613647c08dc9cc2083db3b8a,"[""comma""]",0,[0.18800000000004502],111,0,111,0,1
,,,,,,,5fbf63b9f1a66f21abe16adc,,,,,,5fbf63b9f1a66f21abe16adc,Mężczyzna,26,2021-09-06_18h54.44.651,rantool2,2021.1.4,Win32,74.99625019,6135e006383e6ea6c3d06a28,613647c08dc9cc2083db3b8a,"[""comma"",""period""]",0,"[0.050499999999999545,0.4773999999985108]",112,0,112,0,1
,,,,,,,5fbf63b9f1a66f21abe16adc,,,,,,5fbf63b9f1a66f21abe16adc,Mężczyzna,26,2021-09-06_18h54.44.651,rantool2,2021.1.4,Win32,74.99625019,6135e006383e6ea6c3d06a28,613647c08dc9cc2083db3b8a,"[""comma""]",0,[0.30070000000114305],113,0,113,0,1
,,,,,,,5fbf63b9f1a66f21abe16adc,,,,,,5fbf63b9f1a66f21abe16adc,Mężczyzna,26,2021-09-06_18h54.44.651,rantool2,2021.1.4,Win32,74.99625019,6135e006383e6ea6c3d06a28,613647c08dc9cc2083db3b8a,"[""period""]",0,[0.10620000000108121],114,0,114,0,1
,,,,,,,5fbf63b9f1a66f21abe16adc,,,,,,5fbf63b9f1a66f21abe16adc,Mężczyzna,26,2021-09-06_18h54.44.651,rantool2,2021.1.4,Win32,74.99625019,6135e006383e6ea6c3d06a28,613647c08dc9cc2083db3b8a,"[""period"",""comma"",""period"",""comma"",""period""]",0,"[0.10349999999999682,1.128499999999974,1.336500000000001,1.6455999999996038,1.8485999999996352]",115,0,115,0,1
,,,,,,,5fbf63b9f1a66f21abe16adc,,,,,,5fbf63b9f1a66f21abe16adc,Mężczyzna,26,2021-09-06_18h54.44.651,rantool2,2021.1.4,Win32,74.99625019,6135e006383e6ea6c3d06a28,613647c08dc9cc2083db3b8a,"[""comma"",""period"",""comma"",""period"",""comma"",""period""]",0,"[0.06669999999928677,0.2865999999996234,0.500599999999622,0.6975999999996247,0.9225999999996475,1.4626999999993018]",116,0,116,0,1
,,,,,,,5fbf63b9f1a66f21abe16adc,,,,,,5fbf63b9f1a66f21abe16adc,Mężczyzna,26,2021-09-06_18h54.44.651,rantool2,2021.1.4,Win32,74.99625019,6135e006383e6ea6c3d06a28,613647c08dc9cc2083db3b8a,"[""period""]",0,[0.6779999999999973],117,0,117,0,1
,,,,,,,5fbf63b9f1a66f21abe16adc,,,,,,5fbf63b9f1a66f21abe16adc,Mężczyzna,26,2021-09-06_18h54.44.651,rantool2,2021.1.4,Win32,74.99625019,6135e006383e6ea6c3d06a28,613647c08dc9cc2083db3b8a,"[""period""]",0,[0.24250000000000682],118,0,118,0,1
,,,,,,,5fbf63b9f1a66f21abe16adc,,,,,,5fbf63b9f1a66f21abe16adc,Mężczyzna,26,2021-09-06_18h54.44.651,rantool2,2021.1.4,Win32,74.99625019,6135e006383e6ea6c3d06a28,613647c08dc9cc2083db3b8a,"[""comma""]",0,[0.26219999999926813],119,0,119,0,1
