key_resp_5.keys,key_resp_5.corr,key_resp_5.rt,trials.thisRepN,trials.thisTrialN,trials.thisN,trials.thisIndex,trials.ran,id*,Płeć*,Wiek*,date,expName,psychopyVersion,OS,frameRate,id,STUDY_ID,SESSION_ID,key_resp_7.keys,key_resp_7.rt,trials_2.thisRepN,trials_2.thisTrialN,trials_2.thisN,trials_2.thisIndex,trials_2.ran,series_0,series_1,acss_0,acss_1,comparison
"[""period""]",0,[0.8621999998092704],0,0,0,0,1,5cc58a0fa6e5a400014ea1fe,Kobieta,23,2021-07-13_21h50.05.613,rantool2,2021.1.4,Win32,59.74429442,5cc58a0fa6e5a400014ea1fe,60d9d14f4a8a35a482e0d9bf,60edee5647867772ef1e38a1,,,,,,,,,,,,
"[""period""]",0,[0.9165999999046335],1,0,1,0,1,5cc58a0fa6e5a400014ea1fe,Kobieta,23,2021-07-13_21h50.05.613,rantool2,2021.1.4,Win32,59.74429442,5cc58a0fa6e5a400014ea1fe,60d9d14f4a8a35a482e0d9bf,60edee5647867772ef1e38a1,,,,,,,,,,,,
"[""comma""]",0,[0.5162999999523166],2,0,2,0,1,5cc58a0fa6e5a400014ea1fe,Kobieta,23,2021-07-13_21h50.05.613,rantool2,2021.1.4,Win32,59.74429442,5cc58a0fa6e5a400014ea1fe,60d9d14f4a8a35a482e0d9bf,60edee5647867772ef1e38a1,,,,,,,,,,,,
"[""period""]",0,[0.3336000001430506],3,0,3,0,1,5cc58a0fa6e5a400014ea1fe,Kobieta,23,2021-07-13_21h50.05.613,rantool2,2021.1.4,Win32,59.74429442,5cc58a0fa6e5a400014ea1fe,60d9d14f4a8a35a482e0d9bf,60edee5647867772ef1e38a1,,,,,,,,,,,,
"[""comma""]",0,[0.26720000004767996],4,0,4,0,1,5cc58a0fa6e5a400014ea1fe,Kobieta,23,2021-07-13_21h50.05.613,rantool2,2021.1.4,Win32,59.74429442,5cc58a0fa6e5a400014ea1fe,60d9d14f4a8a35a482e0d9bf,60edee5647867772ef1e38a1,,,,,,,,,,,,
"[""period""]",0,[0.16720000004768565],5,0,5,0,1,5cc58a0fa6e5a400014ea1fe,Kobieta,23,2021-07-13_21h50.05.613,rantool2,2021.1.4,Win32,59.74429442,5cc58a0fa6e5a400014ea1fe,60d9d14f4a8a35a482e0d9bf,60edee5647867772ef1e38a1,,,,,,,,,,,,
"[""comma""]",0,[0.11679999995231327],6,0,6,0,1,5cc58a0fa6e5a400014ea1fe,Kobieta,23,2021-07-13_21h50.05.613,rantool2,2021.1.4,Win32,59.74429442,5cc58a0fa6e5a400014ea1fe,60d9d14f4a8a35a482e0d9bf,60edee5647867772ef1e38a1,,,,,,,,,,,,
"[""period""]",0,[0.16940000009536504],7,0,7,0,1,5cc58a0fa6e5a400014ea1fe,Kobieta,23,2021-07-13_21h50.05.613,rantool2,2021.1.4,Win32,59.74429442,5cc58a0fa6e5a400014ea1fe,60d9d14f4a8a35a482e0d9bf,60edee5647867772ef1e38a1,,,,,,,,,,,,
"[""comma""]",0,[0.2613999998569483],8,0,8,0,1,5cc58a0fa6e5a400014ea1fe,Kobieta,23,2021-07-13_21h50.05.613,rantool2,2021.1.4,Win32,59.74429442,5cc58a0fa6e5a400014ea1fe,60d9d14f4a8a35a482e0d9bf,60edee5647867772ef1e38a1,,,,,,,,,,,,
"[""comma""]",0,[0.23370000004769054],9,0,9,0,1,5cc58a0fa6e5a400014ea1fe,Kobieta,23,2021-07-13_21h50.05.613,rantool2,2021.1.4,Win32,59.74429442,5cc58a0fa6e5a400014ea1fe,60d9d14f4a8a35a482e0d9bf,60edee5647867772ef1e38a1,,,,,,,,,,,,
"[""period""]",0,[0.2172000000476828],10,0,10,0,1,5cc58a0fa6e5a400014ea1fe,Kobieta,23,2021-07-13_21h50.05.613,rantool2,2021.1.4,Win32,59.74429442,5cc58a0fa6e5a400014ea1fe,60d9d14f4a8a35a482e0d9bf,60edee5647867772ef1e38a1,,,,,,,,,,,,
"[""comma"",""period""]",0,"[0.09579999995231958,1.9527000000476846]",11,0,11,0,1,5cc58a0fa6e5a400014ea1fe,Kobieta,23,2021-07-13_21h50.05.613,rantool2,2021.1.4,Win32,59.74429442,5cc58a0fa6e5a400014ea1fe,60d9d14f4a8a35a482e0d9bf,60edee5647867772ef1e38a1,,,,,,,,,,,,
"[""comma""]",0,[1.9119000000953719],12,0,12,0,1,5cc58a0fa6e5a400014ea1fe,Kobieta,23,2021-07-13_21h50.05.613,rantool2,2021.1.4,Win32,59.74429442,5cc58a0fa6e5a400014ea1fe,60d9d14f4a8a35a482e0d9bf,60edee5647867772ef1e38a1,,,,,,,,,,,,
"[""period""]",0,[1.9331999998092613],13,0,13,0,1,5cc58a0fa6e5a400014ea1fe,Kobieta,23,2021-07-13_21h50.05.613,rantool2,2021.1.4,Win32,59.74429442,5cc58a0fa6e5a400014ea1fe,60d9d14f4a8a35a482e0d9bf,60edee5647867772ef1e38a1,,,,,,,,,,,,
"[""comma""]",0,[1.9393000001907268],14,0,14,0,1,5cc58a0fa6e5a400014ea1fe,Kobieta,23,2021-07-13_21h50.05.613,rantool2,2021.1.4,Win32,59.74429442,5cc58a0fa6e5a400014ea1fe,60d9d14f4a8a35a482e0d9bf,60edee5647867772ef1e38a1,,,,,,,,,,,,
"[""period""]",0,[1.933000000000007],15,0,15,0,1,5cc58a0fa6e5a400014ea1fe,Kobieta,23,2021-07-13_21h50.05.613,rantool2,2021.1.4,Win32,59.74429442,5cc58a0fa6e5a400014ea1fe,60d9d14f4a8a35a482e0d9bf,60edee5647867772ef1e38a1,,,,,,,,,,,,
0,0,,16,0,16,0,1,5cc58a0fa6e5a400014ea1fe,Kobieta,23,2021-07-13_21h50.05.613,rantool2,2021.1.4,Win32,59.74429442,5cc58a0fa6e5a400014ea1fe,60d9d14f4a8a35a482e0d9bf,60edee5647867772ef1e38a1,,,,,,,,,,,,
"[""comma"",""period""]",0,"[0.0007000000476864443,1.8330999999046327]",17,0,17,0,1,5cc58a0fa6e5a400014ea1fe,Kobieta,23,2021-07-13_21h50.05.613,rantool2,2021.1.4,Win32,59.74429442,5cc58a0fa6e5a400014ea1fe,60d9d14f4a8a35a482e0d9bf,60edee5647867772ef1e38a1,,,,,,,,,,,,
0,0,,18,0,18,0,1,5cc58a0fa6e5a400014ea1fe,Kobieta,23,2021-07-13_21h50.05.613,rantool2,2021.1.4,Win32,59.74429442,5cc58a0fa6e5a400014ea1fe,60d9d14f4a8a35a482e0d9bf,60edee5647867772ef1e38a1,,,,,,,,,,,,
"[""comma""]",0,[0.10269999980926059],19,0,19,0,1,5cc58a0fa6e5a400014ea1fe,Kobieta,23,2021-07-13_21h50.05.613,rantool2,2021.1.4,Win32,59.74429442,5cc58a0fa6e5a400014ea1fe,60d9d14f4a8a35a482e0d9bf,60edee5647867772ef1e38a1,,,,,,,,,,,,
"[""period""]",0,[0.18429999995231583],20,0,20,0,1,5cc58a0fa6e5a400014ea1fe,Kobieta,23,2021-07-13_21h50.05.613,rantool2,2021.1.4,Win32,59.74429442,5cc58a0fa6e5a400014ea1fe,60d9d14f4a8a35a482e0d9bf,60edee5647867772ef1e38a1,,,,,,,,,,,,
"[""comma""]",0,[0.14140000009537346],21,0,21,0,1,5cc58a0fa6e5a400014ea1fe,Kobieta,23,2021-07-13_21h50.05.613,rantool2,2021.1.4,Win32,59.74429442,5cc58a0fa6e5a400014ea1fe,60d9d14f4a8a35a482e0d9bf,60edee5647867772ef1e38a1,,,,,,,,,,,,
"[""period""]",0,[0.22800000000000864],22,0,22,0,1,5cc58a0fa6e5a400014ea1fe,Kobieta,23,2021-07-13_21h50.05.613,rantool2,2021.1.4,Win32,59.74429442,5cc58a0fa6e5a400014ea1fe,60d9d14f4a8a35a482e0d9bf,60edee5647867772ef1e38a1,,,,,,,,,,,,
"[""comma""]",0,[0.3007000000476836],23,0,23,0,1,5cc58a0fa6e5a400014ea1fe,Kobieta,23,2021-07-13_21h50.05.613,rantool2,2021.1.4,Win32,59.74429442,5cc58a0fa6e5a400014ea1fe,60d9d14f4a8a35a482e0d9bf,60edee5647867772ef1e38a1,,,,,,,,,,,,
"[""period""]",0,[0.2923999998569542],24,0,24,0,1,5cc58a0fa6e5a400014ea1fe,Kobieta,23,2021-07-13_21h50.05.613,rantool2,2021.1.4,Win32,59.74429442,5cc58a0fa6e5a400014ea1fe,60d9d14f4a8a35a482e0d9bf,60edee5647867772ef1e38a1,,,,,,,,,,,,
"[""comma""]",0,[0.2570999999046393],25,0,25,0,1,5cc58a0fa6e5a400014ea1fe,Kobieta,23,2021-07-13_21h50.05.613,rantool2,2021.1.4,Win32,59.74429442,5cc58a0fa6e5a400014ea1fe,60d9d14f4a8a35a482e0d9bf,60edee5647867772ef1e38a1,,,,,,,,,,,,
"[""period""]",0,[0.21949999999999648],26,0,26,0,1,5cc58a0fa6e5a400014ea1fe,Kobieta,23,2021-07-13_21h50.05.613,rantool2,2021.1.4,Win32,59.74429442,5cc58a0fa6e5a400014ea1fe,60d9d14f4a8a35a482e0d9bf,60edee5647867772ef1e38a1,,,,,,,,,,,,
"[""comma""]",0,[0.13400000000000034],27,0,27,0,1,5cc58a0fa6e5a400014ea1fe,Kobieta,23,2021-07-13_21h50.05.613,rantool2,2021.1.4,Win32,59.74429442,5cc58a0fa6e5a400014ea1fe,60d9d14f4a8a35a482e0d9bf,60edee5647867772ef1e38a1,,,,,,,,,,,,
"[""period""]",0,[0.04220000004768565],28,0,28,0,1,5cc58a0fa6e5a400014ea1fe,Kobieta,23,2021-07-13_21h50.05.613,rantool2,2021.1.4,Win32,59.74429442,5cc58a0fa6e5a400014ea1fe,60d9d14f4a8a35a482e0d9bf,60edee5647867772ef1e38a1,,,,,,,,,,,,
"[""comma""]",0,[0.20040000009537096],29,0,29,0,1,5cc58a0fa6e5a400014ea1fe,Kobieta,23,2021-07-13_21h50.05.613,rantool2,2021.1.4,Win32,59.74429442,5cc58a0fa6e5a400014ea1fe,60d9d14f4a8a35a482e0d9bf,60edee5647867772ef1e38a1,,,,,,,,,,,,
"[""period""]",0,[0.13789999985694124],30,0,30,0,1,5cc58a0fa6e5a400014ea1fe,Kobieta,23,2021-07-13_21h50.05.613,rantool2,2021.1.4,Win32,59.74429442,5cc58a0fa6e5a400014ea1fe,60d9d14f4a8a35a482e0d9bf,60edee5647867772ef1e38a1,,,,,,,,,,,,
"[""comma""]",0,[0.28000000000000114],31,0,31,0,1,5cc58a0fa6e5a400014ea1fe,Kobieta,23,2021-07-13_21h50.05.613,rantool2,2021.1.4,Win32,59.74429442,5cc58a0fa6e5a400014ea1fe,60d9d14f4a8a35a482e0d9bf,60edee5647867772ef1e38a1,,,,,,,,,,,,
"[""period""]",0,[0.26459999990463245],32,0,32,0,1,5cc58a0fa6e5a400014ea1fe,Kobieta,23,2021-07-13_21h50.05.613,rantool2,2021.1.4,Win32,59.74429442,5cc58a0fa6e5a400014ea1fe,60d9d14f4a8a35a482e0d9bf,60edee5647867772ef1e38a1,,,,,,,,,,,,
"[""comma""]",0,[0.30349999999999966],33,0,33,0,1,5cc58a0fa6e5a400014ea1fe,Kobieta,23,2021-07-13_21h50.05.613,rantool2,2021.1.4,Win32,59.74429442,5cc58a0fa6e5a400014ea1fe,60d9d14f4a8a35a482e0d9bf,60edee5647867772ef1e38a1,,,,,,,,,,,,
"[""period""]",0,[0.46529999995232174],34,0,34,0,1,5cc58a0fa6e5a400014ea1fe,Kobieta,23,2021-07-13_21h50.05.613,rantool2,2021.1.4,Win32,59.74429442,5cc58a0fa6e5a400014ea1fe,60d9d14f4a8a35a482e0d9bf,60edee5647867772ef1e38a1,,,,,,,,,,,,
"[""comma""]",0,[0.31670000004768895],35,0,35,0,1,5cc58a0fa6e5a400014ea1fe,Kobieta,23,2021-07-13_21h50.05.613,rantool2,2021.1.4,Win32,59.74429442,5cc58a0fa6e5a400014ea1fe,60d9d14f4a8a35a482e0d9bf,60edee5647867772ef1e38a1,,,,,,,,,,,,
"[""period""]",0,[0.2669999999999959],36,0,36,0,1,5cc58a0fa6e5a400014ea1fe,Kobieta,23,2021-07-13_21h50.05.613,rantool2,2021.1.4,Win32,59.74429442,5cc58a0fa6e5a400014ea1fe,60d9d14f4a8a35a482e0d9bf,60edee5647867772ef1e38a1,,,,,,,,,,,,
"[""comma""]",0,[0.15570000004768758],37,0,37,0,1,5cc58a0fa6e5a400014ea1fe,Kobieta,23,2021-07-13_21h50.05.613,rantool2,2021.1.4,Win32,59.74429442,5cc58a0fa6e5a400014ea1fe,60d9d14f4a8a35a482e0d9bf,60edee5647867772ef1e38a1,,,,,,,,,,,,
"[""period""]",0,[0.10099999999999909],38,0,38,0,1,5cc58a0fa6e5a400014ea1fe,Kobieta,23,2021-07-13_21h50.05.613,rantool2,2021.1.4,Win32,59.74429442,5cc58a0fa6e5a400014ea1fe,60d9d14f4a8a35a482e0d9bf,60edee5647867772ef1e38a1,,,,,,,,,,,,
"[""comma""]",0,[0.20660000014305524],39,0,39,0,1,5cc58a0fa6e5a400014ea1fe,Kobieta,23,2021-07-13_21h50.05.613,rantool2,2021.1.4,Win32,59.74429442,5cc58a0fa6e5a400014ea1fe,60d9d14f4a8a35a482e0d9bf,60edee5647867772ef1e38a1,,,,,,,,,,,,
"[""period""]",0,[0.14620000004768485],40,0,40,0,1,5cc58a0fa6e5a400014ea1fe,Kobieta,23,2021-07-13_21h50.05.613,rantool2,2021.1.4,Win32,59.74429442,5cc58a0fa6e5a400014ea1fe,60d9d14f4a8a35a482e0d9bf,60edee5647867772ef1e38a1,,,,,,,,,,,,
"[""comma""]",0,[0.2511999998092733],41,0,41,0,1,5cc58a0fa6e5a400014ea1fe,Kobieta,23,2021-07-13_21h50.05.613,rantool2,2021.1.4,Win32,59.74429442,5cc58a0fa6e5a400014ea1fe,60d9d14f4a8a35a482e0d9bf,60edee5647867772ef1e38a1,,,,,,,,,,,,
"[""period""]",0,[0.10970000004766689],42,0,42,0,1,5cc58a0fa6e5a400014ea1fe,Kobieta,23,2021-07-13_21h50.05.613,rantool2,2021.1.4,Win32,59.74429442,5cc58a0fa6e5a400014ea1fe,60d9d14f4a8a35a482e0d9bf,60edee5647867772ef1e38a1,,,,,,,,,,,,
"[""comma""]",0,[0.2501000001430498],43,0,43,0,1,5cc58a0fa6e5a400014ea1fe,Kobieta,23,2021-07-13_21h50.05.613,rantool2,2021.1.4,Win32,59.74429442,5cc58a0fa6e5a400014ea1fe,60d9d14f4a8a35a482e0d9bf,60edee5647867772ef1e38a1,,,,,,,,,,,,
"[""period""]",0,[0.1372000000476703],44,0,44,0,1,5cc58a0fa6e5a400014ea1fe,Kobieta,23,2021-07-13_21h50.05.613,rantool2,2021.1.4,Win32,59.74429442,5cc58a0fa6e5a400014ea1fe,60d9d14f4a8a35a482e0d9bf,60edee5647867772ef1e38a1,,,,,,,,,,,,
"[""comma""]",0,[0.18379999995229923],45,0,45,0,1,5cc58a0fa6e5a400014ea1fe,Kobieta,23,2021-07-13_21h50.05.613,rantool2,2021.1.4,Win32,59.74429442,5cc58a0fa6e5a400014ea1fe,60d9d14f4a8a35a482e0d9bf,60edee5647867772ef1e38a1,,,,,,,,,,,,
"[""period""]",0,[0.22849999999999682],46,0,46,0,1,5cc58a0fa6e5a400014ea1fe,Kobieta,23,2021-07-13_21h50.05.613,rantool2,2021.1.4,Win32,59.74429442,5cc58a0fa6e5a400014ea1fe,60d9d14f4a8a35a482e0d9bf,60edee5647867772ef1e38a1,,,,,,,,,,,,
"[""comma""]",0,[0.13080000019073168],47,0,47,0,1,5cc58a0fa6e5a400014ea1fe,Kobieta,23,2021-07-13_21h50.05.613,rantool2,2021.1.4,Win32,59.74429442,5cc58a0fa6e5a400014ea1fe,60d9d14f4a8a35a482e0d9bf,60edee5647867772ef1e38a1,,,,,,,,,,,,
"[""period""]",0,[0.23500000000001364],48,0,48,0,1,5cc58a0fa6e5a400014ea1fe,Kobieta,23,2021-07-13_21h50.05.613,rantool2,2021.1.4,Win32,59.74429442,5cc58a0fa6e5a400014ea1fe,60d9d14f4a8a35a482e0d9bf,60edee5647867772ef1e38a1,,,,,,,,,,,,
"[""comma"",""period""]",0,"[0.053700000047683716,1.9330000000000211]",49,0,49,0,1,5cc58a0fa6e5a400014ea1fe,Kobieta,23,2021-07-13_21h50.05.613,rantool2,2021.1.4,Win32,59.74429442,5cc58a0fa6e5a400014ea1fe,60d9d14f4a8a35a482e0d9bf,60edee5647867772ef1e38a1,,,,,,,,,,,,
0,0,,50,0,50,0,1,5cc58a0fa6e5a400014ea1fe,Kobieta,23,2021-07-13_21h50.05.613,rantool2,2021.1.4,Win32,59.74429442,5cc58a0fa6e5a400014ea1fe,60d9d14f4a8a35a482e0d9bf,60edee5647867772ef1e38a1,,,,,,,,,,,,
"[""comma""]",0,[0.01009999990463939],51,0,51,0,1,5cc58a0fa6e5a400014ea1fe,Kobieta,23,2021-07-13_21h50.05.613,rantool2,2021.1.4,Win32,59.74429442,5cc58a0fa6e5a400014ea1fe,60d9d14f4a8a35a482e0d9bf,60edee5647867772ef1e38a1,,,,,,,,,,,,
"[""period""]",0,[0.055400000095374935],52,0,52,0,1,5cc58a0fa6e5a400014ea1fe,Kobieta,23,2021-07-13_21h50.05.613,rantool2,2021.1.4,Win32,59.74429442,5cc58a0fa6e5a400014ea1fe,60d9d14f4a8a35a482e0d9bf,60edee5647867772ef1e38a1,,,,,,,,,,,,
"[""comma""]",0,[0.23739999985696159],53,0,53,0,1,5cc58a0fa6e5a400014ea1fe,Kobieta,23,2021-07-13_21h50.05.613,rantool2,2021.1.4,Win32,59.74429442,5cc58a0fa6e5a400014ea1fe,60d9d14f4a8a35a482e0d9bf,60edee5647867772ef1e38a1,,,,,,,,,,,,
"[""period""]",0,[0.20050000000000523],54,0,54,0,1,5cc58a0fa6e5a400014ea1fe,Kobieta,23,2021-07-13_21h50.05.613,rantool2,2021.1.4,Win32,59.74429442,5cc58a0fa6e5a400014ea1fe,60d9d14f4a8a35a482e0d9bf,60edee5647867772ef1e38a1,,,,,,,,,,,,
"[""comma""]",0,[0.2967000000476787],55,0,55,0,1,5cc58a0fa6e5a400014ea1fe,Kobieta,23,2021-07-13_21h50.05.613,rantool2,2021.1.4,Win32,59.74429442,5cc58a0fa6e5a400014ea1fe,60d9d14f4a8a35a482e0d9bf,60edee5647867772ef1e38a1,,,,,,,,,,,,
"[""period""]",0,[0.2505000000000166],56,0,56,0,1,5cc58a0fa6e5a400014ea1fe,Kobieta,23,2021-07-13_21h50.05.613,rantool2,2021.1.4,Win32,59.74429442,5cc58a0fa6e5a400014ea1fe,60d9d14f4a8a35a482e0d9bf,60edee5647867772ef1e38a1,,,,,,,,,,,,
"[""comma""]",0,[0.2503999998569384],57,0,57,0,1,5cc58a0fa6e5a400014ea1fe,Kobieta,23,2021-07-13_21h50.05.613,rantool2,2021.1.4,Win32,59.74429442,5cc58a0fa6e5a400014ea1fe,60d9d14f4a8a35a482e0d9bf,60edee5647867772ef1e38a1,,,,,,,,,,,,
"[""period""]",0,[0.23349999999999227],58,0,58,0,1,5cc58a0fa6e5a400014ea1fe,Kobieta,23,2021-07-13_21h50.05.613,rantool2,2021.1.4,Win32,59.74429442,5cc58a0fa6e5a400014ea1fe,60d9d14f4a8a35a482e0d9bf,60edee5647867772ef1e38a1,,,,,,,,,,,,
"[""comma"",""period""]",0,"[0.060000000000002274,1.9662999999523265]",59,0,59,0,1,5cc58a0fa6e5a400014ea1fe,Kobieta,23,2021-07-13_21h50.05.613,rantool2,2021.1.4,Win32,59.74429442,5cc58a0fa6e5a400014ea1fe,60d9d14f4a8a35a482e0d9bf,60edee5647867772ef1e38a1,,,,,,,,,,,,
"[""comma""]",0,[1.8616000001430564],60,0,60,0,1,5cc58a0fa6e5a400014ea1fe,Kobieta,23,2021-07-13_21h50.05.613,rantool2,2021.1.4,Win32,59.74429442,5cc58a0fa6e5a400014ea1fe,60d9d14f4a8a35a482e0d9bf,60edee5647867772ef1e38a1,,,,,,,,,,,,
0,0,,61,0,61,0,1,5cc58a0fa6e5a400014ea1fe,Kobieta,23,2021-07-13_21h50.05.613,rantool2,2021.1.4,Win32,59.74429442,5cc58a0fa6e5a400014ea1fe,60d9d14f4a8a35a482e0d9bf,60edee5647867772ef1e38a1,,,,,,,,,,,,
"[""period""]",0,[0.3189999999999884],62,0,62,0,1,5cc58a0fa6e5a400014ea1fe,Kobieta,23,2021-07-13_21h50.05.613,rantool2,2021.1.4,Win32,59.74429442,5cc58a0fa6e5a400014ea1fe,60d9d14f4a8a35a482e0d9bf,60edee5647867772ef1e38a1,,,,,,,,,,,,
"[""comma""]",0,[0.3102000000476721],63,0,63,0,1,5cc58a0fa6e5a400014ea1fe,Kobieta,23,2021-07-13_21h50.05.613,rantool2,2021.1.4,Win32,59.74429442,5cc58a0fa6e5a400014ea1fe,60d9d14f4a8a35a482e0d9bf,60edee5647867772ef1e38a1,,,,,,,,,,,,
"[""period""]",0,[0.3170000000000073],64,0,64,0,1,5cc58a0fa6e5a400014ea1fe,Kobieta,23,2021-07-13_21h50.05.613,rantool2,2021.1.4,Win32,59.74429442,5cc58a0fa6e5a400014ea1fe,60d9d14f4a8a35a482e0d9bf,60edee5647867772ef1e38a1,,,,,,,,,,,,
"[""comma""]",0,[0.3171999998092474],65,0,65,0,1,5cc58a0fa6e5a400014ea1fe,Kobieta,23,2021-07-13_21h50.05.613,rantool2,2021.1.4,Win32,59.74429442,5cc58a0fa6e5a400014ea1fe,60d9d14f4a8a35a482e0d9bf,60edee5647867772ef1e38a1,,,,,,,,,,,,
"[""period""]",0,[0.3004000000953795],66,0,66,0,1,5cc58a0fa6e5a400014ea1fe,Kobieta,23,2021-07-13_21h50.05.613,rantool2,2021.1.4,Win32,59.74429442,5cc58a0fa6e5a400014ea1fe,60d9d14f4a8a35a482e0d9bf,60edee5647867772ef1e38a1,,,,,,,,,,,,
"[""comma""]",0,[0.2722000000476896],67,0,67,0,1,5cc58a0fa6e5a400014ea1fe,Kobieta,23,2021-07-13_21h50.05.613,rantool2,2021.1.4,Win32,59.74429442,5cc58a0fa6e5a400014ea1fe,60d9d14f4a8a35a482e0d9bf,60edee5647867772ef1e38a1,,,,,,,,,,,,
"[""period""]",0,[0.28520000004769486],68,0,68,0,1,5cc58a0fa6e5a400014ea1fe,Kobieta,23,2021-07-13_21h50.05.613,rantool2,2021.1.4,Win32,59.74429442,5cc58a0fa6e5a400014ea1fe,60d9d14f4a8a35a482e0d9bf,60edee5647867772ef1e38a1,,,,,,,,,,,,
"[""comma""]",0,[0.31670000004768895],69,0,69,0,1,5cc58a0fa6e5a400014ea1fe,Kobieta,23,2021-07-13_21h50.05.613,rantool2,2021.1.4,Win32,59.74429442,5cc58a0fa6e5a400014ea1fe,60d9d14f4a8a35a482e0d9bf,60edee5647867772ef1e38a1,,,,,,,,,,,,
"[""period""]",0,[0.2473999998569525],70,0,70,0,1,5cc58a0fa6e5a400014ea1fe,Kobieta,23,2021-07-13_21h50.05.613,rantool2,2021.1.4,Win32,59.74429442,5cc58a0fa6e5a400014ea1fe,60d9d14f4a8a35a482e0d9bf,60edee5647867772ef1e38a1,,,,,,,,,,,,
"[""comma""]",0,[0.2767000000476969],71,0,71,0,1,5cc58a0fa6e5a400014ea1fe,Kobieta,23,2021-07-13_21h50.05.613,rantool2,2021.1.4,Win32,59.74429442,5cc58a0fa6e5a400014ea1fe,60d9d14f4a8a35a482e0d9bf,60edee5647867772ef1e38a1,,,,,,,,,,,,
"[""period""]",0,[0.23429999995229878],72,0,72,0,1,5cc58a0fa6e5a400014ea1fe,Kobieta,23,2021-07-13_21h50.05.613,rantool2,2021.1.4,Win32,59.74429442,5cc58a0fa6e5a400014ea1fe,60d9d14f4a8a35a482e0d9bf,60edee5647867772ef1e38a1,,,,,,,,,,,,
"[""comma""]",0,[0.2839999999999918],73,0,73,0,1,5cc58a0fa6e5a400014ea1fe,Kobieta,23,2021-07-13_21h50.05.613,rantool2,2021.1.4,Win32,59.74429442,5cc58a0fa6e5a400014ea1fe,60d9d14f4a8a35a482e0d9bf,60edee5647867772ef1e38a1,,,,,,,,,,,,
"[""period""]",0,[0.21660000014304615],74,0,74,0,1,5cc58a0fa6e5a400014ea1fe,Kobieta,23,2021-07-13_21h50.05.613,rantool2,2021.1.4,Win32,59.74429442,5cc58a0fa6e5a400014ea1fe,60d9d14f4a8a35a482e0d9bf,60edee5647867772ef1e38a1,,,,,,,,,,,,
"[""comma""]",0,[0.4715999999046403],75,0,75,0,1,5cc58a0fa6e5a400014ea1fe,Kobieta,23,2021-07-13_21h50.05.613,rantool2,2021.1.4,Win32,59.74429442,5cc58a0fa6e5a400014ea1fe,60d9d14f4a8a35a482e0d9bf,60edee5647867772ef1e38a1,,,,,,,,,,,,
"[""period""]",0,[0.2943999998569211],76,0,76,0,1,5cc58a0fa6e5a400014ea1fe,Kobieta,23,2021-07-13_21h50.05.613,rantool2,2021.1.4,Win32,59.74429442,5cc58a0fa6e5a400014ea1fe,60d9d14f4a8a35a482e0d9bf,60edee5647867772ef1e38a1,,,,,,,,,,,,
"[""comma""]",0,[0.6197999999523063],77,0,77,0,1,5cc58a0fa6e5a400014ea1fe,Kobieta,23,2021-07-13_21h50.05.613,rantool2,2021.1.4,Win32,59.74429442,5cc58a0fa6e5a400014ea1fe,60d9d14f4a8a35a482e0d9bf,60edee5647867772ef1e38a1,,,,,,,,,,,,
"[""period""]",0,[0.4260999999046362],78,0,78,0,1,5cc58a0fa6e5a400014ea1fe,Kobieta,23,2021-07-13_21h50.05.613,rantool2,2021.1.4,Win32,59.74429442,5cc58a0fa6e5a400014ea1fe,60d9d14f4a8a35a482e0d9bf,60edee5647867772ef1e38a1,,,,,,,,,,,,
"[""comma""]",0,[0.3170000000000073],79,0,79,0,1,5cc58a0fa6e5a400014ea1fe,Kobieta,23,2021-07-13_21h50.05.613,rantool2,2021.1.4,Win32,59.74429442,5cc58a0fa6e5a400014ea1fe,60d9d14f4a8a35a482e0d9bf,60edee5647867772ef1e38a1,,,,,,,,,,,,
"[""period""]",0,[0.2727000000476778],80,0,80,0,1,5cc58a0fa6e5a400014ea1fe,Kobieta,23,2021-07-13_21h50.05.613,rantool2,2021.1.4,Win32,59.74429442,5cc58a0fa6e5a400014ea1fe,60d9d14f4a8a35a482e0d9bf,60edee5647867772ef1e38a1,,,,,,,,,,,,
"[""comma""]",0,[0.35029999995231265],81,0,81,0,1,5cc58a0fa6e5a400014ea1fe,Kobieta,23,2021-07-13_21h50.05.613,rantool2,2021.1.4,Win32,59.74429442,5cc58a0fa6e5a400014ea1fe,60d9d14f4a8a35a482e0d9bf,60edee5647867772ef1e38a1,,,,,,,,,,,,
"[""period""]",0,[0.2337999999523106],82,0,82,0,1,5cc58a0fa6e5a400014ea1fe,Kobieta,23,2021-07-13_21h50.05.613,rantool2,2021.1.4,Win32,59.74429442,5cc58a0fa6e5a400014ea1fe,60d9d14f4a8a35a482e0d9bf,60edee5647867772ef1e38a1,,,,,,,,,,,,
"[""comma""]",0,[0.17949999999999022],83,0,83,0,1,5cc58a0fa6e5a400014ea1fe,Kobieta,23,2021-07-13_21h50.05.613,rantool2,2021.1.4,Win32,59.74429442,5cc58a0fa6e5a400014ea1fe,60d9d14f4a8a35a482e0d9bf,60edee5647867772ef1e38a1,,,,,,,,,,,,
"[""period""]",0,[0.2834000000953836],84,0,84,0,1,5cc58a0fa6e5a400014ea1fe,Kobieta,23,2021-07-13_21h50.05.613,rantool2,2021.1.4,Win32,59.74429442,5cc58a0fa6e5a400014ea1fe,60d9d14f4a8a35a482e0d9bf,60edee5647867772ef1e38a1,,,,,,,,,,,,
"[""comma""]",0,[0.6210000000000093],85,0,85,0,1,5cc58a0fa6e5a400014ea1fe,Kobieta,23,2021-07-13_21h50.05.613,rantool2,2021.1.4,Win32,59.74429442,5cc58a0fa6e5a400014ea1fe,60d9d14f4a8a35a482e0d9bf,60edee5647867772ef1e38a1,,,,,,,,,,,,
"[""period""]",0,[0.400299999952324],86,0,86,0,1,5cc58a0fa6e5a400014ea1fe,Kobieta,23,2021-07-13_21h50.05.613,rantool2,2021.1.4,Win32,59.74429442,5cc58a0fa6e5a400014ea1fe,60d9d14f4a8a35a482e0d9bf,60edee5647867772ef1e38a1,,,,,,,,,,,,
"[""comma""]",0,[0.2797999999523313],87,0,87,0,1,5cc58a0fa6e5a400014ea1fe,Kobieta,23,2021-07-13_21h50.05.613,rantool2,2021.1.4,Win32,59.74429442,5cc58a0fa6e5a400014ea1fe,60d9d14f4a8a35a482e0d9bf,60edee5647867772ef1e38a1,,,,,,,,,,,,
"[""period""]",0,[0.34080000019073964],88,0,88,0,1,5cc58a0fa6e5a400014ea1fe,Kobieta,23,2021-07-13_21h50.05.613,rantool2,2021.1.4,Win32,59.74429442,5cc58a0fa6e5a400014ea1fe,60d9d14f4a8a35a482e0d9bf,60edee5647867772ef1e38a1,,,,,,,,,,,,
"[""comma""]",0,[0.5756999998092454],89,0,89,0,1,5cc58a0fa6e5a400014ea1fe,Kobieta,23,2021-07-13_21h50.05.613,rantool2,2021.1.4,Win32,59.74429442,5cc58a0fa6e5a400014ea1fe,60d9d14f4a8a35a482e0d9bf,60edee5647867772ef1e38a1,,,,,,,,,,,,
"[""period""]",0,[0.6029999999999802],90,0,90,0,1,5cc58a0fa6e5a400014ea1fe,Kobieta,23,2021-07-13_21h50.05.613,rantool2,2021.1.4,Win32,59.74429442,5cc58a0fa6e5a400014ea1fe,60d9d14f4a8a35a482e0d9bf,60edee5647867772ef1e38a1,,,,,,,,,,,,
"[""comma""]",0,[0.7168999998569348],91,0,91,0,1,5cc58a0fa6e5a400014ea1fe,Kobieta,23,2021-07-13_21h50.05.613,rantool2,2021.1.4,Win32,59.74429442,5cc58a0fa6e5a400014ea1fe,60d9d14f4a8a35a482e0d9bf,60edee5647867772ef1e38a1,,,,,,,,,,,,
"[""period""]",0,[1.0675000000000239],92,0,92,0,1,5cc58a0fa6e5a400014ea1fe,Kobieta,23,2021-07-13_21h50.05.613,rantool2,2021.1.4,Win32,59.74429442,5cc58a0fa6e5a400014ea1fe,60d9d14f4a8a35a482e0d9bf,60edee5647867772ef1e38a1,,,,,,,,,,,,
"[""comma""]",0,[0.9899999999999807],93,0,93,0,1,5cc58a0fa6e5a400014ea1fe,Kobieta,23,2021-07-13_21h50.05.613,rantool2,2021.1.4,Win32,59.74429442,5cc58a0fa6e5a400014ea1fe,60d9d14f4a8a35a482e0d9bf,60edee5647867772ef1e38a1,,,,,,,,,,,,
"[""period""]",0,[0.9275999999046292],94,0,94,0,1,5cc58a0fa6e5a400014ea1fe,Kobieta,23,2021-07-13_21h50.05.613,rantool2,2021.1.4,Win32,59.74429442,5cc58a0fa6e5a400014ea1fe,60d9d14f4a8a35a482e0d9bf,60edee5647867772ef1e38a1,,,,,,,,,,,,
"[""comma""]",0,[0.5503999998569498],95,0,95,0,1,5cc58a0fa6e5a400014ea1fe,Kobieta,23,2021-07-13_21h50.05.613,rantool2,2021.1.4,Win32,59.74429442,5cc58a0fa6e5a400014ea1fe,60d9d14f4a8a35a482e0d9bf,60edee5647867772ef1e38a1,,,,,,,,,,,,
"[""period""]",0,[0.3139000000953729],96,0,96,0,1,5cc58a0fa6e5a400014ea1fe,Kobieta,23,2021-07-13_21h50.05.613,rantool2,2021.1.4,Win32,59.74429442,5cc58a0fa6e5a400014ea1fe,60d9d14f4a8a35a482e0d9bf,60edee5647867772ef1e38a1,,,,,,,,,,,,
"[""comma""]",0,[0.28299999999998704],97,0,97,0,1,5cc58a0fa6e5a400014ea1fe,Kobieta,23,2021-07-13_21h50.05.613,rantool2,2021.1.4,Win32,59.74429442,5cc58a0fa6e5a400014ea1fe,60d9d14f4a8a35a482e0d9bf,60edee5647867772ef1e38a1,,,,,,,,,,,,
"[""period""]",0,[0.22460000014305592],98,0,98,0,1,5cc58a0fa6e5a400014ea1fe,Kobieta,23,2021-07-13_21h50.05.613,rantool2,2021.1.4,Win32,59.74429442,5cc58a0fa6e5a400014ea1fe,60d9d14f4a8a35a482e0d9bf,60edee5647867772ef1e38a1,,,,,,,,,,,,
"[""comma""]",0,[0.26029999995230924],99,0,99,0,1,5cc58a0fa6e5a400014ea1fe,Kobieta,23,2021-07-13_21h50.05.613,rantool2,2021.1.4,Win32,59.74429442,5cc58a0fa6e5a400014ea1fe,60d9d14f4a8a35a482e0d9bf,60edee5647867772ef1e38a1,,,,,,,,,,,,
"[""period""]",0,[0.28880000019074714],100,0,100,0,1,5cc58a0fa6e5a400014ea1fe,Kobieta,23,2021-07-13_21h50.05.613,rantool2,2021.1.4,Win32,59.74429442,5cc58a0fa6e5a400014ea1fe,60d9d14f4a8a35a482e0d9bf,60edee5647867772ef1e38a1,,,,,,,,,,,,
"[""comma""]",0,[0.18680000019074328],101,0,101,0,1,5cc58a0fa6e5a400014ea1fe,Kobieta,23,2021-07-13_21h50.05.613,rantool2,2021.1.4,Win32,59.74429442,5cc58a0fa6e5a400014ea1fe,60d9d14f4a8a35a482e0d9bf,60edee5647867772ef1e38a1,,,,,,,,,,,,
"[""period""]",0,[0.18650000000002365],102,0,102,0,1,5cc58a0fa6e5a400014ea1fe,Kobieta,23,2021-07-13_21h50.05.613,rantool2,2021.1.4,Win32,59.74429442,5cc58a0fa6e5a400014ea1fe,60d9d14f4a8a35a482e0d9bf,60edee5647867772ef1e38a1,,,,,,,,,,,,
"[""comma""]",0,[0.13379999995231628],103,0,103,0,1,5cc58a0fa6e5a400014ea1fe,Kobieta,23,2021-07-13_21h50.05.613,rantool2,2021.1.4,Win32,59.74429442,5cc58a0fa6e5a400014ea1fe,60d9d14f4a8a35a482e0d9bf,60edee5647867772ef1e38a1,,,,,,,,,,,,
"[""period""]",0,[0.2622999999523472],104,0,104,0,1,5cc58a0fa6e5a400014ea1fe,Kobieta,23,2021-07-13_21h50.05.613,rantool2,2021.1.4,Win32,59.74429442,5cc58a0fa6e5a400014ea1fe,60d9d14f4a8a35a482e0d9bf,60edee5647867772ef1e38a1,,,,,,,,,,,,
"[""comma""]",0,[0.25799999999998136],105,0,105,0,1,5cc58a0fa6e5a400014ea1fe,Kobieta,23,2021-07-13_21h50.05.613,rantool2,2021.1.4,Win32,59.74429442,5cc58a0fa6e5a400014ea1fe,60d9d14f4a8a35a482e0d9bf,60edee5647867772ef1e38a1,,,,,,,,,,,,
"[""period""]",0,[0.2997999999523131],106,0,106,0,1,5cc58a0fa6e5a400014ea1fe,Kobieta,23,2021-07-13_21h50.05.613,rantool2,2021.1.4,Win32,59.74429442,5cc58a0fa6e5a400014ea1fe,60d9d14f4a8a35a482e0d9bf,60edee5647867772ef1e38a1,,,,,,,,,,,,
"[""comma""]",0,[0.24500000000000455],107,0,107,0,1,5cc58a0fa6e5a400014ea1fe,Kobieta,23,2021-07-13_21h50.05.613,rantool2,2021.1.4,Win32,59.74429442,5cc58a0fa6e5a400014ea1fe,60d9d14f4a8a35a482e0d9bf,60edee5647867772ef1e38a1,,,,,,,,,,,,
"[""period""]",0,[0.2857000000476546],108,0,108,0,1,5cc58a0fa6e5a400014ea1fe,Kobieta,23,2021-07-13_21h50.05.613,rantool2,2021.1.4,Win32,59.74429442,5cc58a0fa6e5a400014ea1fe,60d9d14f4a8a35a482e0d9bf,60edee5647867772ef1e38a1,,,,,,,,,,,,
"[""comma""]",0,[0.2637000000477201],109,0,109,0,1,5cc58a0fa6e5a400014ea1fe,Kobieta,23,2021-07-13_21h50.05.613,rantool2,2021.1.4,Win32,59.74429442,5cc58a0fa6e5a400014ea1fe,60d9d14f4a8a35a482e0d9bf,60edee5647867772ef1e38a1,,,,,,,,,,,,
"[""period""]",0,[0.3037000000476837],110,0,110,0,1,5cc58a0fa6e5a400014ea1fe,Kobieta,23,2021-07-13_21h50.05.613,rantool2,2021.1.4,Win32,59.74429442,5cc58a0fa6e5a400014ea1fe,60d9d14f4a8a35a482e0d9bf,60edee5647867772ef1e38a1,,,,,,,,,,,,
"[""comma""]",0,[0.291499999999985],111,0,111,0,1,5cc58a0fa6e5a400014ea1fe,Kobieta,23,2021-07-13_21h50.05.613,rantool2,2021.1.4,Win32,59.74429442,5cc58a0fa6e5a400014ea1fe,60d9d14f4a8a35a482e0d9bf,60edee5647867772ef1e38a1,,,,,,,,,,,,
"[""period""]",0,[0.2800999999046212],112,0,112,0,1,5cc58a0fa6e5a400014ea1fe,Kobieta,23,2021-07-13_21h50.05.613,rantool2,2021.1.4,Win32,59.74429442,5cc58a0fa6e5a400014ea1fe,60d9d14f4a8a35a482e0d9bf,60edee5647867772ef1e38a1,,,,,,,,,,,,
"[""comma""]",0,[0.26729999995234266],113,0,113,0,1,5cc58a0fa6e5a400014ea1fe,Kobieta,23,2021-07-13_21h50.05.613,rantool2,2021.1.4,Win32,59.74429442,5cc58a0fa6e5a400014ea1fe,60d9d14f4a8a35a482e0d9bf,60edee5647867772ef1e38a1,,,,,,,,,,,,
"[""period""]",0,[0.280200000047671],114,0,114,0,1,5cc58a0fa6e5a400014ea1fe,Kobieta,23,2021-07-13_21h50.05.613,rantool2,2021.1.4,Win32,59.74429442,5cc58a0fa6e5a400014ea1fe,60d9d14f4a8a35a482e0d9bf,60edee5647867772ef1e38a1,,,,,,,,,,,,
"[""comma""]",0,[0.3024000000953606],115,0,115,0,1,5cc58a0fa6e5a400014ea1fe,Kobieta,23,2021-07-13_21h50.05.613,rantool2,2021.1.4,Win32,59.74429442,5cc58a0fa6e5a400014ea1fe,60d9d14f4a8a35a482e0d9bf,60edee5647867772ef1e38a1,,,,,,,,,,,,
"[""period""]",0,[0.25639999985696704],116,0,116,0,1,5cc58a0fa6e5a400014ea1fe,Kobieta,23,2021-07-13_21h50.05.613,rantool2,2021.1.4,Win32,59.74429442,5cc58a0fa6e5a400014ea1fe,60d9d14f4a8a35a482e0d9bf,60edee5647867772ef1e38a1,,,,,,,,,,,,
"[""comma""]",0,[0.28769999980926286],117,0,117,0,1,5cc58a0fa6e5a400014ea1fe,Kobieta,23,2021-07-13_21h50.05.613,rantool2,2021.1.4,Win32,59.74429442,5cc58a0fa6e5a400014ea1fe,60d9d14f4a8a35a482e0d9bf,60edee5647867772ef1e38a1,,,,,,,,,,,,
"[""period""]",0,[0.2559999999999718],118,0,118,0,1,5cc58a0fa6e5a400014ea1fe,Kobieta,23,2021-07-13_21h50.05.613,rantool2,2021.1.4,Win32,59.74429442,5cc58a0fa6e5a400014ea1fe,60d9d14f4a8a35a482e0d9bf,60edee5647867772ef1e38a1,,,,,,,,,,,,
"[""comma""]",0,[0.28329999995230537],119,0,119,0,1,5cc58a0fa6e5a400014ea1fe,Kobieta,23,2021-07-13_21h50.05.613,rantool2,2021.1.4,Win32,59.74429442,5cc58a0fa6e5a400014ea1fe,60d9d14f4a8a35a482e0d9bf,60edee5647867772ef1e38a1,,,,,,,,,,,,
,,,,,,,,5cc58a0fa6e5a400014ea1fe,Kobieta,23,2021-07-13_21h50.05.613,rantool2,2021.1.4,Win32,59.74429442,5cc58a0fa6e5a400014ea1fe,60d9d14f4a8a35a482e0d9bf,60edee5647867772ef1e38a1,j,1.1432,0,0,0,1,1,OOOOORO,OOOOORR,19.92253567,20.74050628,series_1
,,,,,,,,5cc58a0fa6e5a400014ea1fe,Kobieta,23,2021-07-13_21h50.05.613,rantool2,2021.1.4,Win32,59.74429442,5cc58a0fa6e5a400014ea1fe,60d9d14f4a8a35a482e0d9bf,60edee5647867772ef1e38a1,f,1.0291,0,1,1,3,1,OOOORRO,OOOORRR,20.90986523,21.74922619,series_1
,,,,,,,,5cc58a0fa6e5a400014ea1fe,Kobieta,23,2021-07-13_21h50.05.613,rantool2,2021.1.4,Win32,59.74429442,5cc58a0fa6e5a400014ea1fe,60d9d14f4a8a35a482e0d9bf,60edee5647867772ef1e38a1,j,1.1654,0,2,2,58,1,RRROROO,RRROROR,22.1285618,21.37121559,series_0
,,,,,,,,5cc58a0fa6e5a400014ea1fe,Kobieta,23,2021-07-13_21h50.05.613,rantool2,2021.1.4,Win32,59.74429442,5cc58a0fa6e5a400014ea1fe,60d9d14f4a8a35a482e0d9bf,60edee5647867772ef1e38a1,f,0.9572,0,3,3,27,1,ORRORRO,ORRORRR,21.55250791,22.2428857,series_1
,,,,,,,,5cc58a0fa6e5a400014ea1fe,Kobieta,23,2021-07-13_21h50.05.613,rantool2,2021.1.4,Win32,59.74429442,5cc58a0fa6e5a400014ea1fe,60d9d14f4a8a35a482e0d9bf,60edee5647867772ef1e38a1,f,0.9145,0,4,4,4,1,OOOROOO,OOOROOR,19.91402015,21.21223021,series_1
,,,,,,,,5cc58a0fa6e5a400014ea1fe,Kobieta,23,2021-07-13_21h50.05.613,rantool2,2021.1.4,Win32,59.74429442,5cc58a0fa6e5a400014ea1fe,60d9d14f4a8a35a482e0d9bf,60edee5647867772ef1e38a1,j,0.9327,0,5,5,51,1,RROORRO,RROORRR,21.89852628,22.02786418,series_1
,,,,,,,,5cc58a0fa6e5a400014ea1fe,Kobieta,23,2021-07-13_21h50.05.613,rantool2,2021.1.4,Win32,59.74429442,5cc58a0fa6e5a400014ea1fe,60d9d14f4a8a35a482e0d9bf,60edee5647867772ef1e38a1,f,1.1091,0,6,6,46,1,RORRROO,RORRROR,22.00300695,21.24781509,series_0
,,,,,,,,5cc58a0fa6e5a400014ea1fe,Kobieta,23,2021-07-13_21h50.05.613,rantool2,2021.1.4,Win32,59.74429442,5cc58a0fa6e5a400014ea1fe,60d9d14f4a8a35a482e0d9bf,60edee5647867772ef1e38a1,j,1.0758,0,7,7,40,1,ROROOOO,ROROOOR,20.87963819,21.37121559,series_1
,,,,,,,,5cc58a0fa6e5a400014ea1fe,Kobieta,23,2021-07-13_21h50.05.613,rantool2,2021.1.4,Win32,59.74429442,5cc58a0fa6e5a400014ea1fe,60d9d14f4a8a35a482e0d9bf,60edee5647867772ef1e38a1,f,1.5008,0,8,8,14,1,OORRROO,OORRROR,22.24142883,22.16977179,series_0
,,,,,,,,5cc58a0fa6e5a400014ea1fe,Kobieta,23,2021-07-13_21h50.05.613,rantool2,2021.1.4,Win32,59.74429442,5cc58a0fa6e5a400014ea1fe,60d9d14f4a8a35a482e0d9bf,60edee5647867772ef1e38a1,j,1.674,0,9,9,17,1,OROOORO,OROOORR,21.03750787,22.12173012,series_1
,,,,,,,,5cc58a0fa6e5a400014ea1fe,Kobieta,23,2021-07-13_21h50.05.613,rantool2,2021.1.4,Win32,59.74429442,5cc58a0fa6e5a400014ea1fe,60d9d14f4a8a35a482e0d9bf,60edee5647867772ef1e38a1,f,1.4517,0,10,10,53,1,RRORORO,RRORORR,20.71309134,21.90565814,series_1
,,,,,,,,5cc58a0fa6e5a400014ea1fe,Kobieta,23,2021-07-13_21h50.05.613,rantool2,2021.1.4,Win32,59.74429442,5cc58a0fa6e5a400014ea1fe,60d9d14f4a8a35a482e0d9bf,60edee5647867772ef1e38a1,j,1.2025,0,11,11,50,1,RROOROO,RROOROR,21.73568164,22.02566557,series_1
,,,,,,,,5cc58a0fa6e5a400014ea1fe,Kobieta,23,2021-07-13_21h50.05.613,rantool2,2021.1.4,Win32,59.74429442,5cc58a0fa6e5a400014ea1fe,60d9d14f4a8a35a482e0d9bf,60edee5647867772ef1e38a1,f,1.0331,0,12,12,49,1,RROOORO,RROOORR,21.76276513,22.53364006,series_1
,,,,,,,,5cc58a0fa6e5a400014ea1fe,Kobieta,23,2021-07-13_21h50.05.613,rantool2,2021.1.4,Win32,59.74429442,5cc58a0fa6e5a400014ea1fe,60d9d14f4a8a35a482e0d9bf,60edee5647867772ef1e38a1,j,1.0562,0,13,13,26,1,ORROROO,ORROROR,22.02732763,21.71443381,series_0
,,,,,,,,5cc58a0fa6e5a400014ea1fe,Kobieta,23,2021-07-13_21h50.05.613,rantool2,2021.1.4,Win32,59.74429442,5cc58a0fa6e5a400014ea1fe,60d9d14f4a8a35a482e0d9bf,60edee5647867772ef1e38a1,f,1.1642,0,14,14,35,1,ROOORRO,ROOORRR,21.76276513,22.16977179,series_1
,,,,,,,,5cc58a0fa6e5a400014ea1fe,Kobieta,23,2021-07-13_21h50.05.613,rantool2,2021.1.4,Win32,59.74429442,5cc58a0fa6e5a400014ea1fe,60d9d14f4a8a35a482e0d9bf,60edee5647867772ef1e38a1,j,1.0405,0,15,15,11,1,OORORRO,OORORRR,22.18365867,22.6797523,series_1
,,,,,,,,5cc58a0fa6e5a400014ea1fe,Kobieta,23,2021-07-13_21h50.05.613,rantool2,2021.1.4,Win32,59.74429442,5cc58a0fa6e5a400014ea1fe,60d9d14f4a8a35a482e0d9bf,60edee5647867772ef1e38a1,f,1.3251,0,16,16,0,1,OOOOOOO,OOOOOOR,18.52739004,19.62521613,series_1
,,,,,,,,5cc58a0fa6e5a400014ea1fe,Kobieta,23,2021-07-13_21h50.05.613,rantool2,2021.1.4,Win32,59.74429442,5cc58a0fa6e5a400014ea1fe,60d9d14f4a8a35a482e0d9bf,60edee5647867772ef1e38a1,f,1.1377,0,17,17,36,1,ROOROOO,ROOROOR,21.07991943,20.9984461,series_0
,,,,,,,,5cc58a0fa6e5a400014ea1fe,Kobieta,23,2021-07-13_21h50.05.613,rantool2,2021.1.4,Win32,59.74429442,5cc58a0fa6e5a400014ea1fe,60d9d14f4a8a35a482e0d9bf,60edee5647867772ef1e38a1,j,0.6683,0,18,18,37,1,ROORORO,ROORORR,20.42602454,21.57657071,series_1
,,,,,,,,5cc58a0fa6e5a400014ea1fe,Kobieta,23,2021-07-13_21h50.05.613,rantool2,2021.1.4,Win32,59.74429442,5cc58a0fa6e5a400014ea1fe,60d9d14f4a8a35a482e0d9bf,60edee5647867772ef1e38a1,f,0.7115,0,19,19,54,1,RRORROO,RRORROR,21.55250791,20.9984461,series_0
,,,,,,,,5cc58a0fa6e5a400014ea1fe,Kobieta,23,2021-07-13_21h50.05.613,rantool2,2021.1.4,Win32,59.74429442,5cc58a0fa6e5a400014ea1fe,60d9d14f4a8a35a482e0d9bf,60edee5647867772ef1e38a1,f,1.0829,0,20,20,20,1,OROROOO,OROROOR,21.31236711,21.90565814,series_1
,,,,,,,,5cc58a0fa6e5a400014ea1fe,Kobieta,23,2021-07-13_21h50.05.613,rantool2,2021.1.4,Win32,59.74429442,5cc58a0fa6e5a400014ea1fe,60d9d14f4a8a35a482e0d9bf,60edee5647867772ef1e38a1,f,1.1171,0,21,21,25,1,ORROORO,ORROORR,21.79500819,22.61624387,series_1
,,,,,,,,5cc58a0fa6e5a400014ea1fe,Kobieta,23,2021-07-13_21h50.05.613,rantool2,2021.1.4,Win32,59.74429442,5cc58a0fa6e5a400014ea1fe,60d9d14f4a8a35a482e0d9bf,60edee5647867772ef1e38a1,f,1.166,0,22,22,21,1,ORORORO,ORORORR,20.39515459,22.06781359,series_1
,,,,,,,,5cc58a0fa6e5a400014ea1fe,Kobieta,23,2021-07-13_21h50.05.613,rantool2,2021.1.4,Win32,59.74429442,5cc58a0fa6e5a400014ea1fe,60d9d14f4a8a35a482e0d9bf,60edee5647867772ef1e38a1,j,0.9256,0,23,23,43,1,RORORRO,RORORRR,20.71309134,21.07490964,series_1
,,,,,,,,5cc58a0fa6e5a400014ea1fe,Kobieta,23,2021-07-13_21h50.05.613,rantool2,2021.1.4,Win32,59.74429442,5cc58a0fa6e5a400014ea1fe,60d9d14f4a8a35a482e0d9bf,60edee5647867772ef1e38a1,f,0.7163,0,24,24,44,1,RORROOO,RORROOR,21.66733484,22.02566557,series_1
,,,,,,,,5cc58a0fa6e5a400014ea1fe,Kobieta,23,2021-07-13_21h50.05.613,rantool2,2021.1.4,Win32,59.74429442,5cc58a0fa6e5a400014ea1fe,60d9d14f4a8a35a482e0d9bf,60edee5647867772ef1e38a1,f,1.4699,0,25,25,60,1,RRRROOO,RRRROOR,22.10108823,22.15934078,series_1
,,,,,,,,5cc58a0fa6e5a400014ea1fe,Kobieta,23,2021-07-13_21h50.05.613,rantool2,2021.1.4,Win32,59.74429442,5cc58a0fa6e5a400014ea1fe,60d9d14f4a8a35a482e0d9bf,60edee5647867772ef1e38a1,j,0.4857,0,26,26,15,1,OORRRRO,OORRRRR,22.10108823,21.74922619,series_0
,,,,,,,,5cc58a0fa6e5a400014ea1fe,Kobieta,23,2021-07-13_21h50.05.613,rantool2,2021.1.4,Win32,59.74429442,5cc58a0fa6e5a400014ea1fe,60d9d14f4a8a35a482e0d9bf,60edee5647867772ef1e38a1,f,1.2564,0,27,27,33,1,ROOOORO,ROOOORR,20.83779602,22.03072203,series_1
,,,,,,,,5cc58a0fa6e5a400014ea1fe,Kobieta,23,2021-07-13_21h50.05.613,rantool2,2021.1.4,Win32,59.74429442,5cc58a0fa6e5a400014ea1fe,60d9d14f4a8a35a482e0d9bf,60edee5647867772ef1e38a1,j,0.4668,0,28,28,61,1,RRRRORO,RRRRORR,21.81333602,21.17347734,series_0
,,,,,,,,5cc58a0fa6e5a400014ea1fe,Kobieta,23,2021-07-13_21h50.05.613,rantool2,2021.1.4,Win32,59.74429442,5cc58a0fa6e5a400014ea1fe,60d9d14f4a8a35a482e0d9bf,60edee5647867772ef1e38a1,f,2.0365,0,29,29,59,1,RRRORRO,RRRORRR,21.56657303,20.89823192,series_0
,,,,,,,,5cc58a0fa6e5a400014ea1fe,Kobieta,23,2021-07-13_21h50.05.613,rantool2,2021.1.4,Win32,59.74429442,5cc58a0fa6e5a400014ea1fe,60d9d14f4a8a35a482e0d9bf,60edee5647867772ef1e38a1,j,0.904,0,30,30,16,1,OROOOOO,OROOOOR,20.43051175,21.17347734,series_1
,,,,,,,,5cc58a0fa6e5a400014ea1fe,Kobieta,23,2021-07-13_21h50.05.613,rantool2,2021.1.4,Win32,59.74429442,5cc58a0fa6e5a400014ea1fe,60d9d14f4a8a35a482e0d9bf,60edee5647867772ef1e38a1,f,0.7735,0,31,31,62,1,RRRRROO,RRRRROR,22.16413392,21.27974287,series_0
,,,,,,,,5cc58a0fa6e5a400014ea1fe,Kobieta,23,2021-07-13_21h50.05.613,rantool2,2021.1.4,Win32,59.74429442,5cc58a0fa6e5a400014ea1fe,60d9d14f4a8a35a482e0d9bf,60edee5647867772ef1e38a1,j,0.6279,0,32,32,8,1,OOROOOO,OOROOOR,19.91402015,20.89823192,series_1
,,,,,,,,5cc58a0fa6e5a400014ea1fe,Kobieta,23,2021-07-13_21h50.05.613,rantool2,2021.1.4,Win32,59.74429442,5cc58a0fa6e5a400014ea1fe,60d9d14f4a8a35a482e0d9bf,60edee5647867772ef1e38a1,f,1.2747,0,33,33,22,1,ORORROO,ORORROR,22.02732763,21.57657071,series_0
,,,,,,,,5cc58a0fa6e5a400014ea1fe,Kobieta,23,2021-07-13_21h50.05.613,rantool2,2021.1.4,Win32,59.74429442,5cc58a0fa6e5a400014ea1fe,60d9d14f4a8a35a482e0d9bf,60edee5647867772ef1e38a1,f,1.1994,0,34,34,41,1,ROROORO,ROROORR,20.42602454,21.71443381,series_1
,,,,,,,,5cc58a0fa6e5a400014ea1fe,Kobieta,23,2021-07-13_21h50.05.613,rantool2,2021.1.4,Win32,59.74429442,5cc58a0fa6e5a400014ea1fe,60d9d14f4a8a35a482e0d9bf,60edee5647867772ef1e38a1,j,0.4789,0,35,35,57,1,RRROORO,RRROORR,21.82425538,22.07102821,series_1
,,,,,,,,5cc58a0fa6e5a400014ea1fe,Kobieta,23,2021-07-13_21h50.05.613,rantool2,2021.1.4,Win32,59.74429442,5cc58a0fa6e5a400014ea1fe,60d9d14f4a8a35a482e0d9bf,60edee5647867772ef1e38a1,f,1.4099,0,36,36,48,1,RROOOOO,RROOOOR,20.90986523,22.15934078,series_1
,,,,,,,,5cc58a0fa6e5a400014ea1fe,Kobieta,23,2021-07-13_21h50.05.613,rantool2,2021.1.4,Win32,59.74429442,5cc58a0fa6e5a400014ea1fe,60d9d14f4a8a35a482e0d9bf,60edee5647867772ef1e38a1,j,0.7428,0,37,37,55,1,RRORRRO,RRORRRR,21.56657303,21.21223021,series_0
,,,,,,,,5cc58a0fa6e5a400014ea1fe,Kobieta,23,2021-07-13_21h50.05.613,rantool2,2021.1.4,Win32,59.74429442,5cc58a0fa6e5a400014ea1fe,60d9d14f4a8a35a482e0d9bf,60edee5647867772ef1e38a1,f,0.8608,0,38,38,38,1,ROORROO,ROORROR,21.79500819,21.36812781,series_0
,,,,,,,,5cc58a0fa6e5a400014ea1fe,Kobieta,23,2021-07-13_21h50.05.613,rantool2,2021.1.4,Win32,59.74429442,5cc58a0fa6e5a400014ea1fe,60d9d14f4a8a35a482e0d9bf,60edee5647867772ef1e38a1,j,0.6997,0,39,39,19,1,OROORRO,OROORRR,21.73568164,22.11181017,series_1
,,,,,,,,5cc58a0fa6e5a400014ea1fe,Kobieta,23,2021-07-13_21h50.05.613,rantool2,2021.1.4,Win32,59.74429442,5cc58a0fa6e5a400014ea1fe,60d9d14f4a8a35a482e0d9bf,60edee5647867772ef1e38a1,f,0.8788,0,40,40,47,1,RORRRRO,RORRRRR,21.81333602,21.02936224,series_0
,,,,,,,,5cc58a0fa6e5a400014ea1fe,Kobieta,23,2021-07-13_21h50.05.613,rantool2,2021.1.4,Win32,59.74429442,5cc58a0fa6e5a400014ea1fe,60d9d14f4a8a35a482e0d9bf,60edee5647867772ef1e38a1,j,0.6792,0,41,41,24,1,ORROOOO,ORROOOR,21.12383932,22.07102821,series_1
,,,,,,,,5cc58a0fa6e5a400014ea1fe,Kobieta,23,2021-07-13_21h50.05.613,rantool2,2021.1.4,Win32,59.74429442,5cc58a0fa6e5a400014ea1fe,60d9d14f4a8a35a482e0d9bf,60edee5647867772ef1e38a1,f,0.9665,0,42,42,5,1,OOORORO,OOORORR,20.87963819,21.9921709,series_1
,,,,,,,,5cc58a0fa6e5a400014ea1fe,Kobieta,23,2021-07-13_21h50.05.613,rantool2,2021.1.4,Win32,59.74429442,5cc58a0fa6e5a400014ea1fe,60d9d14f4a8a35a482e0d9bf,60edee5647867772ef1e38a1,f,0.4951,0,43,43,9,1,OOROORO,OOROORR,21.07991943,22.2428857,series_1
,,,,,,,,5cc58a0fa6e5a400014ea1fe,Kobieta,23,2021-07-13_21h50.05.613,rantool2,2021.1.4,Win32,59.74429442,5cc58a0fa6e5a400014ea1fe,60d9d14f4a8a35a482e0d9bf,60edee5647867772ef1e38a1,j,0.4162,0,44,44,31,1,ORRRRRO,ORRRRRR,22.16413392,20.74050628,series_0
,,,,,,,,5cc58a0fa6e5a400014ea1fe,Kobieta,23,2021-07-13_21h50.05.613,rantool2,2021.1.4,Win32,59.74429442,5cc58a0fa6e5a400014ea1fe,60d9d14f4a8a35a482e0d9bf,60edee5647867772ef1e38a1,f,1.2528,0,45,45,56,1,RRROOOO,RRROOOR,21.6194508,22.31681875,series_1
,,,,,,,,5cc58a0fa6e5a400014ea1fe,Kobieta,23,2021-07-13_21h50.05.613,rantool2,2021.1.4,Win32,59.74429442,5cc58a0fa6e5a400014ea1fe,60d9d14f4a8a35a482e0d9bf,60edee5647867772ef1e38a1,j,1.2957,0,46,46,12,1,OORROOO,OORROOR,21.30250474,22.02786418,series_1
,,,,,,,,5cc58a0fa6e5a400014ea1fe,Kobieta,23,2021-07-13_21h50.05.613,rantool2,2021.1.4,Win32,59.74429442,5cc58a0fa6e5a400014ea1fe,60d9d14f4a8a35a482e0d9bf,60edee5647867772ef1e38a1,f,0.816,0,47,47,30,1,ORRRROO,ORRRROR,22.46748491,22.03072203,series_0
,,,,,,,,5cc58a0fa6e5a400014ea1fe,Kobieta,23,2021-07-13_21h50.05.613,rantool2,2021.1.4,Win32,59.74429442,5cc58a0fa6e5a400014ea1fe,60d9d14f4a8a35a482e0d9bf,60edee5647867772ef1e38a1,j,0.901,0,48,48,2,1,OOOOROO,OOOOROR,20.43051175,21.02936224,series_1
,,,,,,,,5cc58a0fa6e5a400014ea1fe,Kobieta,23,2021-07-13_21h50.05.613,rantool2,2021.1.4,Win32,59.74429442,5cc58a0fa6e5a400014ea1fe,60d9d14f4a8a35a482e0d9bf,60edee5647867772ef1e38a1,f,0.7497,0,49,49,7,1,OOORRRO,OOORRRR,21.6194508,21.899017,series_1
,,,,,,,,5cc58a0fa6e5a400014ea1fe,Kobieta,23,2021-07-13_21h50.05.613,rantool2,2021.1.4,Win32,59.74429442,5cc58a0fa6e5a400014ea1fe,60d9d14f4a8a35a482e0d9bf,60edee5647867772ef1e38a1,f,0.5164,0,50,50,29,1,ORRRORO,ORRRORR,22.00300695,22.12173012,series_1
,,,,,,,,5cc58a0fa6e5a400014ea1fe,Kobieta,23,2021-07-13_21h50.05.613,rantool2,2021.1.4,Win32,59.74429442,5cc58a0fa6e5a400014ea1fe,60d9d14f4a8a35a482e0d9bf,60edee5647867772ef1e38a1,f,0.3174,0,51,51,45,1,RORRORO,RORRORR,20.78182524,21.22513037,series_1
,,,,,,,,5cc58a0fa6e5a400014ea1fe,Kobieta,23,2021-07-13_21h50.05.613,rantool2,2021.1.4,Win32,59.74429442,5cc58a0fa6e5a400014ea1fe,60d9d14f4a8a35a482e0d9bf,60edee5647867772ef1e38a1,j,0.2937,0,52,52,28,1,ORRROOO,ORRROOR,22.24142883,22.53364006,series_1
,,,,,,,,5cc58a0fa6e5a400014ea1fe,Kobieta,23,2021-07-13_21h50.05.613,rantool2,2021.1.4,Win32,59.74429442,5cc58a0fa6e5a400014ea1fe,60d9d14f4a8a35a482e0d9bf,60edee5647867772ef1e38a1,j,0.3829,0,53,53,18,1,OROOROO,OROOROR,20.84860893,21.22513037,series_1
,,,,,,,,5cc58a0fa6e5a400014ea1fe,Kobieta,23,2021-07-13_21h50.05.613,rantool2,2021.1.4,Win32,59.74429442,5cc58a0fa6e5a400014ea1fe,60d9d14f4a8a35a482e0d9bf,60edee5647867772ef1e38a1,j,0.262,0,54,54,42,1,ROROROO,ROROROR,20.39515459,19.8361834,series_0
,,,,,,,,5cc58a0fa6e5a400014ea1fe,Kobieta,23,2021-07-13_21h50.05.613,rantool2,2021.1.4,Win32,59.74429442,5cc58a0fa6e5a400014ea1fe,60d9d14f4a8a35a482e0d9bf,60edee5647867772ef1e38a1,f,0.5754,0,55,55,10,1,OOROROO,OOROROR,21.31236711,21.07490964,series_0
,,,,,,,,5cc58a0fa6e5a400014ea1fe,Kobieta,23,2021-07-13_21h50.05.613,rantool2,2021.1.4,Win32,59.74429442,5cc58a0fa6e5a400014ea1fe,60d9d14f4a8a35a482e0d9bf,60edee5647867772ef1e38a1,f,0.4456,0,56,56,6,1,OOORROO,OOORROR,21.12383932,21.38562617,series_1
,,,,,,,,5cc58a0fa6e5a400014ea1fe,Kobieta,23,2021-07-13_21h50.05.613,rantool2,2021.1.4,Win32,59.74429442,5cc58a0fa6e5a400014ea1fe,60d9d14f4a8a35a482e0d9bf,60edee5647867772ef1e38a1,f,0.3709,0,57,57,34,1,ROOOROO,ROOOROR,21.03750787,21.24781509,series_1
,,,,,,,,5cc58a0fa6e5a400014ea1fe,Kobieta,23,2021-07-13_21h50.05.613,rantool2,2021.1.4,Win32,59.74429442,5cc58a0fa6e5a400014ea1fe,60d9d14f4a8a35a482e0d9bf,60edee5647867772ef1e38a1,j,1.0449,0,58,58,32,1,ROOOOOO,ROOOOOR,19.92253567,21.27974287,series_1
,,,,,,,,5cc58a0fa6e5a400014ea1fe,Kobieta,23,2021-07-13_21h50.05.613,rantool2,2021.1.4,Win32,59.74429442,5cc58a0fa6e5a400014ea1fe,60d9d14f4a8a35a482e0d9bf,60edee5647867772ef1e38a1,j,0.812,0,59,59,52,1,RROROOO,RROROOR,22.18365867,22.11097995,series_0
,,,,,,,,5cc58a0fa6e5a400014ea1fe,Kobieta,23,2021-07-13_21h50.05.613,rantool2,2021.1.4,Win32,59.74429442,5cc58a0fa6e5a400014ea1fe,60d9d14f4a8a35a482e0d9bf,60edee5647867772ef1e38a1,j,1.643,0,60,60,23,1,ORORRRO,ORORRRR,22.1285618,21.9921709,series_0
,,,,,,,,5cc58a0fa6e5a400014ea1fe,Kobieta,23,2021-07-13_21h50.05.613,rantool2,2021.1.4,Win32,59.74429442,5cc58a0fa6e5a400014ea1fe,60d9d14f4a8a35a482e0d9bf,60edee5647867772ef1e38a1,f,2.3931,0,61,61,63,1,RRRRRRO,RRRRRRR,21.35278725,19.62521613,series_0
,,,,,,,,5cc58a0fa6e5a400014ea1fe,Kobieta,23,2021-07-13_21h50.05.613,rantool2,2021.1.4,Win32,59.74429442,5cc58a0fa6e5a400014ea1fe,60d9d14f4a8a35a482e0d9bf,60edee5647867772ef1e38a1,f,0.6017,0,62,62,13,1,OORRORO,OORRORR,21.66733484,22.11181017,series_1
,,,,,,,,5cc58a0fa6e5a400014ea1fe,Kobieta,23,2021-07-13_21h50.05.613,rantool2,2021.1.4,Win32,59.74429442,5cc58a0fa6e5a400014ea1fe,60d9d14f4a8a35a482e0d9bf,60edee5647867772ef1e38a1,f,0.3334,0,63,63,39,1,ROORRRO,ROORRRR,21.82425538,21.38562617,series_0
