key_resp_5.keys,key_resp_5.corr,key_resp_5.rt,trials.thisRepN,trials.thisTrialN,trials.thisN,trials.thisIndex,trials.ran,id*,Płeć*,Wiek*,date,expName,psychopyVersion,OS,frameRate,id,STUDY_ID,SESSION_ID,key_resp_7.keys,key_resp_7.rt,trials_2.thisRepN,trials_2.thisTrialN,trials_2.thisN,trials_2.thisIndex,trials_2.ran,series_0,series_1,acss_0,acss_1,comparison
"[""comma""]",0,[0.8450000000000131],0,0,0,0,1,5f5fcdeeb83c880812a2d804,Mężczyzna,18,2021-07-13_21h51.07.471,rantool2,2021.1.4,Win32,60.0240096,5f5fcdeeb83c880812a2d804,60d9d14f4a8a35a482e0d9bf,60edee48a86eb1a09e0f7bc0,,,,,,,,,,,,
"[""period""]",0,[0.6069999999999993],1,0,1,0,1,5f5fcdeeb83c880812a2d804,Mężczyzna,18,2021-07-13_21h51.07.471,rantool2,2021.1.4,Win32,60.0240096,5f5fcdeeb83c880812a2d804,60d9d14f4a8a35a482e0d9bf,60edee48a86eb1a09e0f7bc0,,,,,,,,,,,,
"[""period""]",0,[0.4679999999999893],2,0,2,0,1,5f5fcdeeb83c880812a2d804,Mężczyzna,18,2021-07-13_21h51.07.471,rantool2,2021.1.4,Win32,60.0240096,5f5fcdeeb83c880812a2d804,60d9d14f4a8a35a482e0d9bf,60edee48a86eb1a09e0f7bc0,,,,,,,,,,,,
"[""period""]",0,[0.5700000000000074],3,0,3,0,1,5f5fcdeeb83c880812a2d804,Mężczyzna,18,2021-07-13_21h51.07.471,rantool2,2021.1.4,Win32,60.0240096,5f5fcdeeb83c880812a2d804,60d9d14f4a8a35a482e0d9bf,60edee48a86eb1a09e0f7bc0,,,,,,,,,,,,
"[""period""]",0,[0.4590000000000032],4,0,4,0,1,5f5fcdeeb83c880812a2d804,Mężczyzna,18,2021-07-13_21h51.07.471,rantool2,2021.1.4,Win32,60.0240096,5f5fcdeeb83c880812a2d804,60d9d14f4a8a35a482e0d9bf,60edee48a86eb1a09e0f7bc0,,,,,,,,,,,,
"[""comma""]",0,[0.47400000000000375],5,0,5,0,1,5f5fcdeeb83c880812a2d804,Mężczyzna,18,2021-07-13_21h51.07.471,rantool2,2021.1.4,Win32,60.0240096,5f5fcdeeb83c880812a2d804,60d9d14f4a8a35a482e0d9bf,60edee48a86eb1a09e0f7bc0,,,,,,,,,,,,
"[""period""]",0,[0.5220000000000056],6,0,6,0,1,5f5fcdeeb83c880812a2d804,Mężczyzna,18,2021-07-13_21h51.07.471,rantool2,2021.1.4,Win32,60.0240096,5f5fcdeeb83c880812a2d804,60d9d14f4a8a35a482e0d9bf,60edee48a86eb1a09e0f7bc0,,,,,,,,,,,,
"[""comma""]",0,[0.4690000000000083],7,0,7,0,1,5f5fcdeeb83c880812a2d804,Mężczyzna,18,2021-07-13_21h51.07.471,rantool2,2021.1.4,Win32,60.0240096,5f5fcdeeb83c880812a2d804,60d9d14f4a8a35a482e0d9bf,60edee48a86eb1a09e0f7bc0,,,,,,,,,,,,
"[""comma""]",0,[0.519999999999996],8,0,8,0,1,5f5fcdeeb83c880812a2d804,Mężczyzna,18,2021-07-13_21h51.07.471,rantool2,2021.1.4,Win32,60.0240096,5f5fcdeeb83c880812a2d804,60d9d14f4a8a35a482e0d9bf,60edee48a86eb1a09e0f7bc0,,,,,,,,,,,,
"[""period""]",0,[0.33500000000000796],9,0,9,0,1,5f5fcdeeb83c880812a2d804,Mężczyzna,18,2021-07-13_21h51.07.471,rantool2,2021.1.4,Win32,60.0240096,5f5fcdeeb83c880812a2d804,60d9d14f4a8a35a482e0d9bf,60edee48a86eb1a09e0f7bc0,,,,,,,,,,,,
"[""comma""]",0,[0.4890000000000043],10,0,10,0,1,5f5fcdeeb83c880812a2d804,Mężczyzna,18,2021-07-13_21h51.07.471,rantool2,2021.1.4,Win32,60.0240096,5f5fcdeeb83c880812a2d804,60d9d14f4a8a35a482e0d9bf,60edee48a86eb1a09e0f7bc0,,,,,,,,,,,,
"[""comma""]",0,[0.41899999999999693],11,0,11,0,1,5f5fcdeeb83c880812a2d804,Mężczyzna,18,2021-07-13_21h51.07.471,rantool2,2021.1.4,Win32,60.0240096,5f5fcdeeb83c880812a2d804,60d9d14f4a8a35a482e0d9bf,60edee48a86eb1a09e0f7bc0,,,,,,,,,,,,
"[""comma""]",0,[0.2680000000000007],12,0,12,0,1,5f5fcdeeb83c880812a2d804,Mężczyzna,18,2021-07-13_21h51.07.471,rantool2,2021.1.4,Win32,60.0240096,5f5fcdeeb83c880812a2d804,60d9d14f4a8a35a482e0d9bf,60edee48a86eb1a09e0f7bc0,,,,,,,,,,,,
"[""period""]",0,[0.27599999999999625],13,0,13,0,1,5f5fcdeeb83c880812a2d804,Mężczyzna,18,2021-07-13_21h51.07.471,rantool2,2021.1.4,Win32,60.0240096,5f5fcdeeb83c880812a2d804,60d9d14f4a8a35a482e0d9bf,60edee48a86eb1a09e0f7bc0,,,,,,,,,,,,
"[""comma""]",0,[0.3359999999999985],14,0,14,0,1,5f5fcdeeb83c880812a2d804,Mężczyzna,18,2021-07-13_21h51.07.471,rantool2,2021.1.4,Win32,60.0240096,5f5fcdeeb83c880812a2d804,60d9d14f4a8a35a482e0d9bf,60edee48a86eb1a09e0f7bc0,,,,,,,,,,,,
"[""period""]",0,[0.269999999999996],15,0,15,0,1,5f5fcdeeb83c880812a2d804,Mężczyzna,18,2021-07-13_21h51.07.471,rantool2,2021.1.4,Win32,60.0240096,5f5fcdeeb83c880812a2d804,60d9d14f4a8a35a482e0d9bf,60edee48a86eb1a09e0f7bc0,,,,,,,,,,,,
"[""comma""]",0,[0.2890000000000015],16,0,16,0,1,5f5fcdeeb83c880812a2d804,Mężczyzna,18,2021-07-13_21h51.07.471,rantool2,2021.1.4,Win32,60.0240096,5f5fcdeeb83c880812a2d804,60d9d14f4a8a35a482e0d9bf,60edee48a86eb1a09e0f7bc0,,,,,,,,,,,,
"[""period""]",0,[0.2769999999999868],17,0,17,0,1,5f5fcdeeb83c880812a2d804,Mężczyzna,18,2021-07-13_21h51.07.471,rantool2,2021.1.4,Win32,60.0240096,5f5fcdeeb83c880812a2d804,60d9d14f4a8a35a482e0d9bf,60edee48a86eb1a09e0f7bc0,,,,,,,,,,,,
"[""comma""]",0,[0.2849999999999966],18,0,18,0,1,5f5fcdeeb83c880812a2d804,Mężczyzna,18,2021-07-13_21h51.07.471,rantool2,2021.1.4,Win32,60.0240096,5f5fcdeeb83c880812a2d804,60d9d14f4a8a35a482e0d9bf,60edee48a86eb1a09e0f7bc0,,,,,,,,,,,,
"[""period""]",0,[0.4259999999999877],19,0,19,0,1,5f5fcdeeb83c880812a2d804,Mężczyzna,18,2021-07-13_21h51.07.471,rantool2,2021.1.4,Win32,60.0240096,5f5fcdeeb83c880812a2d804,60d9d14f4a8a35a482e0d9bf,60edee48a86eb1a09e0f7bc0,,,,,,,,,,,,
"[""period""]",0,[0.34199999999999875],20,0,20,0,1,5f5fcdeeb83c880812a2d804,Mężczyzna,18,2021-07-13_21h51.07.471,rantool2,2021.1.4,Win32,60.0240096,5f5fcdeeb83c880812a2d804,60d9d14f4a8a35a482e0d9bf,60edee48a86eb1a09e0f7bc0,,,,,,,,,,,,
"[""comma""]",0,[0.3009999999999877],21,0,21,0,1,5f5fcdeeb83c880812a2d804,Mężczyzna,18,2021-07-13_21h51.07.471,rantool2,2021.1.4,Win32,60.0240096,5f5fcdeeb83c880812a2d804,60d9d14f4a8a35a482e0d9bf,60edee48a86eb1a09e0f7bc0,,,,,,,,,,,,
"[""comma""]",0,[0.3509999999999991],22,0,22,0,1,5f5fcdeeb83c880812a2d804,Mężczyzna,18,2021-07-13_21h51.07.471,rantool2,2021.1.4,Win32,60.0240096,5f5fcdeeb83c880812a2d804,60d9d14f4a8a35a482e0d9bf,60edee48a86eb1a09e0f7bc0,,,,,,,,,,,,
"[""period""]",0,[0.28600000000000136],23,0,23,0,1,5f5fcdeeb83c880812a2d804,Mężczyzna,18,2021-07-13_21h51.07.471,rantool2,2021.1.4,Win32,60.0240096,5f5fcdeeb83c880812a2d804,60d9d14f4a8a35a482e0d9bf,60edee48a86eb1a09e0f7bc0,,,,,,,,,,,,
"[""comma""]",0,[0.30299999999999727],24,0,24,0,1,5f5fcdeeb83c880812a2d804,Mężczyzna,18,2021-07-13_21h51.07.471,rantool2,2021.1.4,Win32,60.0240096,5f5fcdeeb83c880812a2d804,60d9d14f4a8a35a482e0d9bf,60edee48a86eb1a09e0f7bc0,,,,,,,,,,,,
"[""period""]",0,[0.30299999999999727],25,0,25,0,1,5f5fcdeeb83c880812a2d804,Mężczyzna,18,2021-07-13_21h51.07.471,rantool2,2021.1.4,Win32,60.0240096,5f5fcdeeb83c880812a2d804,60d9d14f4a8a35a482e0d9bf,60edee48a86eb1a09e0f7bc0,,,,,,,,,,,,
"[""period""]",0,[0.2680000000000007],26,0,26,0,1,5f5fcdeeb83c880812a2d804,Mężczyzna,18,2021-07-13_21h51.07.471,rantool2,2021.1.4,Win32,60.0240096,5f5fcdeeb83c880812a2d804,60d9d14f4a8a35a482e0d9bf,60edee48a86eb1a09e0f7bc0,,,,,,,,,,,,
"[""period""]",0,[0.18000000000000682],27,0,27,0,1,5f5fcdeeb83c880812a2d804,Mężczyzna,18,2021-07-13_21h51.07.471,rantool2,2021.1.4,Win32,60.0240096,5f5fcdeeb83c880812a2d804,60d9d14f4a8a35a482e0d9bf,60edee48a86eb1a09e0f7bc0,,,,,,,,,,,,
"[""comma""]",0,[0.3189999999999884],28,0,28,0,1,5f5fcdeeb83c880812a2d804,Mężczyzna,18,2021-07-13_21h51.07.471,rantool2,2021.1.4,Win32,60.0240096,5f5fcdeeb83c880812a2d804,60d9d14f4a8a35a482e0d9bf,60edee48a86eb1a09e0f7bc0,,,,,,,,,,,,
"[""comma""]",0,[0.28700000000000614],29,0,29,0,1,5f5fcdeeb83c880812a2d804,Mężczyzna,18,2021-07-13_21h51.07.471,rantool2,2021.1.4,Win32,60.0240096,5f5fcdeeb83c880812a2d804,60d9d14f4a8a35a482e0d9bf,60edee48a86eb1a09e0f7bc0,,,,,,,,,,,,
"[""period""]",0,[0.2109999999999843],30,0,30,0,1,5f5fcdeeb83c880812a2d804,Mężczyzna,18,2021-07-13_21h51.07.471,rantool2,2021.1.4,Win32,60.0240096,5f5fcdeeb83c880812a2d804,60d9d14f4a8a35a482e0d9bf,60edee48a86eb1a09e0f7bc0,,,,,,,,,,,,
"[""comma""]",0,[0.1349999999999909],31,0,31,0,1,5f5fcdeeb83c880812a2d804,Mężczyzna,18,2021-07-13_21h51.07.471,rantool2,2021.1.4,Win32,60.0240096,5f5fcdeeb83c880812a2d804,60d9d14f4a8a35a482e0d9bf,60edee48a86eb1a09e0f7bc0,,,,,,,,,,,,
"[""period""]",0,[0.17500000000001137],32,0,32,0,1,5f5fcdeeb83c880812a2d804,Mężczyzna,18,2021-07-13_21h51.07.471,rantool2,2021.1.4,Win32,60.0240096,5f5fcdeeb83c880812a2d804,60d9d14f4a8a35a482e0d9bf,60edee48a86eb1a09e0f7bc0,,,,,,,,,,,,
"[""comma""]",0,[0.32800000000000296],33,0,33,0,1,5f5fcdeeb83c880812a2d804,Mężczyzna,18,2021-07-13_21h51.07.471,rantool2,2021.1.4,Win32,60.0240096,5f5fcdeeb83c880812a2d804,60d9d14f4a8a35a482e0d9bf,60edee48a86eb1a09e0f7bc0,,,,,,,,,,,,
"[""comma""]",0,[0.28600000000000136],34,0,34,0,1,5f5fcdeeb83c880812a2d804,Mężczyzna,18,2021-07-13_21h51.07.471,rantool2,2021.1.4,Win32,60.0240096,5f5fcdeeb83c880812a2d804,60d9d14f4a8a35a482e0d9bf,60edee48a86eb1a09e0f7bc0,,,,,,,,,,,,
"[""comma""]",0,[0.20199999999999818],35,0,35,0,1,5f5fcdeeb83c880812a2d804,Mężczyzna,18,2021-07-13_21h51.07.471,rantool2,2021.1.4,Win32,60.0240096,5f5fcdeeb83c880812a2d804,60d9d14f4a8a35a482e0d9bf,60edee48a86eb1a09e0f7bc0,,,,,,,,,,,,
"[""comma""]",0,[0.20300000000000296],36,0,36,0,1,5f5fcdeeb83c880812a2d804,Mężczyzna,18,2021-07-13_21h51.07.471,rantool2,2021.1.4,Win32,60.0240096,5f5fcdeeb83c880812a2d804,60d9d14f4a8a35a482e0d9bf,60edee48a86eb1a09e0f7bc0,,,,,,,,,,,,
"[""comma""]",0,[0.28700000000000614],37,0,37,0,1,5f5fcdeeb83c880812a2d804,Mężczyzna,18,2021-07-13_21h51.07.471,rantool2,2021.1.4,Win32,60.0240096,5f5fcdeeb83c880812a2d804,60d9d14f4a8a35a482e0d9bf,60edee48a86eb1a09e0f7bc0,,,,,,,,,,,,
"[""comma""]",0,[0.27899999999999636],38,0,38,0,1,5f5fcdeeb83c880812a2d804,Mężczyzna,18,2021-07-13_21h51.07.471,rantool2,2021.1.4,Win32,60.0240096,5f5fcdeeb83c880812a2d804,60d9d14f4a8a35a482e0d9bf,60edee48a86eb1a09e0f7bc0,,,,,,,,,,,,
"[""period""]",0,[0.2179999999999893],39,0,39,0,1,5f5fcdeeb83c880812a2d804,Mężczyzna,18,2021-07-13_21h51.07.471,rantool2,2021.1.4,Win32,60.0240096,5f5fcdeeb83c880812a2d804,60d9d14f4a8a35a482e0d9bf,60edee48a86eb1a09e0f7bc0,,,,,,,,,,,,
"[""comma""]",0,[0.29699999999999704],40,0,40,0,1,5f5fcdeeb83c880812a2d804,Mężczyzna,18,2021-07-13_21h51.07.471,rantool2,2021.1.4,Win32,60.0240096,5f5fcdeeb83c880812a2d804,60d9d14f4a8a35a482e0d9bf,60edee48a86eb1a09e0f7bc0,,,,,,,,,,,,
"[""comma""]",0,[0.28600000000000136],41,0,41,0,1,5f5fcdeeb83c880812a2d804,Mężczyzna,18,2021-07-13_21h51.07.471,rantool2,2021.1.4,Win32,60.0240096,5f5fcdeeb83c880812a2d804,60d9d14f4a8a35a482e0d9bf,60edee48a86eb1a09e0f7bc0,,,,,,,,,,,,
"[""period""]",0,[0.15200000000001523],42,0,42,0,1,5f5fcdeeb83c880812a2d804,Mężczyzna,18,2021-07-13_21h51.07.471,rantool2,2021.1.4,Win32,60.0240096,5f5fcdeeb83c880812a2d804,60d9d14f4a8a35a482e0d9bf,60edee48a86eb1a09e0f7bc0,,,,,,,,,,,,
"[""period""]",0,[0.17300000000000182],43,0,43,0,1,5f5fcdeeb83c880812a2d804,Mężczyzna,18,2021-07-13_21h51.07.471,rantool2,2021.1.4,Win32,60.0240096,5f5fcdeeb83c880812a2d804,60d9d14f4a8a35a482e0d9bf,60edee48a86eb1a09e0f7bc0,,,,,,,,,,,,
"[""period""]",0,[0.1880000000000166],44,0,44,0,1,5f5fcdeeb83c880812a2d804,Mężczyzna,18,2021-07-13_21h51.07.471,rantool2,2021.1.4,Win32,60.0240096,5f5fcdeeb83c880812a2d804,60d9d14f4a8a35a482e0d9bf,60edee48a86eb1a09e0f7bc0,,,,,,,,,,,,
"[""period""]",0,[0.18500000000000227],45,0,45,0,1,5f5fcdeeb83c880812a2d804,Mężczyzna,18,2021-07-13_21h51.07.471,rantool2,2021.1.4,Win32,60.0240096,5f5fcdeeb83c880812a2d804,60d9d14f4a8a35a482e0d9bf,60edee48a86eb1a09e0f7bc0,,,,,,,,,,,,
"[""comma""]",0,[0.25899999999998613],46,0,46,0,1,5f5fcdeeb83c880812a2d804,Mężczyzna,18,2021-07-13_21h51.07.471,rantool2,2021.1.4,Win32,60.0240096,5f5fcdeeb83c880812a2d804,60d9d14f4a8a35a482e0d9bf,60edee48a86eb1a09e0f7bc0,,,,,,,,,,,,
"[""period""]",0,[0.04099999999999682],47,0,47,0,1,5f5fcdeeb83c880812a2d804,Mężczyzna,18,2021-07-13_21h51.07.471,rantool2,2021.1.4,Win32,60.0240096,5f5fcdeeb83c880812a2d804,60d9d14f4a8a35a482e0d9bf,60edee48a86eb1a09e0f7bc0,,,,,,,,,,,,
"[""period""]",0,[0.35300000000000864],48,0,48,0,1,5f5fcdeeb83c880812a2d804,Mężczyzna,18,2021-07-13_21h51.07.471,rantool2,2021.1.4,Win32,60.0240096,5f5fcdeeb83c880812a2d804,60d9d14f4a8a35a482e0d9bf,60edee48a86eb1a09e0f7bc0,,,,,,,,,,,,
"[""comma""]",0,[0.41100000000000136],49,0,49,0,1,5f5fcdeeb83c880812a2d804,Mężczyzna,18,2021-07-13_21h51.07.471,rantool2,2021.1.4,Win32,60.0240096,5f5fcdeeb83c880812a2d804,60d9d14f4a8a35a482e0d9bf,60edee48a86eb1a09e0f7bc0,,,,,,,,,,,,
"[""period""]",0,[0.29699999999999704],50,0,50,0,1,5f5fcdeeb83c880812a2d804,Mężczyzna,18,2021-07-13_21h51.07.471,rantool2,2021.1.4,Win32,60.0240096,5f5fcdeeb83c880812a2d804,60d9d14f4a8a35a482e0d9bf,60edee48a86eb1a09e0f7bc0,,,,,,,,,,,,
"[""comma""]",0,[0.04099999999999682],51,0,51,0,1,5f5fcdeeb83c880812a2d804,Mężczyzna,18,2021-07-13_21h51.07.471,rantool2,2021.1.4,Win32,60.0240096,5f5fcdeeb83c880812a2d804,60d9d14f4a8a35a482e0d9bf,60edee48a86eb1a09e0f7bc0,,,,,,,,,,,,
"[""period""]",0,[0.3720000000000141],52,0,52,0,1,5f5fcdeeb83c880812a2d804,Mężczyzna,18,2021-07-13_21h51.07.471,rantool2,2021.1.4,Win32,60.0240096,5f5fcdeeb83c880812a2d804,60d9d14f4a8a35a482e0d9bf,60edee48a86eb1a09e0f7bc0,,,,,,,,,,,,
"[""comma""]",0,[0.49100000000001387],53,0,53,0,1,5f5fcdeeb83c880812a2d804,Mężczyzna,18,2021-07-13_21h51.07.471,rantool2,2021.1.4,Win32,60.0240096,5f5fcdeeb83c880812a2d804,60d9d14f4a8a35a482e0d9bf,60edee48a86eb1a09e0f7bc0,,,,,,,,,,,,
"[""period""]",0,[0.4579999999999984],54,0,54,0,1,5f5fcdeeb83c880812a2d804,Mężczyzna,18,2021-07-13_21h51.07.471,rantool2,2021.1.4,Win32,60.0240096,5f5fcdeeb83c880812a2d804,60d9d14f4a8a35a482e0d9bf,60edee48a86eb1a09e0f7bc0,,,,,,,,,,,,
"[""period""]",0,[0.2950000000000159],55,0,55,0,1,5f5fcdeeb83c880812a2d804,Mężczyzna,18,2021-07-13_21h51.07.471,rantool2,2021.1.4,Win32,60.0240096,5f5fcdeeb83c880812a2d804,60d9d14f4a8a35a482e0d9bf,60edee48a86eb1a09e0f7bc0,,,,,,,,,,,,
"[""comma""]",0,[0.23400000000000887],56,0,56,0,1,5f5fcdeeb83c880812a2d804,Mężczyzna,18,2021-07-13_21h51.07.471,rantool2,2021.1.4,Win32,60.0240096,5f5fcdeeb83c880812a2d804,60d9d14f4a8a35a482e0d9bf,60edee48a86eb1a09e0f7bc0,,,,,,,,,,,,
"[""comma""]",0,[0.40200000000001523],57,0,57,0,1,5f5fcdeeb83c880812a2d804,Mężczyzna,18,2021-07-13_21h51.07.471,rantool2,2021.1.4,Win32,60.0240096,5f5fcdeeb83c880812a2d804,60d9d14f4a8a35a482e0d9bf,60edee48a86eb1a09e0f7bc0,,,,,,,,,,,,
"[""period""]",0,[0.3120000000000118],58,0,58,0,1,5f5fcdeeb83c880812a2d804,Mężczyzna,18,2021-07-13_21h51.07.471,rantool2,2021.1.4,Win32,60.0240096,5f5fcdeeb83c880812a2d804,60d9d14f4a8a35a482e0d9bf,60edee48a86eb1a09e0f7bc0,,,,,,,,,,,,
"[""comma""]",0,[0.36199999999999477],59,0,59,0,1,5f5fcdeeb83c880812a2d804,Mężczyzna,18,2021-07-13_21h51.07.471,rantool2,2021.1.4,Win32,60.0240096,5f5fcdeeb83c880812a2d804,60d9d14f4a8a35a482e0d9bf,60edee48a86eb1a09e0f7bc0,,,,,,,,,,,,
"[""period""]",0,[0.3130000000000166],60,0,60,0,1,5f5fcdeeb83c880812a2d804,Mężczyzna,18,2021-07-13_21h51.07.471,rantool2,2021.1.4,Win32,60.0240096,5f5fcdeeb83c880812a2d804,60d9d14f4a8a35a482e0d9bf,60edee48a86eb1a09e0f7bc0,,,,,,,,,,,,
"[""period""]",0,[0.13599999999999568],61,0,61,0,1,5f5fcdeeb83c880812a2d804,Mężczyzna,18,2021-07-13_21h51.07.471,rantool2,2021.1.4,Win32,60.0240096,5f5fcdeeb83c880812a2d804,60d9d14f4a8a35a482e0d9bf,60edee48a86eb1a09e0f7bc0,,,,,,,,,,,,
"[""comma""]",0,[0.11699999999999022],62,0,62,0,1,5f5fcdeeb83c880812a2d804,Mężczyzna,18,2021-07-13_21h51.07.471,rantool2,2021.1.4,Win32,60.0240096,5f5fcdeeb83c880812a2d804,60d9d14f4a8a35a482e0d9bf,60edee48a86eb1a09e0f7bc0,,,,,,,,,,,,
"[""comma""]",0,[0.2560000000000002],63,0,63,0,1,5f5fcdeeb83c880812a2d804,Mężczyzna,18,2021-07-13_21h51.07.471,rantool2,2021.1.4,Win32,60.0240096,5f5fcdeeb83c880812a2d804,60d9d14f4a8a35a482e0d9bf,60edee48a86eb1a09e0f7bc0,,,,,,,,,,,,
"[""comma""]",0,[0.2849999999999966],64,0,64,0,1,5f5fcdeeb83c880812a2d804,Mężczyzna,18,2021-07-13_21h51.07.471,rantool2,2021.1.4,Win32,60.0240096,5f5fcdeeb83c880812a2d804,60d9d14f4a8a35a482e0d9bf,60edee48a86eb1a09e0f7bc0,,,,,,,,,,,,
"[""period""]",0,[0.3240000000000123],65,0,65,0,1,5f5fcdeeb83c880812a2d804,Mężczyzna,18,2021-07-13_21h51.07.471,rantool2,2021.1.4,Win32,60.0240096,5f5fcdeeb83c880812a2d804,60d9d14f4a8a35a482e0d9bf,60edee48a86eb1a09e0f7bc0,,,,,,,,,,,,
"[""comma""]",0,[0.4410000000000025],66,0,66,0,1,5f5fcdeeb83c880812a2d804,Mężczyzna,18,2021-07-13_21h51.07.471,rantool2,2021.1.4,Win32,60.0240096,5f5fcdeeb83c880812a2d804,60d9d14f4a8a35a482e0d9bf,60edee48a86eb1a09e0f7bc0,,,,,,,,,,,,
"[""period""]",0,[0.4240000000000066],67,0,67,0,1,5f5fcdeeb83c880812a2d804,Mężczyzna,18,2021-07-13_21h51.07.471,rantool2,2021.1.4,Win32,60.0240096,5f5fcdeeb83c880812a2d804,60d9d14f4a8a35a482e0d9bf,60edee48a86eb1a09e0f7bc0,,,,,,,,,,,,
"[""comma""]",0,[0.3269999999999982],68,0,68,0,1,5f5fcdeeb83c880812a2d804,Mężczyzna,18,2021-07-13_21h51.07.471,rantool2,2021.1.4,Win32,60.0240096,5f5fcdeeb83c880812a2d804,60d9d14f4a8a35a482e0d9bf,60edee48a86eb1a09e0f7bc0,,,,,,,,,,,,
"[""period"",""period""]",0,"[0.036000000000001364,0.9270000000000209]",69,0,69,0,1,5f5fcdeeb83c880812a2d804,Mężczyzna,18,2021-07-13_21h51.07.471,rantool2,2021.1.4,Win32,60.0240096,5f5fcdeeb83c880812a2d804,60d9d14f4a8a35a482e0d9bf,60edee48a86eb1a09e0f7bc0,,,,,,,,,,,,
"[""period""]",0,[0.568000000000012],70,0,70,0,1,5f5fcdeeb83c880812a2d804,Mężczyzna,18,2021-07-13_21h51.07.471,rantool2,2021.1.4,Win32,60.0240096,5f5fcdeeb83c880812a2d804,60d9d14f4a8a35a482e0d9bf,60edee48a86eb1a09e0f7bc0,,,,,,,,,,,,
"[""comma""]",0,[0.3860000000000241],71,0,71,0,1,5f5fcdeeb83c880812a2d804,Mężczyzna,18,2021-07-13_21h51.07.471,rantool2,2021.1.4,Win32,60.0240096,5f5fcdeeb83c880812a2d804,60d9d14f4a8a35a482e0d9bf,60edee48a86eb1a09e0f7bc0,,,,,,,,,,,,
"[""period""]",0,[0.26200000000000045],72,0,72,0,1,5f5fcdeeb83c880812a2d804,Mężczyzna,18,2021-07-13_21h51.07.471,rantool2,2021.1.4,Win32,60.0240096,5f5fcdeeb83c880812a2d804,60d9d14f4a8a35a482e0d9bf,60edee48a86eb1a09e0f7bc0,,,,,,,,,,,,
"[""comma""]",0,[0.08500000000000796],73,0,73,0,1,5f5fcdeeb83c880812a2d804,Mężczyzna,18,2021-07-13_21h51.07.471,rantool2,2021.1.4,Win32,60.0240096,5f5fcdeeb83c880812a2d804,60d9d14f4a8a35a482e0d9bf,60edee48a86eb1a09e0f7bc0,,,,,,,,,,,,
"[""comma""]",0,[0.22400000000001796],74,0,74,0,1,5f5fcdeeb83c880812a2d804,Mężczyzna,18,2021-07-13_21h51.07.471,rantool2,2021.1.4,Win32,60.0240096,5f5fcdeeb83c880812a2d804,60d9d14f4a8a35a482e0d9bf,60edee48a86eb1a09e0f7bc0,,,,,,,,,,,,
"[""period""]",0,[0.19599999999999795],75,0,75,0,1,5f5fcdeeb83c880812a2d804,Mężczyzna,18,2021-07-13_21h51.07.471,rantool2,2021.1.4,Win32,60.0240096,5f5fcdeeb83c880812a2d804,60d9d14f4a8a35a482e0d9bf,60edee48a86eb1a09e0f7bc0,,,,,,,,,,,,
"[""comma""]",0,[0.012000000000000455],76,0,76,0,1,5f5fcdeeb83c880812a2d804,Mężczyzna,18,2021-07-13_21h51.07.471,rantool2,2021.1.4,Win32,60.0240096,5f5fcdeeb83c880812a2d804,60d9d14f4a8a35a482e0d9bf,60edee48a86eb1a09e0f7bc0,,,,,,,,,,,,
"[""period""]",0,[0.3429999999999893],77,0,77,0,1,5f5fcdeeb83c880812a2d804,Mężczyzna,18,2021-07-13_21h51.07.471,rantool2,2021.1.4,Win32,60.0240096,5f5fcdeeb83c880812a2d804,60d9d14f4a8a35a482e0d9bf,60edee48a86eb1a09e0f7bc0,,,,,,,,,,,,
"[""comma""]",0,[0.39200000000002433],78,0,78,0,1,5f5fcdeeb83c880812a2d804,Mężczyzna,18,2021-07-13_21h51.07.471,rantool2,2021.1.4,Win32,60.0240096,5f5fcdeeb83c880812a2d804,60d9d14f4a8a35a482e0d9bf,60edee48a86eb1a09e0f7bc0,,,,,,,,,,,,
"[""period""]",0,[0.34199999999998454],79,0,79,0,1,5f5fcdeeb83c880812a2d804,Mężczyzna,18,2021-07-13_21h51.07.471,rantool2,2021.1.4,Win32,60.0240096,5f5fcdeeb83c880812a2d804,60d9d14f4a8a35a482e0d9bf,60edee48a86eb1a09e0f7bc0,,,,,,,,,,,,
"[""period""]",0,[0.21800000000001774],80,0,80,0,1,5f5fcdeeb83c880812a2d804,Mężczyzna,18,2021-07-13_21h51.07.471,rantool2,2021.1.4,Win32,60.0240096,5f5fcdeeb83c880812a2d804,60d9d14f4a8a35a482e0d9bf,60edee48a86eb1a09e0f7bc0,,,,,,,,,,,,
"[""period""]",0,[0.3850000000000193],81,0,81,0,1,5f5fcdeeb83c880812a2d804,Mężczyzna,18,2021-07-13_21h51.07.471,rantool2,2021.1.4,Win32,60.0240096,5f5fcdeeb83c880812a2d804,60d9d14f4a8a35a482e0d9bf,60edee48a86eb1a09e0f7bc0,,,,,,,,,,,,
"[""period""]",0,[0.3170000000000073],82,0,82,0,1,5f5fcdeeb83c880812a2d804,Mężczyzna,18,2021-07-13_21h51.07.471,rantool2,2021.1.4,Win32,60.0240096,5f5fcdeeb83c880812a2d804,60d9d14f4a8a35a482e0d9bf,60edee48a86eb1a09e0f7bc0,,,,,,,,,,,,
"[""period""]",0,[0.2769999999999868],83,0,83,0,1,5f5fcdeeb83c880812a2d804,Mężczyzna,18,2021-07-13_21h51.07.471,rantool2,2021.1.4,Win32,60.0240096,5f5fcdeeb83c880812a2d804,60d9d14f4a8a35a482e0d9bf,60edee48a86eb1a09e0f7bc0,,,,,,,,,,,,
"[""comma""]",0,[0.26899999999997704],84,0,84,0,1,5f5fcdeeb83c880812a2d804,Mężczyzna,18,2021-07-13_21h51.07.471,rantool2,2021.1.4,Win32,60.0240096,5f5fcdeeb83c880812a2d804,60d9d14f4a8a35a482e0d9bf,60edee48a86eb1a09e0f7bc0,,,,,,,,,,,,
"[""period""]",0,[0.2249999999999659],85,0,85,0,1,5f5fcdeeb83c880812a2d804,Mężczyzna,18,2021-07-13_21h51.07.471,rantool2,2021.1.4,Win32,60.0240096,5f5fcdeeb83c880812a2d804,60d9d14f4a8a35a482e0d9bf,60edee48a86eb1a09e0f7bc0,,,,,,,,,,,,
"[""period""]",0,[0.08999999999997499],86,0,86,0,1,5f5fcdeeb83c880812a2d804,Mężczyzna,18,2021-07-13_21h51.07.471,rantool2,2021.1.4,Win32,60.0240096,5f5fcdeeb83c880812a2d804,60d9d14f4a8a35a482e0d9bf,60edee48a86eb1a09e0f7bc0,,,,,,,,,,,,
"[""period""]",0,[0.27300000000002456],87,0,87,0,1,5f5fcdeeb83c880812a2d804,Mężczyzna,18,2021-07-13_21h51.07.471,rantool2,2021.1.4,Win32,60.0240096,5f5fcdeeb83c880812a2d804,60d9d14f4a8a35a482e0d9bf,60edee48a86eb1a09e0f7bc0,,,,,,,,,,,,
"[""period""]",0,[0.30299999999999727],88,0,88,0,1,5f5fcdeeb83c880812a2d804,Mężczyzna,18,2021-07-13_21h51.07.471,rantool2,2021.1.4,Win32,60.0240096,5f5fcdeeb83c880812a2d804,60d9d14f4a8a35a482e0d9bf,60edee48a86eb1a09e0f7bc0,,,,,,,,,,,,
"[""period""]",0,[0.3009999999999877],89,0,89,0,1,5f5fcdeeb83c880812a2d804,Mężczyzna,18,2021-07-13_21h51.07.471,rantool2,2021.1.4,Win32,60.0240096,5f5fcdeeb83c880812a2d804,60d9d14f4a8a35a482e0d9bf,60edee48a86eb1a09e0f7bc0,,,,,,,,,,,,
"[""comma""]",0,[0.25099999999997635],90,0,90,0,1,5f5fcdeeb83c880812a2d804,Mężczyzna,18,2021-07-13_21h51.07.471,rantool2,2021.1.4,Win32,60.0240096,5f5fcdeeb83c880812a2d804,60d9d14f4a8a35a482e0d9bf,60edee48a86eb1a09e0f7bc0,,,,,,,,,,,,
"[""period""]",0,[0.22000000000002728],91,0,91,0,1,5f5fcdeeb83c880812a2d804,Mężczyzna,18,2021-07-13_21h51.07.471,rantool2,2021.1.4,Win32,60.0240096,5f5fcdeeb83c880812a2d804,60d9d14f4a8a35a482e0d9bf,60edee48a86eb1a09e0f7bc0,,,,,,,,,,,,
"[""comma""]",0,[0.22900000000004184],92,0,92,0,1,5f5fcdeeb83c880812a2d804,Mężczyzna,18,2021-07-13_21h51.07.471,rantool2,2021.1.4,Win32,60.0240096,5f5fcdeeb83c880812a2d804,60d9d14f4a8a35a482e0d9bf,60edee48a86eb1a09e0f7bc0,,,,,,,,,,,,
"[""period""]",0,[0.2729999999999677],93,0,93,0,1,5f5fcdeeb83c880812a2d804,Mężczyzna,18,2021-07-13_21h51.07.471,rantool2,2021.1.4,Win32,60.0240096,5f5fcdeeb83c880812a2d804,60d9d14f4a8a35a482e0d9bf,60edee48a86eb1a09e0f7bc0,,,,,,,,,,,,
"[""comma""]",0,[0.3079999999999927],94,0,94,0,1,5f5fcdeeb83c880812a2d804,Mężczyzna,18,2021-07-13_21h51.07.471,rantool2,2021.1.4,Win32,60.0240096,5f5fcdeeb83c880812a2d804,60d9d14f4a8a35a482e0d9bf,60edee48a86eb1a09e0f7bc0,,,,,,,,,,,,
"[""period""]",0,[0.23900000000003274],95,0,95,0,1,5f5fcdeeb83c880812a2d804,Mężczyzna,18,2021-07-13_21h51.07.471,rantool2,2021.1.4,Win32,60.0240096,5f5fcdeeb83c880812a2d804,60d9d14f4a8a35a482e0d9bf,60edee48a86eb1a09e0f7bc0,,,,,,,,,,,,
"[""comma""]",0,[0.20400000000000773],96,0,96,0,1,5f5fcdeeb83c880812a2d804,Mężczyzna,18,2021-07-13_21h51.07.471,rantool2,2021.1.4,Win32,60.0240096,5f5fcdeeb83c880812a2d804,60d9d14f4a8a35a482e0d9bf,60edee48a86eb1a09e0f7bc0,,,,,,,,,,,,
"[""period""]",0,[0.27199999999999136],97,0,97,0,1,5f5fcdeeb83c880812a2d804,Mężczyzna,18,2021-07-13_21h51.07.471,rantool2,2021.1.4,Win32,60.0240096,5f5fcdeeb83c880812a2d804,60d9d14f4a8a35a482e0d9bf,60edee48a86eb1a09e0f7bc0,,,,,,,,,,,,
"[""comma""]",0,[0.26900000000000546],98,0,98,0,1,5f5fcdeeb83c880812a2d804,Mężczyzna,18,2021-07-13_21h51.07.471,rantool2,2021.1.4,Win32,60.0240096,5f5fcdeeb83c880812a2d804,60d9d14f4a8a35a482e0d9bf,60edee48a86eb1a09e0f7bc0,,,,,,,,,,,,
"[""comma""]",0,[0.20500000000004093],99,0,99,0,1,5f5fcdeeb83c880812a2d804,Mężczyzna,18,2021-07-13_21h51.07.471,rantool2,2021.1.4,Win32,60.0240096,5f5fcdeeb83c880812a2d804,60d9d14f4a8a35a482e0d9bf,60edee48a86eb1a09e0f7bc0,,,,,,,,,,,,
"[""period""]",0,[0.15299999999996317],100,0,100,0,1,5f5fcdeeb83c880812a2d804,Mężczyzna,18,2021-07-13_21h51.07.471,rantool2,2021.1.4,Win32,60.0240096,5f5fcdeeb83c880812a2d804,60d9d14f4a8a35a482e0d9bf,60edee48a86eb1a09e0f7bc0,,,,,,,,,,,,
"[""comma""]",0,[0.23799999999999955],101,0,101,0,1,5f5fcdeeb83c880812a2d804,Mężczyzna,18,2021-07-13_21h51.07.471,rantool2,2021.1.4,Win32,60.0240096,5f5fcdeeb83c880812a2d804,60d9d14f4a8a35a482e0d9bf,60edee48a86eb1a09e0f7bc0,,,,,,,,,,,,
"[""period""]",0,[0.25499999999999545],102,0,102,0,1,5f5fcdeeb83c880812a2d804,Mężczyzna,18,2021-07-13_21h51.07.471,rantool2,2021.1.4,Win32,60.0240096,5f5fcdeeb83c880812a2d804,60d9d14f4a8a35a482e0d9bf,60edee48a86eb1a09e0f7bc0,,,,,,,,,,,,
"[""period""]",0,[0.23500000000001364],103,0,103,0,1,5f5fcdeeb83c880812a2d804,Mężczyzna,18,2021-07-13_21h51.07.471,rantool2,2021.1.4,Win32,60.0240096,5f5fcdeeb83c880812a2d804,60d9d14f4a8a35a482e0d9bf,60edee48a86eb1a09e0f7bc0,,,,,,,,,,,,
"[""period""]",0,[0.16800000000000637],104,0,104,0,1,5f5fcdeeb83c880812a2d804,Mężczyzna,18,2021-07-13_21h51.07.471,rantool2,2021.1.4,Win32,60.0240096,5f5fcdeeb83c880812a2d804,60d9d14f4a8a35a482e0d9bf,60edee48a86eb1a09e0f7bc0,,,,,,,,,,,,
"[""period""]",0,[0.24500000000000455],105,0,105,0,1,5f5fcdeeb83c880812a2d804,Mężczyzna,18,2021-07-13_21h51.07.471,rantool2,2021.1.4,Win32,60.0240096,5f5fcdeeb83c880812a2d804,60d9d14f4a8a35a482e0d9bf,60edee48a86eb1a09e0f7bc0,,,,,,,,,,,,
"[""comma""]",0,[0.22000000000002728],106,0,106,0,1,5f5fcdeeb83c880812a2d804,Mężczyzna,18,2021-07-13_21h51.07.471,rantool2,2021.1.4,Win32,60.0240096,5f5fcdeeb83c880812a2d804,60d9d14f4a8a35a482e0d9bf,60edee48a86eb1a09e0f7bc0,,,,,,,,,,,,
"[""period""]",0,[0.20800000000002683],107,0,107,0,1,5f5fcdeeb83c880812a2d804,Mężczyzna,18,2021-07-13_21h51.07.471,rantool2,2021.1.4,Win32,60.0240096,5f5fcdeeb83c880812a2d804,60d9d14f4a8a35a482e0d9bf,60edee48a86eb1a09e0f7bc0,,,,,,,,,,,,
"[""period""]",0,[0.1519999999999868],108,0,108,0,1,5f5fcdeeb83c880812a2d804,Mężczyzna,18,2021-07-13_21h51.07.471,rantool2,2021.1.4,Win32,60.0240096,5f5fcdeeb83c880812a2d804,60d9d14f4a8a35a482e0d9bf,60edee48a86eb1a09e0f7bc0,,,,,,,,,,,,
"[""period""]",0,[0.07699999999999818],109,0,109,0,1,5f5fcdeeb83c880812a2d804,Mężczyzna,18,2021-07-13_21h51.07.471,rantool2,2021.1.4,Win32,60.0240096,5f5fcdeeb83c880812a2d804,60d9d14f4a8a35a482e0d9bf,60edee48a86eb1a09e0f7bc0,,,,,,,,,,,,
"[""period""]",0,[0.125],110,0,110,0,1,5f5fcdeeb83c880812a2d804,Mężczyzna,18,2021-07-13_21h51.07.471,rantool2,2021.1.4,Win32,60.0240096,5f5fcdeeb83c880812a2d804,60d9d14f4a8a35a482e0d9bf,60edee48a86eb1a09e0f7bc0,,,,,,,,,,,,
"[""period""]",0,[0.2459999999999809],111,0,111,0,1,5f5fcdeeb83c880812a2d804,Mężczyzna,18,2021-07-13_21h51.07.471,rantool2,2021.1.4,Win32,60.0240096,5f5fcdeeb83c880812a2d804,60d9d14f4a8a35a482e0d9bf,60edee48a86eb1a09e0f7bc0,,,,,,,,,,,,
"[""comma"",""comma""]",0,"[0.1519999999999868,1.9560000000000173]",112,0,112,0,1,5f5fcdeeb83c880812a2d804,Mężczyzna,18,2021-07-13_21h51.07.471,rantool2,2021.1.4,Win32,60.0240096,5f5fcdeeb83c880812a2d804,60d9d14f4a8a35a482e0d9bf,60edee48a86eb1a09e0f7bc0,,,,,,,,,,,,
0,0,,113,0,113,0,1,5f5fcdeeb83c880812a2d804,Mężczyzna,18,2021-07-13_21h51.07.471,rantool2,2021.1.4,Win32,60.0240096,5f5fcdeeb83c880812a2d804,60d9d14f4a8a35a482e0d9bf,60edee48a86eb1a09e0f7bc0,,,,,,,,,,,,
"[""comma""]",0,[0.18699999999995498],114,0,114,0,1,5f5fcdeeb83c880812a2d804,Mężczyzna,18,2021-07-13_21h51.07.471,rantool2,2021.1.4,Win32,60.0240096,5f5fcdeeb83c880812a2d804,60d9d14f4a8a35a482e0d9bf,60edee48a86eb1a09e0f7bc0,,,,,,,,,,,,
"[""comma""]",0,[0.28600000000000136],115,0,115,0,1,5f5fcdeeb83c880812a2d804,Mężczyzna,18,2021-07-13_21h51.07.471,rantool2,2021.1.4,Win32,60.0240096,5f5fcdeeb83c880812a2d804,60d9d14f4a8a35a482e0d9bf,60edee48a86eb1a09e0f7bc0,,,,,,,,,,,,
"[""period""]",0,[0.15299999999996317],116,0,116,0,1,5f5fcdeeb83c880812a2d804,Mężczyzna,18,2021-07-13_21h51.07.471,rantool2,2021.1.4,Win32,60.0240096,5f5fcdeeb83c880812a2d804,60d9d14f4a8a35a482e0d9bf,60edee48a86eb1a09e0f7bc0,,,,,,,,,,,,
"[""comma""]",0,[0.05299999999999727],117,0,117,0,1,5f5fcdeeb83c880812a2d804,Mężczyzna,18,2021-07-13_21h51.07.471,rantool2,2021.1.4,Win32,60.0240096,5f5fcdeeb83c880812a2d804,60d9d14f4a8a35a482e0d9bf,60edee48a86eb1a09e0f7bc0,,,,,,,,,,,,
"[""comma""]",0,[0.11000000000001364],118,0,118,0,1,5f5fcdeeb83c880812a2d804,Mężczyzna,18,2021-07-13_21h51.07.471,rantool2,2021.1.4,Win32,60.0240096,5f5fcdeeb83c880812a2d804,60d9d14f4a8a35a482e0d9bf,60edee48a86eb1a09e0f7bc0,,,,,,,,,,,,
"[""comma""]",0,[0.27600000000001046],119,0,119,0,1,5f5fcdeeb83c880812a2d804,Mężczyzna,18,2021-07-13_21h51.07.471,rantool2,2021.1.4,Win32,60.0240096,5f5fcdeeb83c880812a2d804,60d9d14f4a8a35a482e0d9bf,60edee48a86eb1a09e0f7bc0,,,,,,,,,,,,
,,,,,,,,5f5fcdeeb83c880812a2d804,Mężczyzna,18,2021-07-13_21h51.07.471,rantool2,2021.1.4,Win32,60.0240096,5f5fcdeeb83c880812a2d804,60d9d14f4a8a35a482e0d9bf,60edee48a86eb1a09e0f7bc0,j,3.571,0,0,0,37,1,ROORORO,ROORORR,20.42602454,21.57657071,series_1
,,,,,,,,5f5fcdeeb83c880812a2d804,Mężczyzna,18,2021-07-13_21h51.07.471,rantool2,2021.1.4,Win32,60.0240096,5f5fcdeeb83c880812a2d804,60d9d14f4a8a35a482e0d9bf,60edee48a86eb1a09e0f7bc0,f,3.185,0,1,1,27,1,ORRORRO,ORRORRR,21.55250791,22.2428857,series_1
,,,,,,,,5f5fcdeeb83c880812a2d804,Mężczyzna,18,2021-07-13_21h51.07.471,rantool2,2021.1.4,Win32,60.0240096,5f5fcdeeb83c880812a2d804,60d9d14f4a8a35a482e0d9bf,60edee48a86eb1a09e0f7bc0,f,2.726,0,2,2,2,1,OOOOROO,OOOOROR,20.43051175,21.02936224,series_1
,,,,,,,,5f5fcdeeb83c880812a2d804,Mężczyzna,18,2021-07-13_21h51.07.471,rantool2,2021.1.4,Win32,60.0240096,5f5fcdeeb83c880812a2d804,60d9d14f4a8a35a482e0d9bf,60edee48a86eb1a09e0f7bc0,j,2.86,0,3,3,58,1,RRROROO,RRROROR,22.1285618,21.37121559,series_0
,,,,,,,,5f5fcdeeb83c880812a2d804,Mężczyzna,18,2021-07-13_21h51.07.471,rantool2,2021.1.4,Win32,60.0240096,5f5fcdeeb83c880812a2d804,60d9d14f4a8a35a482e0d9bf,60edee48a86eb1a09e0f7bc0,f,1.89,0,4,4,36,1,ROOROOO,ROOROOR,21.07991943,20.9984461,series_0
,,,,,,,,5f5fcdeeb83c880812a2d804,Mężczyzna,18,2021-07-13_21h51.07.471,rantool2,2021.1.4,Win32,60.0240096,5f5fcdeeb83c880812a2d804,60d9d14f4a8a35a482e0d9bf,60edee48a86eb1a09e0f7bc0,j,2.051,0,5,5,11,1,OORORRO,OORORRR,22.18365867,22.6797523,series_1
,,,,,,,,5f5fcdeeb83c880812a2d804,Mężczyzna,18,2021-07-13_21h51.07.471,rantool2,2021.1.4,Win32,60.0240096,5f5fcdeeb83c880812a2d804,60d9d14f4a8a35a482e0d9bf,60edee48a86eb1a09e0f7bc0,f,2.053,0,6,6,14,1,OORRROO,OORRROR,22.24142883,22.16977179,series_0
,,,,,,,,5f5fcdeeb83c880812a2d804,Mężczyzna,18,2021-07-13_21h51.07.471,rantool2,2021.1.4,Win32,60.0240096,5f5fcdeeb83c880812a2d804,60d9d14f4a8a35a482e0d9bf,60edee48a86eb1a09e0f7bc0,f,2.519,0,7,7,17,1,OROOORO,OROOORR,21.03750787,22.12173012,series_1
,,,,,,,,5f5fcdeeb83c880812a2d804,Mężczyzna,18,2021-07-13_21h51.07.471,rantool2,2021.1.4,Win32,60.0240096,5f5fcdeeb83c880812a2d804,60d9d14f4a8a35a482e0d9bf,60edee48a86eb1a09e0f7bc0,j,2.066,0,8,8,57,1,RRROORO,RRROORR,21.82425538,22.07102821,series_1
,,,,,,,,5f5fcdeeb83c880812a2d804,Mężczyzna,18,2021-07-13_21h51.07.471,rantool2,2021.1.4,Win32,60.0240096,5f5fcdeeb83c880812a2d804,60d9d14f4a8a35a482e0d9bf,60edee48a86eb1a09e0f7bc0,f,2.041,0,9,9,0,1,OOOOOOO,OOOOOOR,18.52739004,19.62521613,series_1
,,,,,,,,5f5fcdeeb83c880812a2d804,Mężczyzna,18,2021-07-13_21h51.07.471,rantool2,2021.1.4,Win32,60.0240096,5f5fcdeeb83c880812a2d804,60d9d14f4a8a35a482e0d9bf,60edee48a86eb1a09e0f7bc0,j,2.07,0,10,10,24,1,ORROOOO,ORROOOR,21.12383932,22.07102821,series_1
,,,,,,,,5f5fcdeeb83c880812a2d804,Mężczyzna,18,2021-07-13_21h51.07.471,rantool2,2021.1.4,Win32,60.0240096,5f5fcdeeb83c880812a2d804,60d9d14f4a8a35a482e0d9bf,60edee48a86eb1a09e0f7bc0,j,1.952,0,11,11,20,1,OROROOO,OROROOR,21.31236711,21.90565814,series_1
,,,,,,,,5f5fcdeeb83c880812a2d804,Mężczyzna,18,2021-07-13_21h51.07.471,rantool2,2021.1.4,Win32,60.0240096,5f5fcdeeb83c880812a2d804,60d9d14f4a8a35a482e0d9bf,60edee48a86eb1a09e0f7bc0,f,1.686,0,12,12,16,1,OROOOOO,OROOOOR,20.43051175,21.17347734,series_1
,,,,,,,,5f5fcdeeb83c880812a2d804,Mężczyzna,18,2021-07-13_21h51.07.471,rantool2,2021.1.4,Win32,60.0240096,5f5fcdeeb83c880812a2d804,60d9d14f4a8a35a482e0d9bf,60edee48a86eb1a09e0f7bc0,f,2.155,0,13,13,48,1,RROOOOO,RROOOOR,20.90986523,22.15934078,series_1
,,,,,,,,5f5fcdeeb83c880812a2d804,Mężczyzna,18,2021-07-13_21h51.07.471,rantool2,2021.1.4,Win32,60.0240096,5f5fcdeeb83c880812a2d804,60d9d14f4a8a35a482e0d9bf,60edee48a86eb1a09e0f7bc0,f,1.7,0,14,14,12,1,OORROOO,OORROOR,21.30250474,22.02786418,series_1
,,,,,,,,5f5fcdeeb83c880812a2d804,Mężczyzna,18,2021-07-13_21h51.07.471,rantool2,2021.1.4,Win32,60.0240096,5f5fcdeeb83c880812a2d804,60d9d14f4a8a35a482e0d9bf,60edee48a86eb1a09e0f7bc0,j,1.739,0,15,15,51,1,RROORRO,RROORRR,21.89852628,22.02786418,series_1
,,,,,,,,5f5fcdeeb83c880812a2d804,Mężczyzna,18,2021-07-13_21h51.07.471,rantool2,2021.1.4,Win32,60.0240096,5f5fcdeeb83c880812a2d804,60d9d14f4a8a35a482e0d9bf,60edee48a86eb1a09e0f7bc0,j,1.972,0,16,16,1,1,OOOOORO,OOOOORR,19.92253567,20.74050628,series_1
,,,,,,,,5f5fcdeeb83c880812a2d804,Mężczyzna,18,2021-07-13_21h51.07.471,rantool2,2021.1.4,Win32,60.0240096,5f5fcdeeb83c880812a2d804,60d9d14f4a8a35a482e0d9bf,60edee48a86eb1a09e0f7bc0,f,2.056,0,17,17,63,1,RRRRRRO,RRRRRRR,21.35278725,19.62521613,series_0
,,,,,,,,5f5fcdeeb83c880812a2d804,Mężczyzna,18,2021-07-13_21h51.07.471,rantool2,2021.1.4,Win32,60.0240096,5f5fcdeeb83c880812a2d804,60d9d14f4a8a35a482e0d9bf,60edee48a86eb1a09e0f7bc0,j,1.893,0,18,18,23,1,ORORRRO,ORORRRR,22.1285618,21.9921709,series_0
,,,,,,,,5f5fcdeeb83c880812a2d804,Mężczyzna,18,2021-07-13_21h51.07.471,rantool2,2021.1.4,Win32,60.0240096,5f5fcdeeb83c880812a2d804,60d9d14f4a8a35a482e0d9bf,60edee48a86eb1a09e0f7bc0,j,2.002,0,19,19,21,1,ORORORO,ORORORR,20.39515459,22.06781359,series_1
,,,,,,,,5f5fcdeeb83c880812a2d804,Mężczyzna,18,2021-07-13_21h51.07.471,rantool2,2021.1.4,Win32,60.0240096,5f5fcdeeb83c880812a2d804,60d9d14f4a8a35a482e0d9bf,60edee48a86eb1a09e0f7bc0,j,2.07,0,20,20,53,1,RRORORO,RRORORR,20.71309134,21.90565814,series_1
,,,,,,,,5f5fcdeeb83c880812a2d804,Mężczyzna,18,2021-07-13_21h51.07.471,rantool2,2021.1.4,Win32,60.0240096,5f5fcdeeb83c880812a2d804,60d9d14f4a8a35a482e0d9bf,60edee48a86eb1a09e0f7bc0,j,2.253,0,21,21,8,1,OOROOOO,OOROOOR,19.91402015,20.89823192,series_1
,,,,,,,,5f5fcdeeb83c880812a2d804,Mężczyzna,18,2021-07-13_21h51.07.471,rantool2,2021.1.4,Win32,60.0240096,5f5fcdeeb83c880812a2d804,60d9d14f4a8a35a482e0d9bf,60edee48a86eb1a09e0f7bc0,f,1.821,0,22,22,56,1,RRROOOO,RRROOOR,21.6194508,22.31681875,series_1
,,,,,,,,5f5fcdeeb83c880812a2d804,Mężczyzna,18,2021-07-13_21h51.07.471,rantool2,2021.1.4,Win32,60.0240096,5f5fcdeeb83c880812a2d804,60d9d14f4a8a35a482e0d9bf,60edee48a86eb1a09e0f7bc0,f,1.952,0,23,23,41,1,ROROORO,ROROORR,20.42602454,21.71443381,series_1
,,,,,,,,5f5fcdeeb83c880812a2d804,Mężczyzna,18,2021-07-13_21h51.07.471,rantool2,2021.1.4,Win32,60.0240096,5f5fcdeeb83c880812a2d804,60d9d14f4a8a35a482e0d9bf,60edee48a86eb1a09e0f7bc0,j,1.971,0,24,24,61,1,RRRRORO,RRRRORR,21.81333602,21.17347734,series_0
,,,,,,,,5f5fcdeeb83c880812a2d804,Mężczyzna,18,2021-07-13_21h51.07.471,rantool2,2021.1.4,Win32,60.0240096,5f5fcdeeb83c880812a2d804,60d9d14f4a8a35a482e0d9bf,60edee48a86eb1a09e0f7bc0,f,1.643,0,25,25,6,1,OOORROO,OOORROR,21.12383932,21.38562617,series_1
,,,,,,,,5f5fcdeeb83c880812a2d804,Mężczyzna,18,2021-07-13_21h51.07.471,rantool2,2021.1.4,Win32,60.0240096,5f5fcdeeb83c880812a2d804,60d9d14f4a8a35a482e0d9bf,60edee48a86eb1a09e0f7bc0,j,1.585,0,26,26,18,1,OROOROO,OROOROR,20.84860893,21.22513037,series_1
,,,,,,,,5f5fcdeeb83c880812a2d804,Mężczyzna,18,2021-07-13_21h51.07.471,rantool2,2021.1.4,Win32,60.0240096,5f5fcdeeb83c880812a2d804,60d9d14f4a8a35a482e0d9bf,60edee48a86eb1a09e0f7bc0,f,1.56,0,27,27,7,1,OOORRRO,OOORRRR,21.6194508,21.899017,series_1
,,,,,,,,5f5fcdeeb83c880812a2d804,Mężczyzna,18,2021-07-13_21h51.07.471,rantool2,2021.1.4,Win32,60.0240096,5f5fcdeeb83c880812a2d804,60d9d14f4a8a35a482e0d9bf,60edee48a86eb1a09e0f7bc0,j,1.567,0,28,28,33,1,ROOOORO,ROOOORR,20.83779602,22.03072203,series_1
,,,,,,,,5f5fcdeeb83c880812a2d804,Mężczyzna,18,2021-07-13_21h51.07.471,rantool2,2021.1.4,Win32,60.0240096,5f5fcdeeb83c880812a2d804,60d9d14f4a8a35a482e0d9bf,60edee48a86eb1a09e0f7bc0,j,1.625,0,29,29,28,1,ORRROOO,ORRROOR,22.24142883,22.53364006,series_1
,,,,,,,,5f5fcdeeb83c880812a2d804,Mężczyzna,18,2021-07-13_21h51.07.471,rantool2,2021.1.4,Win32,60.0240096,5f5fcdeeb83c880812a2d804,60d9d14f4a8a35a482e0d9bf,60edee48a86eb1a09e0f7bc0,j,1.635,0,30,30,9,1,OOROORO,OOROORR,21.07991943,22.2428857,series_1
,,,,,,,,5f5fcdeeb83c880812a2d804,Mężczyzna,18,2021-07-13_21h51.07.471,rantool2,2021.1.4,Win32,60.0240096,5f5fcdeeb83c880812a2d804,60d9d14f4a8a35a482e0d9bf,60edee48a86eb1a09e0f7bc0,j,1.459,0,31,31,50,1,RROOROO,RROOROR,21.73568164,22.02566557,series_1
,,,,,,,,5f5fcdeeb83c880812a2d804,Mężczyzna,18,2021-07-13_21h51.07.471,rantool2,2021.1.4,Win32,60.0240096,5f5fcdeeb83c880812a2d804,60d9d14f4a8a35a482e0d9bf,60edee48a86eb1a09e0f7bc0,j,1.47,0,32,32,60,1,RRRROOO,RRRROOR,22.10108823,22.15934078,series_1
,,,,,,,,5f5fcdeeb83c880812a2d804,Mężczyzna,18,2021-07-13_21h51.07.471,rantool2,2021.1.4,Win32,60.0240096,5f5fcdeeb83c880812a2d804,60d9d14f4a8a35a482e0d9bf,60edee48a86eb1a09e0f7bc0,j,1.553,0,33,33,29,1,ORRRORO,ORRRORR,22.00300695,22.12173012,series_1
,,,,,,,,5f5fcdeeb83c880812a2d804,Mężczyzna,18,2021-07-13_21h51.07.471,rantool2,2021.1.4,Win32,60.0240096,5f5fcdeeb83c880812a2d804,60d9d14f4a8a35a482e0d9bf,60edee48a86eb1a09e0f7bc0,f,1.524,0,34,34,55,1,RRORRRO,RRORRRR,21.56657303,21.21223021,series_0
,,,,,,,,5f5fcdeeb83c880812a2d804,Mężczyzna,18,2021-07-13_21h51.07.471,rantool2,2021.1.4,Win32,60.0240096,5f5fcdeeb83c880812a2d804,60d9d14f4a8a35a482e0d9bf,60edee48a86eb1a09e0f7bc0,f,1.468,0,35,35,59,1,RRRORRO,RRRORRR,21.56657303,20.89823192,series_0
,,,,,,,,5f5fcdeeb83c880812a2d804,Mężczyzna,18,2021-07-13_21h51.07.471,rantool2,2021.1.4,Win32,60.0240096,5f5fcdeeb83c880812a2d804,60d9d14f4a8a35a482e0d9bf,60edee48a86eb1a09e0f7bc0,j,1.491,0,36,36,54,1,RRORROO,RRORROR,21.55250791,20.9984461,series_0
,,,,,,,,5f5fcdeeb83c880812a2d804,Mężczyzna,18,2021-07-13_21h51.07.471,rantool2,2021.1.4,Win32,60.0240096,5f5fcdeeb83c880812a2d804,60d9d14f4a8a35a482e0d9bf,60edee48a86eb1a09e0f7bc0,f,1.288,0,37,37,45,1,RORRORO,RORRORR,20.78182524,21.22513037,series_1
,,,,,,,,5f5fcdeeb83c880812a2d804,Mężczyzna,18,2021-07-13_21h51.07.471,rantool2,2021.1.4,Win32,60.0240096,5f5fcdeeb83c880812a2d804,60d9d14f4a8a35a482e0d9bf,60edee48a86eb1a09e0f7bc0,j,1.393,0,38,38,42,1,ROROROO,ROROROR,20.39515459,19.8361834,series_0
,,,,,,,,5f5fcdeeb83c880812a2d804,Mężczyzna,18,2021-07-13_21h51.07.471,rantool2,2021.1.4,Win32,60.0240096,5f5fcdeeb83c880812a2d804,60d9d14f4a8a35a482e0d9bf,60edee48a86eb1a09e0f7bc0,f,3.855,0,39,39,22,1,ORORROO,ORORROR,22.02732763,21.57657071,series_0
,,,,,,,,5f5fcdeeb83c880812a2d804,Mężczyzna,18,2021-07-13_21h51.07.471,rantool2,2021.1.4,Win32,60.0240096,5f5fcdeeb83c880812a2d804,60d9d14f4a8a35a482e0d9bf,60edee48a86eb1a09e0f7bc0,j,3.89,0,40,40,35,1,ROOORRO,ROOORRR,21.76276513,22.16977179,series_1
,,,,,,,,5f5fcdeeb83c880812a2d804,Mężczyzna,18,2021-07-13_21h51.07.471,rantool2,2021.1.4,Win32,60.0240096,5f5fcdeeb83c880812a2d804,60d9d14f4a8a35a482e0d9bf,60edee48a86eb1a09e0f7bc0,f,3.561,0,41,41,13,1,OORRORO,OORRORR,21.66733484,22.11181017,series_1
,,,,,,,,5f5fcdeeb83c880812a2d804,Mężczyzna,18,2021-07-13_21h51.07.471,rantool2,2021.1.4,Win32,60.0240096,5f5fcdeeb83c880812a2d804,60d9d14f4a8a35a482e0d9bf,60edee48a86eb1a09e0f7bc0,j,2.685,0,42,42,34,1,ROOOROO,ROOOROR,21.03750787,21.24781509,series_1
,,,,,,,,5f5fcdeeb83c880812a2d804,Mężczyzna,18,2021-07-13_21h51.07.471,rantool2,2021.1.4,Win32,60.0240096,5f5fcdeeb83c880812a2d804,60d9d14f4a8a35a482e0d9bf,60edee48a86eb1a09e0f7bc0,f,3.002,0,43,43,32,1,ROOOOOO,ROOOOOR,19.92253567,21.27974287,series_1
,,,,,,,,5f5fcdeeb83c880812a2d804,Mężczyzna,18,2021-07-13_21h51.07.471,rantool2,2021.1.4,Win32,60.0240096,5f5fcdeeb83c880812a2d804,60d9d14f4a8a35a482e0d9bf,60edee48a86eb1a09e0f7bc0,f,2.768,0,44,44,38,1,ROORROO,ROORROR,21.79500819,21.36812781,series_0
,,,,,,,,5f5fcdeeb83c880812a2d804,Mężczyzna,18,2021-07-13_21h51.07.471,rantool2,2021.1.4,Win32,60.0240096,5f5fcdeeb83c880812a2d804,60d9d14f4a8a35a482e0d9bf,60edee48a86eb1a09e0f7bc0,j,3.569,0,45,45,10,1,OOROROO,OOROROR,21.31236711,21.07490964,series_0
,,,,,,,,5f5fcdeeb83c880812a2d804,Mężczyzna,18,2021-07-13_21h51.07.471,rantool2,2021.1.4,Win32,60.0240096,5f5fcdeeb83c880812a2d804,60d9d14f4a8a35a482e0d9bf,60edee48a86eb1a09e0f7bc0,f,3.171,0,46,46,40,1,ROROOOO,ROROOOR,20.87963819,21.37121559,series_1
,,,,,,,,5f5fcdeeb83c880812a2d804,Mężczyzna,18,2021-07-13_21h51.07.471,rantool2,2021.1.4,Win32,60.0240096,5f5fcdeeb83c880812a2d804,60d9d14f4a8a35a482e0d9bf,60edee48a86eb1a09e0f7bc0,j,3.271,0,47,47,52,1,RROROOO,RROROOR,22.18365867,22.11097995,series_0
,,,,,,,,5f5fcdeeb83c880812a2d804,Mężczyzna,18,2021-07-13_21h51.07.471,rantool2,2021.1.4,Win32,60.0240096,5f5fcdeeb83c880812a2d804,60d9d14f4a8a35a482e0d9bf,60edee48a86eb1a09e0f7bc0,j,3.488,0,48,48,47,1,RORRRRO,RORRRRR,21.81333602,21.02936224,series_0
,,,,,,,,5f5fcdeeb83c880812a2d804,Mężczyzna,18,2021-07-13_21h51.07.471,rantool2,2021.1.4,Win32,60.0240096,5f5fcdeeb83c880812a2d804,60d9d14f4a8a35a482e0d9bf,60edee48a86eb1a09e0f7bc0,f,3.617,0,49,49,49,1,RROOORO,RROOORR,21.76276513,22.53364006,series_1
,,,,,,,,5f5fcdeeb83c880812a2d804,Mężczyzna,18,2021-07-13_21h51.07.471,rantool2,2021.1.4,Win32,60.0240096,5f5fcdeeb83c880812a2d804,60d9d14f4a8a35a482e0d9bf,60edee48a86eb1a09e0f7bc0,j,3.716,0,50,50,31,1,ORRRRRO,ORRRRRR,22.16413392,20.74050628,series_0
,,,,,,,,5f5fcdeeb83c880812a2d804,Mężczyzna,18,2021-07-13_21h51.07.471,rantool2,2021.1.4,Win32,60.0240096,5f5fcdeeb83c880812a2d804,60d9d14f4a8a35a482e0d9bf,60edee48a86eb1a09e0f7bc0,j,3.577,0,51,51,39,1,ROORRRO,ROORRRR,21.82425538,21.38562617,series_0
,,,,,,,,5f5fcdeeb83c880812a2d804,Mężczyzna,18,2021-07-13_21h51.07.471,rantool2,2021.1.4,Win32,60.0240096,5f5fcdeeb83c880812a2d804,60d9d14f4a8a35a482e0d9bf,60edee48a86eb1a09e0f7bc0,j,3.674,0,52,52,3,1,OOOORRO,OOOORRR,20.90986523,21.74922619,series_1
,,,,,,,,5f5fcdeeb83c880812a2d804,Mężczyzna,18,2021-07-13_21h51.07.471,rantool2,2021.1.4,Win32,60.0240096,5f5fcdeeb83c880812a2d804,60d9d14f4a8a35a482e0d9bf,60edee48a86eb1a09e0f7bc0,j,3.842,0,53,53,15,1,OORRRRO,OORRRRR,22.10108823,21.74922619,series_0
,,,,,,,,5f5fcdeeb83c880812a2d804,Mężczyzna,18,2021-07-13_21h51.07.471,rantool2,2021.1.4,Win32,60.0240096,5f5fcdeeb83c880812a2d804,60d9d14f4a8a35a482e0d9bf,60edee48a86eb1a09e0f7bc0,f,3.484,0,54,54,19,1,OROORRO,OROORRR,21.73568164,22.11181017,series_1
,,,,,,,,5f5fcdeeb83c880812a2d804,Mężczyzna,18,2021-07-13_21h51.07.471,rantool2,2021.1.4,Win32,60.0240096,5f5fcdeeb83c880812a2d804,60d9d14f4a8a35a482e0d9bf,60edee48a86eb1a09e0f7bc0,j,2.475,0,55,55,26,1,ORROROO,ORROROR,22.02732763,21.71443381,series_0
,,,,,,,,5f5fcdeeb83c880812a2d804,Mężczyzna,18,2021-07-13_21h51.07.471,rantool2,2021.1.4,Win32,60.0240096,5f5fcdeeb83c880812a2d804,60d9d14f4a8a35a482e0d9bf,60edee48a86eb1a09e0f7bc0,f,2.676,0,56,56,62,1,RRRRROO,RRRRROR,22.16413392,21.27974287,series_0
,,,,,,,,5f5fcdeeb83c880812a2d804,Mężczyzna,18,2021-07-13_21h51.07.471,rantool2,2021.1.4,Win32,60.0240096,5f5fcdeeb83c880812a2d804,60d9d14f4a8a35a482e0d9bf,60edee48a86eb1a09e0f7bc0,j,3.119,0,57,57,46,1,RORRROO,RORRROR,22.00300695,21.24781509,series_0
,,,,,,,,5f5fcdeeb83c880812a2d804,Mężczyzna,18,2021-07-13_21h51.07.471,rantool2,2021.1.4,Win32,60.0240096,5f5fcdeeb83c880812a2d804,60d9d14f4a8a35a482e0d9bf,60edee48a86eb1a09e0f7bc0,f,3.15,0,58,58,4,1,OOOROOO,OOOROOR,19.91402015,21.21223021,series_1
,,,,,,,,5f5fcdeeb83c880812a2d804,Mężczyzna,18,2021-07-13_21h51.07.471,rantool2,2021.1.4,Win32,60.0240096,5f5fcdeeb83c880812a2d804,60d9d14f4a8a35a482e0d9bf,60edee48a86eb1a09e0f7bc0,f,3.058,0,59,59,25,1,ORROORO,ORROORR,21.79500819,22.61624387,series_1
,,,,,,,,5f5fcdeeb83c880812a2d804,Mężczyzna,18,2021-07-13_21h51.07.471,rantool2,2021.1.4,Win32,60.0240096,5f5fcdeeb83c880812a2d804,60d9d14f4a8a35a482e0d9bf,60edee48a86eb1a09e0f7bc0,j,3.822,0,60,60,43,1,RORORRO,RORORRR,20.71309134,21.07490964,series_1
,,,,,,,,5f5fcdeeb83c880812a2d804,Mężczyzna,18,2021-07-13_21h51.07.471,rantool2,2021.1.4,Win32,60.0240096,5f5fcdeeb83c880812a2d804,60d9d14f4a8a35a482e0d9bf,60edee48a86eb1a09e0f7bc0,f,1.267,0,61,61,5,1,OOORORO,OOORORR,20.87963819,21.9921709,series_1
,,,,,,,,5f5fcdeeb83c880812a2d804,Mężczyzna,18,2021-07-13_21h51.07.471,rantool2,2021.1.4,Win32,60.0240096,5f5fcdeeb83c880812a2d804,60d9d14f4a8a35a482e0d9bf,60edee48a86eb1a09e0f7bc0,f,2.111,0,62,62,44,1,RORROOO,RORROOR,21.66733484,22.02566557,series_1
,,,,,,,,5f5fcdeeb83c880812a2d804,Mężczyzna,18,2021-07-13_21h51.07.471,rantool2,2021.1.4,Win32,60.0240096,5f5fcdeeb83c880812a2d804,60d9d14f4a8a35a482e0d9bf,60edee48a86eb1a09e0f7bc0,j,2.902,0,63,63,30,1,ORRRROO,ORRRROR,22.46748491,22.03072203,series_0
