key_resp_5.keys,key_resp_5.corr,key_resp_5.rt,trials.thisRepN,trials.thisTrialN,trials.thisN,trials.thisIndex,trials.ran,id*,Płeć*,Wiek*,date,expName,psychopyVersion,OS,frameRate,id,STUDY_ID,SESSION_ID,key_resp_7.keys,key_resp_7.rt,trials_2.thisRepN,trials_2.thisTrialN,trials_2.thisN,trials_2.thisIndex,trials_2.ran,series_0,series_1,acss_0,acss_1,comparison
"[""comma""]",0,[0.9221000000238462],0,0,0,0,1,5fcca076e2e6deaf9f1055d7,Mężczyzna,21,2021-07-13_21h09.52.480,rantool2,2021.1.4,Win32,59.96282305,5fcca076e2e6deaf9f1055d7,60d9d14f4a8a35a482e0d9bf,60ede4e8e6f70b1504e6b5ad,,,,,,,,,,,,
"[""period""]",0,[0.43260000002383947],1,0,1,0,1,5fcca076e2e6deaf9f1055d7,Mężczyzna,21,2021-07-13_21h09.52.480,rantool2,2021.1.4,Win32,59.96282305,5fcca076e2e6deaf9f1055d7,60d9d14f4a8a35a482e0d9bf,60ede4e8e6f70b1504e6b5ad,,,,,,,,,,,,
"[""comma""]",0,[0.43429999995231583],2,0,2,0,1,5fcca076e2e6deaf9f1055d7,Mężczyzna,21,2021-07-13_21h09.52.480,rantool2,2021.1.4,Win32,59.96282305,5fcca076e2e6deaf9f1055d7,60d9d14f4a8a35a482e0d9bf,60ede4e8e6f70b1504e6b5ad,,,,,,,,,,,,
"[""period""]",0,[0.285499999999999],3,0,3,0,1,5fcca076e2e6deaf9f1055d7,Mężczyzna,21,2021-07-13_21h09.52.480,rantool2,2021.1.4,Win32,59.96282305,5fcca076e2e6deaf9f1055d7,60d9d14f4a8a35a482e0d9bf,60ede4e8e6f70b1504e6b5ad,,,,,,,,,,,,
"[""period""]",0,[0.28419999998808976],4,0,4,0,1,5fcca076e2e6deaf9f1055d7,Mężczyzna,21,2021-07-13_21h09.52.480,rantool2,2021.1.4,Win32,59.96282305,5fcca076e2e6deaf9f1055d7,60d9d14f4a8a35a482e0d9bf,60ede4e8e6f70b1504e6b5ad,,,,,,,,,,,,
"[""period""]",0,[0.30580000001191365],5,0,5,0,1,5fcca076e2e6deaf9f1055d7,Mężczyzna,21,2021-07-13_21h09.52.480,rantool2,2021.1.4,Win32,59.96282305,5fcca076e2e6deaf9f1055d7,60d9d14f4a8a35a482e0d9bf,60ede4e8e6f70b1504e6b5ad,,,,,,,,,,,,
"[""comma""]",0,[0.2828000000119175],6,0,6,0,1,5fcca076e2e6deaf9f1055d7,Mężczyzna,21,2021-07-13_21h09.52.480,rantool2,2021.1.4,Win32,59.96282305,5fcca076e2e6deaf9f1055d7,60d9d14f4a8a35a482e0d9bf,60ede4e8e6f70b1504e6b5ad,,,,,,,,,,,,
"[""comma""]",0,[0.2341999999880784],7,0,7,0,1,5fcca076e2e6deaf9f1055d7,Mężczyzna,21,2021-07-13_21h09.52.480,rantool2,2021.1.4,Win32,59.96282305,5fcca076e2e6deaf9f1055d7,60d9d14f4a8a35a482e0d9bf,60ede4e8e6f70b1504e6b5ad,,,,,,,,,,,,
"[""period""]",0,[0.2663000000119098],8,0,8,0,1,5fcca076e2e6deaf9f1055d7,Mężczyzna,21,2021-07-13_21h09.52.480,rantool2,2021.1.4,Win32,59.96282305,5fcca076e2e6deaf9f1055d7,60d9d14f4a8a35a482e0d9bf,60ede4e8e6f70b1504e6b5ad,,,,,,,,,,,,
"[""comma""]",0,[0.20890000003576858],9,0,9,0,1,5fcca076e2e6deaf9f1055d7,Mężczyzna,21,2021-07-13_21h09.52.480,rantool2,2021.1.4,Win32,59.96282305,5fcca076e2e6deaf9f1055d7,60d9d14f4a8a35a482e0d9bf,60ede4e8e6f70b1504e6b5ad,,,,,,,,,,,,
"[""comma""]",0,[0.34960000002384106],10,0,10,0,1,5fcca076e2e6deaf9f1055d7,Mężczyzna,21,2021-07-13_21h09.52.480,rantool2,2021.1.4,Win32,59.96282305,5fcca076e2e6deaf9f1055d7,60d9d14f4a8a35a482e0d9bf,60ede4e8e6f70b1504e6b5ad,,,,,,,,,,,,
"[""period""]",0,[0.29810000002383674],11,0,11,0,1,5fcca076e2e6deaf9f1055d7,Mężczyzna,21,2021-07-13_21h09.52.480,rantool2,2021.1.4,Win32,59.96282305,5fcca076e2e6deaf9f1055d7,60d9d14f4a8a35a482e0d9bf,60ede4e8e6f70b1504e6b5ad,,,,,,,,,,,,
"[""comma""]",0,[0.2827000000476829],12,0,12,0,1,5fcca076e2e6deaf9f1055d7,Mężczyzna,21,2021-07-13_21h09.52.480,rantool2,2021.1.4,Win32,59.96282305,5fcca076e2e6deaf9f1055d7,60d9d14f4a8a35a482e0d9bf,60ede4e8e6f70b1504e6b5ad,,,,,,,,,,,,
"[""comma""]",0,[0.3061999999880811],13,0,13,0,1,5fcca076e2e6deaf9f1055d7,Mężczyzna,21,2021-07-13_21h09.52.480,rantool2,2021.1.4,Win32,59.96282305,5fcca076e2e6deaf9f1055d7,60d9d14f4a8a35a482e0d9bf,60ede4e8e6f70b1504e6b5ad,,,,,,,,,,,,
"[""period""]",0,[0.27310000002383106],14,0,14,0,1,5fcca076e2e6deaf9f1055d7,Mężczyzna,21,2021-07-13_21h09.52.480,rantool2,2021.1.4,Win32,59.96282305,5fcca076e2e6deaf9f1055d7,60d9d14f4a8a35a482e0d9bf,60ede4e8e6f70b1504e6b5ad,,,,,,,,,,,,
"[""period""]",0,[0.21839999997615678],15,0,15,0,1,5fcca076e2e6deaf9f1055d7,Mężczyzna,21,2021-07-13_21h09.52.480,rantool2,2021.1.4,Win32,59.96282305,5fcca076e2e6deaf9f1055d7,60d9d14f4a8a35a482e0d9bf,60ede4e8e6f70b1504e6b5ad,,,,,,,,,,,,
"[""period""]",0,[0.22630000001191775],16,0,16,0,1,5fcca076e2e6deaf9f1055d7,Mężczyzna,21,2021-07-13_21h09.52.480,rantool2,2021.1.4,Win32,59.96282305,5fcca076e2e6deaf9f1055d7,60d9d14f4a8a35a482e0d9bf,60ede4e8e6f70b1504e6b5ad,,,,,,,,,,,,
"[""comma""]",0,[0.21759999996423574],17,0,17,0,1,5fcca076e2e6deaf9f1055d7,Mężczyzna,21,2021-07-13_21h09.52.480,rantool2,2021.1.4,Win32,59.96282305,5fcca076e2e6deaf9f1055d7,60d9d14f4a8a35a482e0d9bf,60ede4e8e6f70b1504e6b5ad,,,,,,,,,,,,
"[""period""]",0,[0.2985999999642388],18,0,18,0,1,5fcca076e2e6deaf9f1055d7,Mężczyzna,21,2021-07-13_21h09.52.480,rantool2,2021.1.4,Win32,59.96282305,5fcca076e2e6deaf9f1055d7,60d9d14f4a8a35a482e0d9bf,60ede4e8e6f70b1504e6b5ad,,,,,,,,,,,,
"[""period""]",0,[0.233699999988076],19,0,19,0,1,5fcca076e2e6deaf9f1055d7,Mężczyzna,21,2021-07-13_21h09.52.480,rantool2,2021.1.4,Win32,59.96282305,5fcca076e2e6deaf9f1055d7,60d9d14f4a8a35a482e0d9bf,60ede4e8e6f70b1504e6b5ad,,,,,,,,,,,,
"[""comma""]",0,[0.1326999999880769],20,0,20,0,1,5fcca076e2e6deaf9f1055d7,Mężczyzna,21,2021-07-13_21h09.52.480,rantool2,2021.1.4,Win32,59.96282305,5fcca076e2e6deaf9f1055d7,60d9d14f4a8a35a482e0d9bf,60ede4e8e6f70b1504e6b5ad,,,,,,,,,,,,
"[""comma""]",0,[0.25849999999999795],21,0,21,0,1,5fcca076e2e6deaf9f1055d7,Mężczyzna,21,2021-07-13_21h09.52.480,rantool2,2021.1.4,Win32,59.96282305,5fcca076e2e6deaf9f1055d7,60d9d14f4a8a35a482e0d9bf,60ede4e8e6f70b1504e6b5ad,,,,,,,,,,,,
"[""period""]",0,[0.18610000002384197],22,0,22,0,1,5fcca076e2e6deaf9f1055d7,Mężczyzna,21,2021-07-13_21h09.52.480,rantool2,2021.1.4,Win32,59.96282305,5fcca076e2e6deaf9f1055d7,60d9d14f4a8a35a482e0d9bf,60ede4e8e6f70b1504e6b5ad,,,,,,,,,,,,
"[""comma""]",0,[0.4668999999761496],23,0,23,0,1,5fcca076e2e6deaf9f1055d7,Mężczyzna,21,2021-07-13_21h09.52.480,rantool2,2021.1.4,Win32,59.96282305,5fcca076e2e6deaf9f1055d7,60d9d14f4a8a35a482e0d9bf,60ede4e8e6f70b1504e6b5ad,,,,,,,,,,,,
"[""period""]",0,[0.2840999999642406],24,0,24,0,1,5fcca076e2e6deaf9f1055d7,Mężczyzna,21,2021-07-13_21h09.52.480,rantool2,2021.1.4,Win32,59.96282305,5fcca076e2e6deaf9f1055d7,60d9d14f4a8a35a482e0d9bf,60ede4e8e6f70b1504e6b5ad,,,,,,,,,,,,
"[""period""]",0,[0.24200000000000443],25,0,25,0,1,5fcca076e2e6deaf9f1055d7,Mężczyzna,21,2021-07-13_21h09.52.480,rantool2,2021.1.4,Win32,59.96282305,5fcca076e2e6deaf9f1055d7,60d9d14f4a8a35a482e0d9bf,60ede4e8e6f70b1504e6b5ad,,,,,,,,,,,,
"[""comma""]",0,[0.13349999999999795],26,0,26,0,1,5fcca076e2e6deaf9f1055d7,Mężczyzna,21,2021-07-13_21h09.52.480,rantool2,2021.1.4,Win32,59.96282305,5fcca076e2e6deaf9f1055d7,60d9d14f4a8a35a482e0d9bf,60ede4e8e6f70b1504e6b5ad,,,,,,,,,,,,
"[""comma""]",0,[0.2739999999999867],27,0,27,0,1,5fcca076e2e6deaf9f1055d7,Mężczyzna,21,2021-07-13_21h09.52.480,rantool2,2021.1.4,Win32,59.96282305,5fcca076e2e6deaf9f1055d7,60d9d14f4a8a35a482e0d9bf,60ede4e8e6f70b1504e6b5ad,,,,,,,,,,,,
"[""period""]",0,[0.20210000002384731],28,0,28,0,1,5fcca076e2e6deaf9f1055d7,Mężczyzna,21,2021-07-13_21h09.52.480,rantool2,2021.1.4,Win32,59.96282305,5fcca076e2e6deaf9f1055d7,60d9d14f4a8a35a482e0d9bf,60ede4e8e6f70b1504e6b5ad,,,,,,,,,,,,
"[""comma"",""period""]",0,"[0.05109999996423653,1.9010000000000105]",29,0,29,0,1,5fcca076e2e6deaf9f1055d7,Mężczyzna,21,2021-07-13_21h09.52.480,rantool2,2021.1.4,Win32,59.96282305,5fcca076e2e6deaf9f1055d7,60d9d14f4a8a35a482e0d9bf,60ede4e8e6f70b1504e6b5ad,,,,,,,,,,,,
0,0,,30,0,30,0,1,5fcca076e2e6deaf9f1055d7,Mężczyzna,21,2021-07-13_21h09.52.480,rantool2,2021.1.4,Win32,59.96282305,5fcca076e2e6deaf9f1055d7,60d9d14f4a8a35a482e0d9bf,60ede4e8e6f70b1504e6b5ad,,,,,,,,,,,,
"[""period""]",0,[0.041400000035764606],31,0,31,0,1,5fcca076e2e6deaf9f1055d7,Mężczyzna,21,2021-07-13_21h09.52.480,rantool2,2021.1.4,Win32,59.96282305,5fcca076e2e6deaf9f1055d7,60d9d14f4a8a35a482e0d9bf,60ede4e8e6f70b1504e6b5ad,,,,,,,,,,,,
"[""comma""]",0,[0.30049999999999955],32,0,32,0,1,5fcca076e2e6deaf9f1055d7,Mężczyzna,21,2021-07-13_21h09.52.480,rantool2,2021.1.4,Win32,59.96282305,5fcca076e2e6deaf9f1055d7,60d9d14f4a8a35a482e0d9bf,60ede4e8e6f70b1504e6b5ad,,,,,,,,,,,,
"[""period""]",0,[0.30519999998807634],33,0,33,0,1,5fcca076e2e6deaf9f1055d7,Mężczyzna,21,2021-07-13_21h09.52.480,rantool2,2021.1.4,Win32,59.96282305,5fcca076e2e6deaf9f1055d7,60d9d14f4a8a35a482e0d9bf,60ede4e8e6f70b1504e6b5ad,,,,,,,,,,,,
"[""comma""]",0,[0.30109999996423653],34,0,34,0,1,5fcca076e2e6deaf9f1055d7,Mężczyzna,21,2021-07-13_21h09.52.480,rantool2,2021.1.4,Win32,59.96282305,5fcca076e2e6deaf9f1055d7,60d9d14f4a8a35a482e0d9bf,60ede4e8e6f70b1504e6b5ad,,,,,,,,,,,,
"[""period"",""comma""]",0,"[0.2581999999880793,1.962199999988087]",35,0,35,0,1,5fcca076e2e6deaf9f1055d7,Mężczyzna,21,2021-07-13_21h09.52.480,rantool2,2021.1.4,Win32,59.96282305,5fcca076e2e6deaf9f1055d7,60d9d14f4a8a35a482e0d9bf,60ede4e8e6f70b1504e6b5ad,,,,,,,,,,,,
0,0,,36,0,36,0,1,5fcca076e2e6deaf9f1055d7,Mężczyzna,21,2021-07-13_21h09.52.480,rantool2,2021.1.4,Win32,59.96282305,5fcca076e2e6deaf9f1055d7,60d9d14f4a8a35a482e0d9bf,60ede4e8e6f70b1504e6b5ad,,,,,,,,,,,,
"[""period""]",0,[0.1499000000357853],37,0,37,0,1,5fcca076e2e6deaf9f1055d7,Mężczyzna,21,2021-07-13_21h09.52.480,rantool2,2021.1.4,Win32,59.96282305,5fcca076e2e6deaf9f1055d7,60d9d14f4a8a35a482e0d9bf,60ede4e8e6f70b1504e6b5ad,,,,,,,,,,,,
"[""comma""]",0,[0.22620000004769736],38,0,38,0,1,5fcca076e2e6deaf9f1055d7,Mężczyzna,21,2021-07-13_21h09.52.480,rantool2,2021.1.4,Win32,59.96282305,5fcca076e2e6deaf9f1055d7,60d9d14f4a8a35a482e0d9bf,60ede4e8e6f70b1504e6b5ad,,,,,,,,,,,,
"[""period""]",0,[0.32210000002385186],39,0,39,0,1,5fcca076e2e6deaf9f1055d7,Mężczyzna,21,2021-07-13_21h09.52.480,rantool2,2021.1.4,Win32,59.96282305,5fcca076e2e6deaf9f1055d7,60d9d14f4a8a35a482e0d9bf,60ede4e8e6f70b1504e6b5ad,,,,,,,,,,,,
"[""period""]",0,[0.31749999999999545],40,0,40,0,1,5fcca076e2e6deaf9f1055d7,Mężczyzna,21,2021-07-13_21h09.52.480,rantool2,2021.1.4,Win32,59.96282305,5fcca076e2e6deaf9f1055d7,60d9d14f4a8a35a482e0d9bf,60ede4e8e6f70b1504e6b5ad,,,,,,,,,,,,
"[""comma""]",0,[0.2740999999642213],41,0,41,0,1,5fcca076e2e6deaf9f1055d7,Mężczyzna,21,2021-07-13_21h09.52.480,rantool2,2021.1.4,Win32,59.96282305,5fcca076e2e6deaf9f1055d7,60d9d14f4a8a35a482e0d9bf,60ede4e8e6f70b1504e6b5ad,,,,,,,,,,,,
"[""period""]",0,[0.25799999999998136],42,0,42,0,1,5fcca076e2e6deaf9f1055d7,Mężczyzna,21,2021-07-13_21h09.52.480,rantool2,2021.1.4,Win32,59.96282305,5fcca076e2e6deaf9f1055d7,60d9d14f4a8a35a482e0d9bf,60ede4e8e6f70b1504e6b5ad,,,,,,,,,,,,
"[""comma""]",0,[0.2664000000357589],43,0,43,0,1,5fcca076e2e6deaf9f1055d7,Mężczyzna,21,2021-07-13_21h09.52.480,rantool2,2021.1.4,Win32,59.96282305,5fcca076e2e6deaf9f1055d7,60d9d14f4a8a35a482e0d9bf,60ede4e8e6f70b1504e6b5ad,,,,,,,,,,,,
"[""comma""]",0,[0.2675999999642329],44,0,44,0,1,5fcca076e2e6deaf9f1055d7,Mężczyzna,21,2021-07-13_21h09.52.480,rantool2,2021.1.4,Win32,59.96282305,5fcca076e2e6deaf9f1055d7,60d9d14f4a8a35a482e0d9bf,60ede4e8e6f70b1504e6b5ad,,,,,,,,,,,,
"[""period""]",0,[0.24169999998807157],45,0,45,0,1,5fcca076e2e6deaf9f1055d7,Mężczyzna,21,2021-07-13_21h09.52.480,rantool2,2021.1.4,Win32,59.96282305,5fcca076e2e6deaf9f1055d7,60d9d14f4a8a35a482e0d9bf,60ede4e8e6f70b1504e6b5ad,,,,,,,,,,,,
"[""comma""]",0,[0.22469999998807566],46,0,46,0,1,5fcca076e2e6deaf9f1055d7,Mężczyzna,21,2021-07-13_21h09.52.480,rantool2,2021.1.4,Win32,59.96282305,5fcca076e2e6deaf9f1055d7,60d9d14f4a8a35a482e0d9bf,60ede4e8e6f70b1504e6b5ad,,,,,,,,,,,,
"[""period""]",0,[0.2571999999880745],47,0,47,0,1,5fcca076e2e6deaf9f1055d7,Mężczyzna,21,2021-07-13_21h09.52.480,rantool2,2021.1.4,Win32,59.96282305,5fcca076e2e6deaf9f1055d7,60d9d14f4a8a35a482e0d9bf,60ede4e8e6f70b1504e6b5ad,,,,,,,,,,,,
"[""period""]",0,[0.28249999999999886],48,0,48,0,1,5fcca076e2e6deaf9f1055d7,Mężczyzna,21,2021-07-13_21h09.52.480,rantool2,2021.1.4,Win32,59.96282305,5fcca076e2e6deaf9f1055d7,60d9d14f4a8a35a482e0d9bf,60ede4e8e6f70b1504e6b5ad,,,,,,,,,,,,
"[""comma""]",0,[0.2413999999761529],49,0,49,0,1,5fcca076e2e6deaf9f1055d7,Mężczyzna,21,2021-07-13_21h09.52.480,rantool2,2021.1.4,Win32,59.96282305,5fcca076e2e6deaf9f1055d7,60d9d14f4a8a35a482e0d9bf,60ede4e8e6f70b1504e6b5ad,,,,,,,,,,,,
"[""period""]",0,[0.18580000001193753],50,0,50,0,1,5fcca076e2e6deaf9f1055d7,Mężczyzna,21,2021-07-13_21h09.52.480,rantool2,2021.1.4,Win32,59.96282305,5fcca076e2e6deaf9f1055d7,60d9d14f4a8a35a482e0d9bf,60ede4e8e6f70b1504e6b5ad,,,,,,,,,,,,
"[""comma""]",0,[0.26739999997613495],51,0,51,0,1,5fcca076e2e6deaf9f1055d7,Mężczyzna,21,2021-07-13_21h09.52.480,rantool2,2021.1.4,Win32,59.96282305,5fcca076e2e6deaf9f1055d7,60d9d14f4a8a35a482e0d9bf,60ede4e8e6f70b1504e6b5ad,,,,,,,,,,,,
"[""comma""]",0,[0.2896999999881018],52,0,52,0,1,5fcca076e2e6deaf9f1055d7,Mężczyzna,21,2021-07-13_21h09.52.480,rantool2,2021.1.4,Win32,59.96282305,5fcca076e2e6deaf9f1055d7,60d9d14f4a8a35a482e0d9bf,60ede4e8e6f70b1504e6b5ad,,,,,,,,,,,,
"[""period""]",0,[0.2664999999999793],53,0,53,0,1,5fcca076e2e6deaf9f1055d7,Mężczyzna,21,2021-07-13_21h09.52.480,rantool2,2021.1.4,Win32,59.96282305,5fcca076e2e6deaf9f1055d7,60d9d14f4a8a35a482e0d9bf,60ede4e8e6f70b1504e6b5ad,,,,,,,,,,,,
"[""comma""]",0,[0.20989999997615882],54,0,54,0,1,5fcca076e2e6deaf9f1055d7,Mężczyzna,21,2021-07-13_21h09.52.480,rantool2,2021.1.4,Win32,59.96282305,5fcca076e2e6deaf9f1055d7,60d9d14f4a8a35a482e0d9bf,60ede4e8e6f70b1504e6b5ad,,,,,,,,,,,,
"[""period""]",0,[0.22639999997616655],55,0,55,0,1,5fcca076e2e6deaf9f1055d7,Mężczyzna,21,2021-07-13_21h09.52.480,rantool2,2021.1.4,Win32,59.96282305,5fcca076e2e6deaf9f1055d7,60d9d14f4a8a35a482e0d9bf,60ede4e8e6f70b1504e6b5ad,,,,,,,,,,,,
"[""period""]",0,[0.16229999995232447],56,0,56,0,1,5fcca076e2e6deaf9f1055d7,Mężczyzna,21,2021-07-13_21h09.52.480,rantool2,2021.1.4,Win32,59.96282305,5fcca076e2e6deaf9f1055d7,60d9d14f4a8a35a482e0d9bf,60ede4e8e6f70b1504e6b5ad,,,,,,,,,,,,
"[""period""]",0,[0.2570999999642254],57,0,57,0,1,5fcca076e2e6deaf9f1055d7,Mężczyzna,21,2021-07-13_21h09.52.480,rantool2,2021.1.4,Win32,59.96282305,5fcca076e2e6deaf9f1055d7,60d9d14f4a8a35a482e0d9bf,60ede4e8e6f70b1504e6b5ad,,,,,,,,,,,,
"[""comma""]",0,[0.3323999999761611],58,0,58,0,1,5fcca076e2e6deaf9f1055d7,Mężczyzna,21,2021-07-13_21h09.52.480,rantool2,2021.1.4,Win32,59.96282305,5fcca076e2e6deaf9f1055d7,60d9d14f4a8a35a482e0d9bf,60ede4e8e6f70b1504e6b5ad,,,,,,,,,,,,
"[""comma""]",0,[0.24209999996423903],59,0,59,0,1,5fcca076e2e6deaf9f1055d7,Mężczyzna,21,2021-07-13_21h09.52.480,rantool2,2021.1.4,Win32,59.96282305,5fcca076e2e6deaf9f1055d7,60d9d14f4a8a35a482e0d9bf,60ede4e8e6f70b1504e6b5ad,,,,,,,,,,,,
"[""period""]",0,[0.14580000001191706],60,0,60,0,1,5fcca076e2e6deaf9f1055d7,Mężczyzna,21,2021-07-13_21h09.52.480,rantool2,2021.1.4,Win32,59.96282305,5fcca076e2e6deaf9f1055d7,60d9d14f4a8a35a482e0d9bf,60ede4e8e6f70b1504e6b5ad,,,,,,,,,,,,
"[""comma""]",0,[0.07949999999999591],61,0,61,0,1,5fcca076e2e6deaf9f1055d7,Mężczyzna,21,2021-07-13_21h09.52.480,rantool2,2021.1.4,Win32,59.96282305,5fcca076e2e6deaf9f1055d7,60d9d14f4a8a35a482e0d9bf,60ede4e8e6f70b1504e6b5ad,,,,,,,,,,,,
"[""period""]",0,[0.19239999997617474],62,0,62,0,1,5fcca076e2e6deaf9f1055d7,Mężczyzna,21,2021-07-13_21h09.52.480,rantool2,2021.1.4,Win32,59.96282305,5fcca076e2e6deaf9f1055d7,60d9d14f4a8a35a482e0d9bf,60ede4e8e6f70b1504e6b5ad,,,,,,,,,,,,
"[""comma""]",0,[0.25],63,0,63,0,1,5fcca076e2e6deaf9f1055d7,Mężczyzna,21,2021-07-13_21h09.52.480,rantool2,2021.1.4,Win32,59.96282305,5fcca076e2e6deaf9f1055d7,60d9d14f4a8a35a482e0d9bf,60ede4e8e6f70b1504e6b5ad,,,,,,,,,,,,
"[""comma""]",0,[0.23389999997615973],64,0,64,0,1,5fcca076e2e6deaf9f1055d7,Mężczyzna,21,2021-07-13_21h09.52.480,rantool2,2021.1.4,Win32,59.96282305,5fcca076e2e6deaf9f1055d7,60d9d14f4a8a35a482e0d9bf,60ede4e8e6f70b1504e6b5ad,,,,,,,,,,,,
"[""comma""]",0,[0.18619999998807657],65,0,65,0,1,5fcca076e2e6deaf9f1055d7,Mężczyzna,21,2021-07-13_21h09.52.480,rantool2,2021.1.4,Win32,59.96282305,5fcca076e2e6deaf9f1055d7,60d9d14f4a8a35a482e0d9bf,60ede4e8e6f70b1504e6b5ad,,,,,,,,,,,,
"[""period""]",0,[0.24129999995230378],66,0,66,0,1,5fcca076e2e6deaf9f1055d7,Mężczyzna,21,2021-07-13_21h09.52.480,rantool2,2021.1.4,Win32,59.96282305,5fcca076e2e6deaf9f1055d7,60d9d14f4a8a35a482e0d9bf,60ede4e8e6f70b1504e6b5ad,,,,,,,,,,,,
"[""period""]",0,[0.22589999997614996],67,0,67,0,1,5fcca076e2e6deaf9f1055d7,Mężczyzna,21,2021-07-13_21h09.52.480,rantool2,2021.1.4,Win32,59.96282305,5fcca076e2e6deaf9f1055d7,60d9d14f4a8a35a482e0d9bf,60ede4e8e6f70b1504e6b5ad,,,,,,,,,,,,
"[""comma""]",0,[0.05690000003576756],68,0,68,0,1,5fcca076e2e6deaf9f1055d7,Mężczyzna,21,2021-07-13_21h09.52.480,rantool2,2021.1.4,Win32,59.96282305,5fcca076e2e6deaf9f1055d7,60d9d14f4a8a35a482e0d9bf,60ede4e8e6f70b1504e6b5ad,,,,,,,,,,,,
"[""period""]",0,[0.2336999999880618],69,0,69,0,1,5fcca076e2e6deaf9f1055d7,Mężczyzna,21,2021-07-13_21h09.52.480,rantool2,2021.1.4,Win32,59.96282305,5fcca076e2e6deaf9f1055d7,60d9d14f4a8a35a482e0d9bf,60ede4e8e6f70b1504e6b5ad,,,,,,,,,,,,
"[""comma"",""period""]",0,"[0.017499999999984084,1.6180999999642154]",70,0,70,0,1,5fcca076e2e6deaf9f1055d7,Mężczyzna,21,2021-07-13_21h09.52.480,rantool2,2021.1.4,Win32,59.96282305,5fcca076e2e6deaf9f1055d7,60d9d14f4a8a35a482e0d9bf,60ede4e8e6f70b1504e6b5ad,,,,,,,,,,,,
0,0,,71,0,71,0,1,5fcca076e2e6deaf9f1055d7,Mężczyzna,21,2021-07-13_21h09.52.480,rantool2,2021.1.4,Win32,59.96282305,5fcca076e2e6deaf9f1055d7,60d9d14f4a8a35a482e0d9bf,60ede4e8e6f70b1504e6b5ad,,,,,,,,,,,,
"[""period""]",0,[0.017500000000012506],72,0,72,0,1,5fcca076e2e6deaf9f1055d7,Mężczyzna,21,2021-07-13_21h09.52.480,rantool2,2021.1.4,Win32,59.96282305,5fcca076e2e6deaf9f1055d7,60d9d14f4a8a35a482e0d9bf,60ede4e8e6f70b1504e6b5ad,,,,,,,,,,,,
"[""period""]",0,[0.16919999998808066],73,0,73,0,1,5fcca076e2e6deaf9f1055d7,Mężczyzna,21,2021-07-13_21h09.52.480,rantool2,2021.1.4,Win32,59.96282305,5fcca076e2e6deaf9f1055d7,60d9d14f4a8a35a482e0d9bf,60ede4e8e6f70b1504e6b5ad,,,,,,,,,,,,
"[""comma""]",0,[0.22579999995230082],74,0,74,0,1,5fcca076e2e6deaf9f1055d7,Mężczyzna,21,2021-07-13_21h09.52.480,rantool2,2021.1.4,Win32,59.96282305,5fcca076e2e6deaf9f1055d7,60d9d14f4a8a35a482e0d9bf,60ede4e8e6f70b1504e6b5ad,,,,,,,,,,,,
"[""period""]",0,[0.18580000001193753],75,0,75,0,1,5fcca076e2e6deaf9f1055d7,Mężczyzna,21,2021-07-13_21h09.52.480,rantool2,2021.1.4,Win32,59.96282305,5fcca076e2e6deaf9f1055d7,60d9d14f4a8a35a482e0d9bf,60ede4e8e6f70b1504e6b5ad,,,,,,,,,,,,
"[""comma""]",0,[0.2893000000119059],76,0,76,0,1,5fcca076e2e6deaf9f1055d7,Mężczyzna,21,2021-07-13_21h09.52.480,rantool2,2021.1.4,Win32,59.96282305,5fcca076e2e6deaf9f1055d7,60d9d14f4a8a35a482e0d9bf,60ede4e8e6f70b1504e6b5ad,,,,,,,,,,,,
"[""comma""]",0,[0.11619999998808339],77,0,77,0,1,5fcca076e2e6deaf9f1055d7,Mężczyzna,21,2021-07-13_21h09.52.480,rantool2,2021.1.4,Win32,59.96282305,5fcca076e2e6deaf9f1055d7,60d9d14f4a8a35a482e0d9bf,60ede4e8e6f70b1504e6b5ad,,,,,,,,,,,,
"[""period""]",0,[0.3007999999523179],78,0,78,0,1,5fcca076e2e6deaf9f1055d7,Mężczyzna,21,2021-07-13_21h09.52.480,rantool2,2021.1.4,Win32,59.96282305,5fcca076e2e6deaf9f1055d7,60d9d14f4a8a35a482e0d9bf,60ede4e8e6f70b1504e6b5ad,,,,,,,,,,,,
"[""period""]",0,[0.23389999997615973],79,0,79,0,1,5fcca076e2e6deaf9f1055d7,Mężczyzna,21,2021-07-13_21h09.52.480,rantool2,2021.1.4,Win32,59.96282305,5fcca076e2e6deaf9f1055d7,60d9d14f4a8a35a482e0d9bf,60ede4e8e6f70b1504e6b5ad,,,,,,,,,,,,
"[""comma""]",0,[0.11760000002385596],80,0,80,0,1,5fcca076e2e6deaf9f1055d7,Mężczyzna,21,2021-07-13_21h09.52.480,rantool2,2021.1.4,Win32,59.96282305,5fcca076e2e6deaf9f1055d7,60d9d14f4a8a35a482e0d9bf,60ede4e8e6f70b1504e6b5ad,,,,,,,,,,,,
"[""period""]",0,[0.03410000002384095],81,0,81,0,1,5fcca076e2e6deaf9f1055d7,Mężczyzna,21,2021-07-13_21h09.52.480,rantool2,2021.1.4,Win32,59.96282305,5fcca076e2e6deaf9f1055d7,60d9d14f4a8a35a482e0d9bf,60ede4e8e6f70b1504e6b5ad,,,,,,,,,,,,
"[""comma""]",0,[0.1629000000357621],82,0,82,0,1,5fcca076e2e6deaf9f1055d7,Mężczyzna,21,2021-07-13_21h09.52.480,rantool2,2021.1.4,Win32,59.96282305,5fcca076e2e6deaf9f1055d7,60d9d14f4a8a35a482e0d9bf,60ede4e8e6f70b1504e6b5ad,,,,,,,,,,,,
"[""period""]",0,[0.2096999999880893],83,0,83,0,1,5fcca076e2e6deaf9f1055d7,Mężczyzna,21,2021-07-13_21h09.52.480,rantool2,2021.1.4,Win32,59.96282305,5fcca076e2e6deaf9f1055d7,60d9d14f4a8a35a482e0d9bf,60ede4e8e6f70b1504e6b5ad,,,,,,,,,,,,
"[""comma""]",0,[0.28949999999997544],84,0,84,0,1,5fcca076e2e6deaf9f1055d7,Mężczyzna,21,2021-07-13_21h09.52.480,rantool2,2021.1.4,Win32,59.96282305,5fcca076e2e6deaf9f1055d7,60d9d14f4a8a35a482e0d9bf,60ede4e8e6f70b1504e6b5ad,,,,,,,,,,,,
"[""period""]",0,[0.26590000003577074],85,0,85,0,1,5fcca076e2e6deaf9f1055d7,Mężczyzna,21,2021-07-13_21h09.52.480,rantool2,2021.1.4,Win32,59.96282305,5fcca076e2e6deaf9f1055d7,60d9d14f4a8a35a482e0d9bf,60ede4e8e6f70b1504e6b5ad,,,,,,,,,,,,
"[""period""]",0,[0.2840999999642406],86,0,86,0,1,5fcca076e2e6deaf9f1055d7,Mężczyzna,21,2021-07-13_21h09.52.480,rantool2,2021.1.4,Win32,59.96282305,5fcca076e2e6deaf9f1055d7,60d9d14f4a8a35a482e0d9bf,60ede4e8e6f70b1504e6b5ad,,,,,,,,,,,,
"[""comma""]",0,[0.29009999996424085],87,0,87,0,1,5fcca076e2e6deaf9f1055d7,Mężczyzna,21,2021-07-13_21h09.52.480,rantool2,2021.1.4,Win32,59.96282305,5fcca076e2e6deaf9f1055d7,60d9d14f4a8a35a482e0d9bf,60ede4e8e6f70b1504e6b5ad,,,,,,,,,,,,
"[""comma""]",0,[0.28989999997617133],88,0,88,0,1,5fcca076e2e6deaf9f1055d7,Mężczyzna,21,2021-07-13_21h09.52.480,rantool2,2021.1.4,Win32,59.96282305,5fcca076e2e6deaf9f1055d7,60d9d14f4a8a35a482e0d9bf,60ede4e8e6f70b1504e6b5ad,,,,,,,,,,,,
"[""period""]",0,[0.2504000000357678],89,0,89,0,1,5fcca076e2e6deaf9f1055d7,Mężczyzna,21,2021-07-13_21h09.52.480,rantool2,2021.1.4,Win32,59.96282305,5fcca076e2e6deaf9f1055d7,60d9d14f4a8a35a482e0d9bf,60ede4e8e6f70b1504e6b5ad,,,,,,,,,,,,
"[""comma""]",0,[0.24869999998807657],90,0,90,0,1,5fcca076e2e6deaf9f1055d7,Mężczyzna,21,2021-07-13_21h09.52.480,rantool2,2021.1.4,Win32,59.96282305,5fcca076e2e6deaf9f1055d7,60d9d14f4a8a35a482e0d9bf,60ede4e8e6f70b1504e6b5ad,,,,,,,,,,,,
"[""period""]",0,[0.25080000001190683],91,0,91,0,1,5fcca076e2e6deaf9f1055d7,Mężczyzna,21,2021-07-13_21h09.52.480,rantool2,2021.1.4,Win32,59.96282305,5fcca076e2e6deaf9f1055d7,60d9d14f4a8a35a482e0d9bf,60ede4e8e6f70b1504e6b5ad,,,,,,,,,,,,
"[""period""]",0,[0.2571999999880745],92,0,92,0,1,5fcca076e2e6deaf9f1055d7,Mężczyzna,21,2021-07-13_21h09.52.480,rantool2,2021.1.4,Win32,59.96282305,5fcca076e2e6deaf9f1055d7,60d9d14f4a8a35a482e0d9bf,60ede4e8e6f70b1504e6b5ad,,,,,,,,,,,,
"[""comma""]",0,[0.040000000000020464],93,0,93,0,1,5fcca076e2e6deaf9f1055d7,Mężczyzna,21,2021-07-13_21h09.52.480,rantool2,2021.1.4,Win32,59.96282305,5fcca076e2e6deaf9f1055d7,60d9d14f4a8a35a482e0d9bf,60ede4e8e6f70b1504e6b5ad,,,,,,,,,,,,
"[""period""]",0,[0.27250000000000796],94,0,94,0,1,5fcca076e2e6deaf9f1055d7,Mężczyzna,21,2021-07-13_21h09.52.480,rantool2,2021.1.4,Win32,59.96282305,5fcca076e2e6deaf9f1055d7,60d9d14f4a8a35a482e0d9bf,60ede4e8e6f70b1504e6b5ad,,,,,,,,,,,,
"[""period""]",0,[0.30069999998806907],95,0,95,0,1,5fcca076e2e6deaf9f1055d7,Mężczyzna,21,2021-07-13_21h09.52.480,rantool2,2021.1.4,Win32,59.96282305,5fcca076e2e6deaf9f1055d7,60d9d14f4a8a35a482e0d9bf,60ede4e8e6f70b1504e6b5ad,,,,,,,,,,,,
"[""comma""]",0,[0.25750000000005],96,0,96,0,1,5fcca076e2e6deaf9f1055d7,Mężczyzna,21,2021-07-13_21h09.52.480,rantool2,2021.1.4,Win32,59.96282305,5fcca076e2e6deaf9f1055d7,60d9d14f4a8a35a482e0d9bf,60ede4e8e6f70b1504e6b5ad,,,,,,,,,,,,
"[""period""]",0,[0.26650000000000773],97,0,97,0,1,5fcca076e2e6deaf9f1055d7,Mężczyzna,21,2021-07-13_21h09.52.480,rantool2,2021.1.4,Win32,59.96282305,5fcca076e2e6deaf9f1055d7,60d9d14f4a8a35a482e0d9bf,60ede4e8e6f70b1504e6b5ad,,,,,,,,,,,,
"[""period""]",0,[0.08930000001191729],98,0,98,0,1,5fcca076e2e6deaf9f1055d7,Mężczyzna,21,2021-07-13_21h09.52.480,rantool2,2021.1.4,Win32,59.96282305,5fcca076e2e6deaf9f1055d7,60d9d14f4a8a35a482e0d9bf,60ede4e8e6f70b1504e6b5ad,,,,,,,,,,,,
"[""comma""]",0,[0.25780000001191183],99,0,99,0,1,5fcca076e2e6deaf9f1055d7,Mężczyzna,21,2021-07-13_21h09.52.480,rantool2,2021.1.4,Win32,59.96282305,5fcca076e2e6deaf9f1055d7,60d9d14f4a8a35a482e0d9bf,60ede4e8e6f70b1504e6b5ad,,,,,,,,,,,,
"[""comma""]",0,[0.2657000000476728],100,0,100,0,1,5fcca076e2e6deaf9f1055d7,Mężczyzna,21,2021-07-13_21h09.52.480,rantool2,2021.1.4,Win32,59.96282305,5fcca076e2e6deaf9f1055d7,60d9d14f4a8a35a482e0d9bf,60ede4e8e6f70b1504e6b5ad,,,,,,,,,,,,
"[""comma""]",0,[0.26780000001190274],101,0,101,0,1,5fcca076e2e6deaf9f1055d7,Mężczyzna,21,2021-07-13_21h09.52.480,rantool2,2021.1.4,Win32,59.96282305,5fcca076e2e6deaf9f1055d7,60d9d14f4a8a35a482e0d9bf,60ede4e8e6f70b1504e6b5ad,,,,,,,,,,,,
"[""period""]",0,[0.17719999998809044],102,0,102,0,1,5fcca076e2e6deaf9f1055d7,Mężczyzna,21,2021-07-13_21h09.52.480,rantool2,2021.1.4,Win32,59.96282305,5fcca076e2e6deaf9f1055d7,60d9d14f4a8a35a482e0d9bf,60ede4e8e6f70b1504e6b5ad,,,,,,,,,,,,
"[""period""]",0,[0.2733999999761636],103,0,103,0,1,5fcca076e2e6deaf9f1055d7,Mężczyzna,21,2021-07-13_21h09.52.480,rantool2,2021.1.4,Win32,59.96282305,5fcca076e2e6deaf9f1055d7,60d9d14f4a8a35a482e0d9bf,60ede4e8e6f70b1504e6b5ad,,,,,,,,,,,,
"[""comma""]",0,[0.3047000000477169],104,0,104,0,1,5fcca076e2e6deaf9f1055d7,Mężczyzna,21,2021-07-13_21h09.52.480,rantool2,2021.1.4,Win32,59.96282305,5fcca076e2e6deaf9f1055d7,60d9d14f4a8a35a482e0d9bf,60ede4e8e6f70b1504e6b5ad,,,,,,,,,,,,
"[""comma""]",0,[0.22569999998808044],105,0,105,0,1,5fcca076e2e6deaf9f1055d7,Mężczyzna,21,2021-07-13_21h09.52.480,rantool2,2021.1.4,Win32,59.96282305,5fcca076e2e6deaf9f1055d7,60d9d14f4a8a35a482e0d9bf,60ede4e8e6f70b1504e6b5ad,,,,,,,,,,,,
"[""period""]",0,[0.15370000004770645],106,0,106,0,1,5fcca076e2e6deaf9f1055d7,Mężczyzna,21,2021-07-13_21h09.52.480,rantool2,2021.1.4,Win32,59.96282305,5fcca076e2e6deaf9f1055d7,60d9d14f4a8a35a482e0d9bf,60ede4e8e6f70b1504e6b5ad,,,,,,,,,,,,
"[""period""]",0,[0.2890999999642645],107,0,107,0,1,5fcca076e2e6deaf9f1055d7,Mężczyzna,21,2021-07-13_21h09.52.480,rantool2,2021.1.4,Win32,59.96282305,5fcca076e2e6deaf9f1055d7,60d9d14f4a8a35a482e0d9bf,60ede4e8e6f70b1504e6b5ad,,,,,,,,,,,,
"[""comma""]",0,[0.3216999999880841],108,0,108,0,1,5fcca076e2e6deaf9f1055d7,Mężczyzna,21,2021-07-13_21h09.52.480,rantool2,2021.1.4,Win32,59.96282305,5fcca076e2e6deaf9f1055d7,60d9d14f4a8a35a482e0d9bf,60ede4e8e6f70b1504e6b5ad,,,,,,,,,,,,
"[""period""]",0,[0.3376999999881036],109,0,109,0,1,5fcca076e2e6deaf9f1055d7,Mężczyzna,21,2021-07-13_21h09.52.480,rantool2,2021.1.4,Win32,59.96282305,5fcca076e2e6deaf9f1055d7,60d9d14f4a8a35a482e0d9bf,60ede4e8e6f70b1504e6b5ad,,,,,,,,,,,,
"[""comma""]",0,[0.27309999996424494],110,0,110,0,1,5fcca076e2e6deaf9f1055d7,Mężczyzna,21,2021-07-13_21h09.52.480,rantool2,2021.1.4,Win32,59.96282305,5fcca076e2e6deaf9f1055d7,60d9d14f4a8a35a482e0d9bf,60ede4e8e6f70b1504e6b5ad,,,,,,,,,,,,
"[""period""]",0,[0.04390000003576233],111,0,111,0,1,5fcca076e2e6deaf9f1055d7,Mężczyzna,21,2021-07-13_21h09.52.480,rantool2,2021.1.4,Win32,59.96282305,5fcca076e2e6deaf9f1055d7,60d9d14f4a8a35a482e0d9bf,60ede4e8e6f70b1504e6b5ad,,,,,,,,,,,,
"[""comma""]",0,[0.27249999999997954],112,0,112,0,1,5fcca076e2e6deaf9f1055d7,Mężczyzna,21,2021-07-13_21h09.52.480,rantool2,2021.1.4,Win32,59.96282305,5fcca076e2e6deaf9f1055d7,60d9d14f4a8a35a482e0d9bf,60ede4e8e6f70b1504e6b5ad,,,,,,,,,,,,
"[""period""]",0,[0.33300000000002683],113,0,113,0,1,5fcca076e2e6deaf9f1055d7,Mężczyzna,21,2021-07-13_21h09.52.480,rantool2,2021.1.4,Win32,59.96282305,5fcca076e2e6deaf9f1055d7,60d9d14f4a8a35a482e0d9bf,60ede4e8e6f70b1504e6b5ad,,,,,,,,,,,,
"[""comma""]",0,[0.05769999998807407],114,0,114,0,1,5fcca076e2e6deaf9f1055d7,Mężczyzna,21,2021-07-13_21h09.52.480,rantool2,2021.1.4,Win32,59.96282305,5fcca076e2e6deaf9f1055d7,60d9d14f4a8a35a482e0d9bf,60ede4e8e6f70b1504e6b5ad,,,,,,,,,,,,
"[""period""]",0,[0.26640000003578734],115,0,115,0,1,5fcca076e2e6deaf9f1055d7,Mężczyzna,21,2021-07-13_21h09.52.480,rantool2,2021.1.4,Win32,59.96282305,5fcca076e2e6deaf9f1055d7,60d9d14f4a8a35a482e0d9bf,60ede4e8e6f70b1504e6b5ad,,,,,,,,,,,,
"[""period""]",0,[0.23280000001187773],116,0,116,0,1,5fcca076e2e6deaf9f1055d7,Mężczyzna,21,2021-07-13_21h09.52.480,rantool2,2021.1.4,Win32,59.96282305,5fcca076e2e6deaf9f1055d7,60d9d14f4a8a35a482e0d9bf,60ede4e8e6f70b1504e6b5ad,,,,,,,,,,,,
"[""comma"",""period""]",0,"[0.2735999999642331,1.916499999999985]",117,0,117,0,1,5fcca076e2e6deaf9f1055d7,Mężczyzna,21,2021-07-13_21h09.52.480,rantool2,2021.1.4,Win32,59.96282305,5fcca076e2e6deaf9f1055d7,60d9d14f4a8a35a482e0d9bf,60ede4e8e6f70b1504e6b5ad,,,,,,,,,,,,
"[""comma""]",0,[1.945400000035761],118,0,118,0,1,5fcca076e2e6deaf9f1055d7,Mężczyzna,21,2021-07-13_21h09.52.480,rantool2,2021.1.4,Win32,59.96282305,5fcca076e2e6deaf9f1055d7,60d9d14f4a8a35a482e0d9bf,60ede4e8e6f70b1504e6b5ad,,,,,,,,,,,,
0,0,,119,0,119,0,1,5fcca076e2e6deaf9f1055d7,Mężczyzna,21,2021-07-13_21h09.52.480,rantool2,2021.1.4,Win32,59.96282305,5fcca076e2e6deaf9f1055d7,60d9d14f4a8a35a482e0d9bf,60ede4e8e6f70b1504e6b5ad,,,,,,,,,,,,
,,,,,,,,5fcca076e2e6deaf9f1055d7,Mężczyzna,21,2021-07-13_21h09.52.480,rantool2,2021.1.4,Win32,59.96282305,5fcca076e2e6deaf9f1055d7,60d9d14f4a8a35a482e0d9bf,60ede4e8e6f70b1504e6b5ad,j,2.2781,0,0,0,3,1,OOOORRO,OOOORRR,20.90986523,21.74922619,series_1
,,,,,,,,5fcca076e2e6deaf9f1055d7,Mężczyzna,21,2021-07-13_21h09.52.480,rantool2,2021.1.4,Win32,59.96282305,5fcca076e2e6deaf9f1055d7,60d9d14f4a8a35a482e0d9bf,60ede4e8e6f70b1504e6b5ad,f,2.1876,0,1,1,47,1,RORRRRO,RORRRRR,21.81333602,21.02936224,series_0
,,,,,,,,5fcca076e2e6deaf9f1055d7,Mężczyzna,21,2021-07-13_21h09.52.480,rantool2,2021.1.4,Win32,59.96282305,5fcca076e2e6deaf9f1055d7,60d9d14f4a8a35a482e0d9bf,60ede4e8e6f70b1504e6b5ad,j,1.5359,0,2,2,16,1,OROOOOO,OROOOOR,20.43051175,21.17347734,series_1
,,,,,,,,5fcca076e2e6deaf9f1055d7,Mężczyzna,21,2021-07-13_21h09.52.480,rantool2,2021.1.4,Win32,59.96282305,5fcca076e2e6deaf9f1055d7,60d9d14f4a8a35a482e0d9bf,60ede4e8e6f70b1504e6b5ad,f,1.8571,0,3,3,50,1,RROOROO,RROOROR,21.73568164,22.02566557,series_1
,,,,,,,,5fcca076e2e6deaf9f1055d7,Mężczyzna,21,2021-07-13_21h09.52.480,rantool2,2021.1.4,Win32,59.96282305,5fcca076e2e6deaf9f1055d7,60d9d14f4a8a35a482e0d9bf,60ede4e8e6f70b1504e6b5ad,j,2.4637,0,4,4,51,1,RROORRO,RROORRR,21.89852628,22.02786418,series_1
,,,,,,,,5fcca076e2e6deaf9f1055d7,Mężczyzna,21,2021-07-13_21h09.52.480,rantool2,2021.1.4,Win32,59.96282305,5fcca076e2e6deaf9f1055d7,60d9d14f4a8a35a482e0d9bf,60ede4e8e6f70b1504e6b5ad,f,2.0264,0,5,5,14,1,OORRROO,OORRROR,22.24142883,22.16977179,series_0
,,,,,,,,5fcca076e2e6deaf9f1055d7,Mężczyzna,21,2021-07-13_21h09.52.480,rantool2,2021.1.4,Win32,59.96282305,5fcca076e2e6deaf9f1055d7,60d9d14f4a8a35a482e0d9bf,60ede4e8e6f70b1504e6b5ad,j,2.185,0,6,6,49,1,RROOORO,RROOORR,21.76276513,22.53364006,series_1
,,,,,,,,5fcca076e2e6deaf9f1055d7,Mężczyzna,21,2021-07-13_21h09.52.480,rantool2,2021.1.4,Win32,59.96282305,5fcca076e2e6deaf9f1055d7,60d9d14f4a8a35a482e0d9bf,60ede4e8e6f70b1504e6b5ad,f,2.2588,0,7,7,11,1,OORORRO,OORORRR,22.18365867,22.6797523,series_1
,,,,,,,,5fcca076e2e6deaf9f1055d7,Mężczyzna,21,2021-07-13_21h09.52.480,rantool2,2021.1.4,Win32,59.96282305,5fcca076e2e6deaf9f1055d7,60d9d14f4a8a35a482e0d9bf,60ede4e8e6f70b1504e6b5ad,f,2.312,0,8,8,30,1,ORRRROO,ORRRROR,22.46748491,22.03072203,series_0
,,,,,,,,5fcca076e2e6deaf9f1055d7,Mężczyzna,21,2021-07-13_21h09.52.480,rantool2,2021.1.4,Win32,59.96282305,5fcca076e2e6deaf9f1055d7,60d9d14f4a8a35a482e0d9bf,60ede4e8e6f70b1504e6b5ad,f,2.1239,0,9,9,13,1,OORRORO,OORRORR,21.66733484,22.11181017,series_1
,,,,,,,,5fcca076e2e6deaf9f1055d7,Mężczyzna,21,2021-07-13_21h09.52.480,rantool2,2021.1.4,Win32,59.96282305,5fcca076e2e6deaf9f1055d7,60d9d14f4a8a35a482e0d9bf,60ede4e8e6f70b1504e6b5ad,j,2.4003,0,10,10,19,1,OROORRO,OROORRR,21.73568164,22.11181017,series_1
,,,,,,,,5fcca076e2e6deaf9f1055d7,Mężczyzna,21,2021-07-13_21h09.52.480,rantool2,2021.1.4,Win32,59.96282305,5fcca076e2e6deaf9f1055d7,60d9d14f4a8a35a482e0d9bf,60ede4e8e6f70b1504e6b5ad,f,2.2333,0,11,11,60,1,RRRROOO,RRRROOR,22.10108823,22.15934078,series_1
,,,,,,,,5fcca076e2e6deaf9f1055d7,Mężczyzna,21,2021-07-13_21h09.52.480,rantool2,2021.1.4,Win32,59.96282305,5fcca076e2e6deaf9f1055d7,60d9d14f4a8a35a482e0d9bf,60ede4e8e6f70b1504e6b5ad,j,2.5372,0,12,12,43,1,RORORRO,RORORRR,20.71309134,21.07490964,series_1
,,,,,,,,5fcca076e2e6deaf9f1055d7,Mężczyzna,21,2021-07-13_21h09.52.480,rantool2,2021.1.4,Win32,59.96282305,5fcca076e2e6deaf9f1055d7,60d9d14f4a8a35a482e0d9bf,60ede4e8e6f70b1504e6b5ad,f,2.5258,0,13,13,22,1,ORORROO,ORORROR,22.02732763,21.57657071,series_0
,,,,,,,,5fcca076e2e6deaf9f1055d7,Mężczyzna,21,2021-07-13_21h09.52.480,rantool2,2021.1.4,Win32,59.96282305,5fcca076e2e6deaf9f1055d7,60d9d14f4a8a35a482e0d9bf,60ede4e8e6f70b1504e6b5ad,j,2.7277,0,14,14,5,1,OOORORO,OOORORR,20.87963819,21.9921709,series_1
,,,,,,,,5fcca076e2e6deaf9f1055d7,Mężczyzna,21,2021-07-13_21h09.52.480,rantool2,2021.1.4,Win32,59.96282305,5fcca076e2e6deaf9f1055d7,60d9d14f4a8a35a482e0d9bf,60ede4e8e6f70b1504e6b5ad,f,2.5697,0,15,15,37,1,ROORORO,ROORORR,20.42602454,21.57657071,series_1
,,,,,,,,5fcca076e2e6deaf9f1055d7,Mężczyzna,21,2021-07-13_21h09.52.480,rantool2,2021.1.4,Win32,59.96282305,5fcca076e2e6deaf9f1055d7,60d9d14f4a8a35a482e0d9bf,60ede4e8e6f70b1504e6b5ad,j,1.8491,0,16,16,6,1,OOORROO,OOORROR,21.12383932,21.38562617,series_1
,,,,,,,,5fcca076e2e6deaf9f1055d7,Mężczyzna,21,2021-07-13_21h09.52.480,rantool2,2021.1.4,Win32,59.96282305,5fcca076e2e6deaf9f1055d7,60d9d14f4a8a35a482e0d9bf,60ede4e8e6f70b1504e6b5ad,f,2.0667,0,17,17,38,1,ROORROO,ROORROR,21.79500819,21.36812781,series_0
,,,,,,,,5fcca076e2e6deaf9f1055d7,Mężczyzna,21,2021-07-13_21h09.52.480,rantool2,2021.1.4,Win32,59.96282305,5fcca076e2e6deaf9f1055d7,60d9d14f4a8a35a482e0d9bf,60ede4e8e6f70b1504e6b5ad,j,2.1728,0,18,18,34,1,ROOOROO,ROOOROR,21.03750787,21.24781509,series_1
,,,,,,,,5fcca076e2e6deaf9f1055d7,Mężczyzna,21,2021-07-13_21h09.52.480,rantool2,2021.1.4,Win32,59.96282305,5fcca076e2e6deaf9f1055d7,60d9d14f4a8a35a482e0d9bf,60ede4e8e6f70b1504e6b5ad,f,2.1182,0,19,19,52,1,RROROOO,RROROOR,22.18365867,22.11097995,series_0
,,,,,,,,5fcca076e2e6deaf9f1055d7,Mężczyzna,21,2021-07-13_21h09.52.480,rantool2,2021.1.4,Win32,59.96282305,5fcca076e2e6deaf9f1055d7,60d9d14f4a8a35a482e0d9bf,60ede4e8e6f70b1504e6b5ad,j,2.1754,0,20,20,12,1,OORROOO,OORROOR,21.30250474,22.02786418,series_1
,,,,,,,,5fcca076e2e6deaf9f1055d7,Mężczyzna,21,2021-07-13_21h09.52.480,rantool2,2021.1.4,Win32,59.96282305,5fcca076e2e6deaf9f1055d7,60d9d14f4a8a35a482e0d9bf,60ede4e8e6f70b1504e6b5ad,f,1.5355,0,21,21,25,1,ORROORO,ORROORR,21.79500819,22.61624387,series_1
,,,,,,,,5fcca076e2e6deaf9f1055d7,Mężczyzna,21,2021-07-13_21h09.52.480,rantool2,2021.1.4,Win32,59.96282305,5fcca076e2e6deaf9f1055d7,60d9d14f4a8a35a482e0d9bf,60ede4e8e6f70b1504e6b5ad,j,1.2728,0,22,22,40,1,ROROOOO,ROROOOR,20.87963819,21.37121559,series_1
,,,,,,,,5fcca076e2e6deaf9f1055d7,Mężczyzna,21,2021-07-13_21h09.52.480,rantool2,2021.1.4,Win32,59.96282305,5fcca076e2e6deaf9f1055d7,60d9d14f4a8a35a482e0d9bf,60ede4e8e6f70b1504e6b5ad,f,1.8948,0,23,23,4,1,OOOROOO,OOOROOR,19.91402015,21.21223021,series_1
,,,,,,,,5fcca076e2e6deaf9f1055d7,Mężczyzna,21,2021-07-13_21h09.52.480,rantool2,2021.1.4,Win32,59.96282305,5fcca076e2e6deaf9f1055d7,60d9d14f4a8a35a482e0d9bf,60ede4e8e6f70b1504e6b5ad,f,1.5544,0,24,24,62,1,RRRRROO,RRRRROR,22.16413392,21.27974287,series_0
,,,,,,,,5fcca076e2e6deaf9f1055d7,Mężczyzna,21,2021-07-13_21h09.52.480,rantool2,2021.1.4,Win32,59.96282305,5fcca076e2e6deaf9f1055d7,60d9d14f4a8a35a482e0d9bf,60ede4e8e6f70b1504e6b5ad,f,1.5996,0,25,25,18,1,OROOROO,OROOROR,20.84860893,21.22513037,series_1
,,,,,,,,5fcca076e2e6deaf9f1055d7,Mężczyzna,21,2021-07-13_21h09.52.480,rantool2,2021.1.4,Win32,59.96282305,5fcca076e2e6deaf9f1055d7,60d9d14f4a8a35a482e0d9bf,60ede4e8e6f70b1504e6b5ad,j,1.7165,0,26,26,55,1,RRORRRO,RRORRRR,21.56657303,21.21223021,series_0
,,,,,,,,5fcca076e2e6deaf9f1055d7,Mężczyzna,21,2021-07-13_21h09.52.480,rantool2,2021.1.4,Win32,59.96282305,5fcca076e2e6deaf9f1055d7,60d9d14f4a8a35a482e0d9bf,60ede4e8e6f70b1504e6b5ad,f,1.6456,0,27,27,9,1,OOROORO,OOROORR,21.07991943,22.2428857,series_1
,,,,,,,,5fcca076e2e6deaf9f1055d7,Mężczyzna,21,2021-07-13_21h09.52.480,rantool2,2021.1.4,Win32,59.96282305,5fcca076e2e6deaf9f1055d7,60d9d14f4a8a35a482e0d9bf,60ede4e8e6f70b1504e6b5ad,j,1.4028,0,28,28,2,1,OOOOROO,OOOOROR,20.43051175,21.02936224,series_1
,,,,,,,,5fcca076e2e6deaf9f1055d7,Mężczyzna,21,2021-07-13_21h09.52.480,rantool2,2021.1.4,Win32,59.96282305,5fcca076e2e6deaf9f1055d7,60d9d14f4a8a35a482e0d9bf,60ede4e8e6f70b1504e6b5ad,f,2.0436,0,29,29,23,1,ORORRRO,ORORRRR,22.1285618,21.9921709,series_0
,,,,,,,,5fcca076e2e6deaf9f1055d7,Mężczyzna,21,2021-07-13_21h09.52.480,rantool2,2021.1.4,Win32,59.96282305,5fcca076e2e6deaf9f1055d7,60d9d14f4a8a35a482e0d9bf,60ede4e8e6f70b1504e6b5ad,j,1.8253,0,30,30,31,1,ORRRRRO,ORRRRRR,22.16413392,20.74050628,series_0
,,,,,,,,5fcca076e2e6deaf9f1055d7,Mężczyzna,21,2021-07-13_21h09.52.480,rantool2,2021.1.4,Win32,59.96282305,5fcca076e2e6deaf9f1055d7,60d9d14f4a8a35a482e0d9bf,60ede4e8e6f70b1504e6b5ad,f,1.8329,0,31,31,45,1,RORRORO,RORRORR,20.78182524,21.22513037,series_1
,,,,,,,,5fcca076e2e6deaf9f1055d7,Mężczyzna,21,2021-07-13_21h09.52.480,rantool2,2021.1.4,Win32,59.96282305,5fcca076e2e6deaf9f1055d7,60d9d14f4a8a35a482e0d9bf,60ede4e8e6f70b1504e6b5ad,j,2.3101,0,32,32,26,1,ORROROO,ORROROR,22.02732763,21.71443381,series_0
,,,,,,,,5fcca076e2e6deaf9f1055d7,Mężczyzna,21,2021-07-13_21h09.52.480,rantool2,2021.1.4,Win32,59.96282305,5fcca076e2e6deaf9f1055d7,60d9d14f4a8a35a482e0d9bf,60ede4e8e6f70b1504e6b5ad,f,1.8338,0,33,33,46,1,RORRROO,RORRROR,22.00300695,21.24781509,series_0
,,,,,,,,5fcca076e2e6deaf9f1055d7,Mężczyzna,21,2021-07-13_21h09.52.480,rantool2,2021.1.4,Win32,59.96282305,5fcca076e2e6deaf9f1055d7,60d9d14f4a8a35a482e0d9bf,60ede4e8e6f70b1504e6b5ad,j,1.3023,0,34,34,63,1,RRRRRRO,RRRRRRR,21.35278725,19.62521613,series_0
,,,,,,,,5fcca076e2e6deaf9f1055d7,Mężczyzna,21,2021-07-13_21h09.52.480,rantool2,2021.1.4,Win32,59.96282305,5fcca076e2e6deaf9f1055d7,60d9d14f4a8a35a482e0d9bf,60ede4e8e6f70b1504e6b5ad,f,1.8901,0,35,35,35,1,ROOORRO,ROOORRR,21.76276513,22.16977179,series_1
,,,,,,,,5fcca076e2e6deaf9f1055d7,Mężczyzna,21,2021-07-13_21h09.52.480,rantool2,2021.1.4,Win32,59.96282305,5fcca076e2e6deaf9f1055d7,60d9d14f4a8a35a482e0d9bf,60ede4e8e6f70b1504e6b5ad,j,1.0705,0,36,36,0,1,OOOOOOO,OOOOOOR,18.52739004,19.62521613,series_1
,,,,,,,,5fcca076e2e6deaf9f1055d7,Mężczyzna,21,2021-07-13_21h09.52.480,rantool2,2021.1.4,Win32,59.96282305,5fcca076e2e6deaf9f1055d7,60d9d14f4a8a35a482e0d9bf,60ede4e8e6f70b1504e6b5ad,f,2.4754,0,37,37,41,1,ROROORO,ROROORR,20.42602454,21.71443381,series_1
,,,,,,,,5fcca076e2e6deaf9f1055d7,Mężczyzna,21,2021-07-13_21h09.52.480,rantool2,2021.1.4,Win32,59.96282305,5fcca076e2e6deaf9f1055d7,60d9d14f4a8a35a482e0d9bf,60ede4e8e6f70b1504e6b5ad,j,1.7823,0,38,38,36,1,ROOROOO,ROOROOR,21.07991943,20.9984461,series_0
,,,,,,,,5fcca076e2e6deaf9f1055d7,Mężczyzna,21,2021-07-13_21h09.52.480,rantool2,2021.1.4,Win32,59.96282305,5fcca076e2e6deaf9f1055d7,60d9d14f4a8a35a482e0d9bf,60ede4e8e6f70b1504e6b5ad,j,2.8344,0,39,39,17,1,OROOORO,OROOORR,21.03750787,22.12173012,series_1
,,,,,,,,5fcca076e2e6deaf9f1055d7,Mężczyzna,21,2021-07-13_21h09.52.480,rantool2,2021.1.4,Win32,59.96282305,5fcca076e2e6deaf9f1055d7,60d9d14f4a8a35a482e0d9bf,60ede4e8e6f70b1504e6b5ad,j,1.5507,0,40,40,48,1,RROOOOO,RROOOOR,20.90986523,22.15934078,series_1
,,,,,,,,5fcca076e2e6deaf9f1055d7,Mężczyzna,21,2021-07-13_21h09.52.480,rantool2,2021.1.4,Win32,59.96282305,5fcca076e2e6deaf9f1055d7,60d9d14f4a8a35a482e0d9bf,60ede4e8e6f70b1504e6b5ad,f,1.502,0,41,41,53,1,RRORORO,RRORORR,20.71309134,21.90565814,series_1
,,,,,,,,5fcca076e2e6deaf9f1055d7,Mężczyzna,21,2021-07-13_21h09.52.480,rantool2,2021.1.4,Win32,59.96282305,5fcca076e2e6deaf9f1055d7,60d9d14f4a8a35a482e0d9bf,60ede4e8e6f70b1504e6b5ad,f,1.5736,0,42,42,57,1,RRROORO,RRROORR,21.82425538,22.07102821,series_1
,,,,,,,,5fcca076e2e6deaf9f1055d7,Mężczyzna,21,2021-07-13_21h09.52.480,rantool2,2021.1.4,Win32,59.96282305,5fcca076e2e6deaf9f1055d7,60d9d14f4a8a35a482e0d9bf,60ede4e8e6f70b1504e6b5ad,f,1.9702,0,43,43,28,1,ORRROOO,ORRROOR,22.24142883,22.53364006,series_1
,,,,,,,,5fcca076e2e6deaf9f1055d7,Mężczyzna,21,2021-07-13_21h09.52.480,rantool2,2021.1.4,Win32,59.96282305,5fcca076e2e6deaf9f1055d7,60d9d14f4a8a35a482e0d9bf,60ede4e8e6f70b1504e6b5ad,j,1.2835,0,44,44,24,1,ORROOOO,ORROOOR,21.12383932,22.07102821,series_1
,,,,,,,,5fcca076e2e6deaf9f1055d7,Mężczyzna,21,2021-07-13_21h09.52.480,rantool2,2021.1.4,Win32,59.96282305,5fcca076e2e6deaf9f1055d7,60d9d14f4a8a35a482e0d9bf,60ede4e8e6f70b1504e6b5ad,f,1.649,0,45,45,20,1,OROROOO,OROROOR,21.31236711,21.90565814,series_1
,,,,,,,,5fcca076e2e6deaf9f1055d7,Mężczyzna,21,2021-07-13_21h09.52.480,rantool2,2021.1.4,Win32,59.96282305,5fcca076e2e6deaf9f1055d7,60d9d14f4a8a35a482e0d9bf,60ede4e8e6f70b1504e6b5ad,j,1.6921,0,46,46,27,1,ORRORRO,ORRORRR,21.55250791,22.2428857,series_1
,,,,,,,,5fcca076e2e6deaf9f1055d7,Mężczyzna,21,2021-07-13_21h09.52.480,rantool2,2021.1.4,Win32,59.96282305,5fcca076e2e6deaf9f1055d7,60d9d14f4a8a35a482e0d9bf,60ede4e8e6f70b1504e6b5ad,f,1.3433,0,47,47,56,1,RRROOOO,RRROOOR,21.6194508,22.31681875,series_1
,,,,,,,,5fcca076e2e6deaf9f1055d7,Mężczyzna,21,2021-07-13_21h09.52.480,rantool2,2021.1.4,Win32,59.96282305,5fcca076e2e6deaf9f1055d7,60d9d14f4a8a35a482e0d9bf,60ede4e8e6f70b1504e6b5ad,j,1.6502,0,48,48,10,1,OOROROO,OOROROR,21.31236711,21.07490964,series_0
,,,,,,,,5fcca076e2e6deaf9f1055d7,Mężczyzna,21,2021-07-13_21h09.52.480,rantool2,2021.1.4,Win32,59.96282305,5fcca076e2e6deaf9f1055d7,60d9d14f4a8a35a482e0d9bf,60ede4e8e6f70b1504e6b5ad,f,2.4481,0,49,49,44,1,RORROOO,RORROOR,21.66733484,22.02566557,series_1
,,,,,,,,5fcca076e2e6deaf9f1055d7,Mężczyzna,21,2021-07-13_21h09.52.480,rantool2,2021.1.4,Win32,59.96282305,5fcca076e2e6deaf9f1055d7,60d9d14f4a8a35a482e0d9bf,60ede4e8e6f70b1504e6b5ad,j,2.0525,0,50,50,58,1,RRROROO,RRROROR,22.1285618,21.37121559,series_0
,,,,,,,,5fcca076e2e6deaf9f1055d7,Mężczyzna,21,2021-07-13_21h09.52.480,rantool2,2021.1.4,Win32,59.96282305,5fcca076e2e6deaf9f1055d7,60d9d14f4a8a35a482e0d9bf,60ede4e8e6f70b1504e6b5ad,f,1.6099,0,51,51,21,1,ORORORO,ORORORR,20.39515459,22.06781359,series_1
,,,,,,,,5fcca076e2e6deaf9f1055d7,Mężczyzna,21,2021-07-13_21h09.52.480,rantool2,2021.1.4,Win32,59.96282305,5fcca076e2e6deaf9f1055d7,60d9d14f4a8a35a482e0d9bf,60ede4e8e6f70b1504e6b5ad,j,1.9691,0,52,52,39,1,ROORRRO,ROORRRR,21.82425538,21.38562617,series_0
,,,,,,,,5fcca076e2e6deaf9f1055d7,Mężczyzna,21,2021-07-13_21h09.52.480,rantool2,2021.1.4,Win32,59.96282305,5fcca076e2e6deaf9f1055d7,60d9d14f4a8a35a482e0d9bf,60ede4e8e6f70b1504e6b5ad,f,2.4422,0,53,53,59,1,RRRORRO,RRRORRR,21.56657303,20.89823192,series_0
,,,,,,,,5fcca076e2e6deaf9f1055d7,Mężczyzna,21,2021-07-13_21h09.52.480,rantool2,2021.1.4,Win32,59.96282305,5fcca076e2e6deaf9f1055d7,60d9d14f4a8a35a482e0d9bf,60ede4e8e6f70b1504e6b5ad,j,1.7823,0,54,54,61,1,RRRRORO,RRRRORR,21.81333602,21.17347734,series_0
,,,,,,,,5fcca076e2e6deaf9f1055d7,Mężczyzna,21,2021-07-13_21h09.52.480,rantool2,2021.1.4,Win32,59.96282305,5fcca076e2e6deaf9f1055d7,60d9d14f4a8a35a482e0d9bf,60ede4e8e6f70b1504e6b5ad,f,1.6087,0,55,55,7,1,OOORRRO,OOORRRR,21.6194508,21.899017,series_1
,,,,,,,,5fcca076e2e6deaf9f1055d7,Mężczyzna,21,2021-07-13_21h09.52.480,rantool2,2021.1.4,Win32,59.96282305,5fcca076e2e6deaf9f1055d7,60d9d14f4a8a35a482e0d9bf,60ede4e8e6f70b1504e6b5ad,j,2.4796,0,56,56,29,1,ORRRORO,ORRRORR,22.00300695,22.12173012,series_1
,,,,,,,,5fcca076e2e6deaf9f1055d7,Mężczyzna,21,2021-07-13_21h09.52.480,rantool2,2021.1.4,Win32,59.96282305,5fcca076e2e6deaf9f1055d7,60d9d14f4a8a35a482e0d9bf,60ede4e8e6f70b1504e6b5ad,f,2.5547,0,57,57,54,1,RRORROO,RRORROR,21.55250791,20.9984461,series_0
,,,,,,,,5fcca076e2e6deaf9f1055d7,Mężczyzna,21,2021-07-13_21h09.52.480,rantool2,2021.1.4,Win32,59.96282305,5fcca076e2e6deaf9f1055d7,60d9d14f4a8a35a482e0d9bf,60ede4e8e6f70b1504e6b5ad,f,2.0596,0,58,58,1,1,OOOOORO,OOOOORR,19.92253567,20.74050628,series_1
,,,,,,,,5fcca076e2e6deaf9f1055d7,Mężczyzna,21,2021-07-13_21h09.52.480,rantool2,2021.1.4,Win32,59.96282305,5fcca076e2e6deaf9f1055d7,60d9d14f4a8a35a482e0d9bf,60ede4e8e6f70b1504e6b5ad,f,2.8568,0,59,59,33,1,ROOOORO,ROOOORR,20.83779602,22.03072203,series_1
,,,,,,,,5fcca076e2e6deaf9f1055d7,Mężczyzna,21,2021-07-13_21h09.52.480,rantool2,2021.1.4,Win32,59.96282305,5fcca076e2e6deaf9f1055d7,60d9d14f4a8a35a482e0d9bf,60ede4e8e6f70b1504e6b5ad,j,1.568,0,60,60,8,1,OOROOOO,OOROOOR,19.91402015,20.89823192,series_1
,,,,,,,,5fcca076e2e6deaf9f1055d7,Mężczyzna,21,2021-07-13_21h09.52.480,rantool2,2021.1.4,Win32,59.96282305,5fcca076e2e6deaf9f1055d7,60d9d14f4a8a35a482e0d9bf,60ede4e8e6f70b1504e6b5ad,f,1.3123,0,61,61,32,1,ROOOOOO,ROOOOOR,19.92253567,21.27974287,series_1
,,,,,,,,5fcca076e2e6deaf9f1055d7,Mężczyzna,21,2021-07-13_21h09.52.480,rantool2,2021.1.4,Win32,59.96282305,5fcca076e2e6deaf9f1055d7,60d9d14f4a8a35a482e0d9bf,60ede4e8e6f70b1504e6b5ad,f,1.467,0,62,62,42,1,ROROROO,ROROROR,20.39515459,19.8361834,series_0
,,,,,,,,5fcca076e2e6deaf9f1055d7,Mężczyzna,21,2021-07-13_21h09.52.480,rantool2,2021.1.4,Win32,59.96282305,5fcca076e2e6deaf9f1055d7,60d9d14f4a8a35a482e0d9bf,60ede4e8e6f70b1504e6b5ad,f,2.5431,0,63,63,15,1,OORRRRO,OORRRRR,22.10108823,21.74922619,series_0
