key_resp_7.keys,key_resp_7.rt,trials_2.thisRepN,trials_2.thisTrialN,trials_2.thisN,trials_2.thisIndex,trials_2.ran,id,series_0,series_1,acss_0,acss_1,comparison,id*,Płeć*,Wiek*,date,expName,psychopyVersion,OS,frameRate,STUDY_ID,SESSION_ID,key_resp_5.keys,key_resp_5.corr,key_resp_5.rt,trials.thisRepN,trials.thisTrialN,trials.thisN,trials.thisIndex,trials.ran
f,1.3161,0,0,0,53,1,612f638e6cac4627121d8d83,RRORORO,RRORORR,20.71309134,21.90565814,series_1,612f638e6cac4627121d8d83,Kobieta,33,2021-09-06_18h48.35.188,rantool2,2021.1.4,MacIntel,60.0024001,6135e006383e6ea6c3d06a28,61364649bdd662754a105c0f,,,,,,,,
j,1.5011,0,1,1,29,1,612f638e6cac4627121d8d83,ORRRORO,ORRRORR,22.00300695,22.12173012,series_1,612f638e6cac4627121d8d83,Kobieta,33,2021-09-06_18h48.35.188,rantool2,2021.1.4,MacIntel,60.0024001,6135e006383e6ea6c3d06a28,61364649bdd662754a105c0f,,,,,,,,
f,2.1009,0,2,2,41,1,612f638e6cac4627121d8d83,ROROORO,ROROORR,20.42602454,21.71443381,series_1,612f638e6cac4627121d8d83,Kobieta,33,2021-09-06_18h48.35.188,rantool2,2021.1.4,MacIntel,60.0024001,6135e006383e6ea6c3d06a28,61364649bdd662754a105c0f,,,,,,,,
f,1.4502,0,3,3,24,1,612f638e6cac4627121d8d83,ORROOOO,ORROOOR,21.12383932,22.07102821,series_1,612f638e6cac4627121d8d83,Kobieta,33,2021-09-06_18h48.35.188,rantool2,2021.1.4,MacIntel,60.0024001,6135e006383e6ea6c3d06a28,61364649bdd662754a105c0f,,,,,,,,
j,1.2527,0,4,4,19,1,612f638e6cac4627121d8d83,OROORRO,OROORRR,21.73568164,22.11181017,series_1,612f638e6cac4627121d8d83,Kobieta,33,2021-09-06_18h48.35.188,rantool2,2021.1.4,MacIntel,60.0024001,6135e006383e6ea6c3d06a28,61364649bdd662754a105c0f,,,,,,,,
f,1.8862,0,5,5,60,1,612f638e6cac4627121d8d83,RRRROOO,RRRROOR,22.10108823,22.15934078,series_1,612f638e6cac4627121d8d83,Kobieta,33,2021-09-06_18h48.35.188,rantool2,2021.1.4,MacIntel,60.0024001,6135e006383e6ea6c3d06a28,61364649bdd662754a105c0f,,,,,,,,
f,1.7451,0,6,6,12,1,612f638e6cac4627121d8d83,OORROOO,OORROOR,21.30250474,22.02786418,series_1,612f638e6cac4627121d8d83,Kobieta,33,2021-09-06_18h48.35.188,rantool2,2021.1.4,MacIntel,60.0024001,6135e006383e6ea6c3d06a28,61364649bdd662754a105c0f,,,,,,,,
f,2.116,0,7,7,5,1,612f638e6cac4627121d8d83,OOORORO,OOORORR,20.87963819,21.9921709,series_1,612f638e6cac4627121d8d83,Kobieta,33,2021-09-06_18h48.35.188,rantool2,2021.1.4,MacIntel,60.0024001,6135e006383e6ea6c3d06a28,61364649bdd662754a105c0f,,,,,,,,
j,1.8839,0,8,8,25,1,612f638e6cac4627121d8d83,ORROORO,ORROORR,21.79500819,22.61624387,series_1,612f638e6cac4627121d8d83,Kobieta,33,2021-09-06_18h48.35.188,rantool2,2021.1.4,MacIntel,60.0024001,6135e006383e6ea6c3d06a28,61364649bdd662754a105c0f,,,,,,,,
f,1.7337,0,9,9,61,1,612f638e6cac4627121d8d83,RRRRORO,RRRRORR,21.81333602,21.17347734,series_0,612f638e6cac4627121d8d83,Kobieta,33,2021-09-06_18h48.35.188,rantool2,2021.1.4,MacIntel,60.0024001,6135e006383e6ea6c3d06a28,61364649bdd662754a105c0f,,,,,,,,
j,2.2347,0,10,10,50,1,612f638e6cac4627121d8d83,RROOROO,RROOROR,21.73568164,22.02566557,series_1,612f638e6cac4627121d8d83,Kobieta,33,2021-09-06_18h48.35.188,rantool2,2021.1.4,MacIntel,60.0024001,6135e006383e6ea6c3d06a28,61364649bdd662754a105c0f,,,,,,,,
f,1.8168,0,11,11,59,1,612f638e6cac4627121d8d83,RRRORRO,RRRORRR,21.56657303,20.89823192,series_0,612f638e6cac4627121d8d83,Kobieta,33,2021-09-06_18h48.35.188,rantool2,2021.1.4,MacIntel,60.0024001,6135e006383e6ea6c3d06a28,61364649bdd662754a105c0f,,,,,,,,
j,1.8124,0,12,12,38,1,612f638e6cac4627121d8d83,ROORROO,ROORROR,21.79500819,21.36812781,series_0,612f638e6cac4627121d8d83,Kobieta,33,2021-09-06_18h48.35.188,rantool2,2021.1.4,MacIntel,60.0024001,6135e006383e6ea6c3d06a28,61364649bdd662754a105c0f,,,,,,,,
f,1.0187,0,13,13,0,1,612f638e6cac4627121d8d83,OOOOOOO,OOOOOOR,18.52739004,19.62521613,series_1,612f638e6cac4627121d8d83,Kobieta,33,2021-09-06_18h48.35.188,rantool2,2021.1.4,MacIntel,60.0024001,6135e006383e6ea6c3d06a28,61364649bdd662754a105c0f,,,,,,,,
j,1.5995,0,14,14,26,1,612f638e6cac4627121d8d83,ORROROO,ORROROR,22.02732763,21.71443381,series_0,612f638e6cac4627121d8d83,Kobieta,33,2021-09-06_18h48.35.188,rantool2,2021.1.4,MacIntel,60.0024001,6135e006383e6ea6c3d06a28,61364649bdd662754a105c0f,,,,,,,,
f,3.0339,0,15,15,54,1,612f638e6cac4627121d8d83,RRORROO,RRORROR,21.55250791,20.9984461,series_0,612f638e6cac4627121d8d83,Kobieta,33,2021-09-06_18h48.35.188,rantool2,2021.1.4,MacIntel,60.0024001,6135e006383e6ea6c3d06a28,61364649bdd662754a105c0f,,,,,,,,
f,2.5176,0,16,16,49,1,612f638e6cac4627121d8d83,RROOORO,RROOORR,21.76276513,22.53364006,series_1,612f638e6cac4627121d8d83,Kobieta,33,2021-09-06_18h48.35.188,rantool2,2021.1.4,MacIntel,60.0024001,6135e006383e6ea6c3d06a28,61364649bdd662754a105c0f,,,,,,,,
j,2.3638,0,17,17,30,1,612f638e6cac4627121d8d83,ORRRROO,ORRRROR,22.46748491,22.03072203,series_0,612f638e6cac4627121d8d83,Kobieta,33,2021-09-06_18h48.35.188,rantool2,2021.1.4,MacIntel,60.0024001,6135e006383e6ea6c3d06a28,61364649bdd662754a105c0f,,,,,,,,
j,2.002,0,18,18,36,1,612f638e6cac4627121d8d83,ROOROOO,ROOROOR,21.07991943,20.9984461,series_0,612f638e6cac4627121d8d83,Kobieta,33,2021-09-06_18h48.35.188,rantool2,2021.1.4,MacIntel,60.0024001,6135e006383e6ea6c3d06a28,61364649bdd662754a105c0f,,,,,,,,
f,1.9,0,19,19,11,1,612f638e6cac4627121d8d83,OORORRO,OORORRR,22.18365867,22.6797523,series_1,612f638e6cac4627121d8d83,Kobieta,33,2021-09-06_18h48.35.188,rantool2,2021.1.4,MacIntel,60.0024001,6135e006383e6ea6c3d06a28,61364649bdd662754a105c0f,,,,,,,,
j,1.6004,0,20,20,48,1,612f638e6cac4627121d8d83,RROOOOO,RROOOOR,20.90986523,22.15934078,series_1,612f638e6cac4627121d8d83,Kobieta,33,2021-09-06_18h48.35.188,rantool2,2021.1.4,MacIntel,60.0024001,6135e006383e6ea6c3d06a28,61364649bdd662754a105c0f,,,,,,,,
f,1.8496,0,21,21,23,1,612f638e6cac4627121d8d83,ORORRRO,ORORRRR,22.1285618,21.9921709,series_0,612f638e6cac4627121d8d83,Kobieta,33,2021-09-06_18h48.35.188,rantool2,2021.1.4,MacIntel,60.0024001,6135e006383e6ea6c3d06a28,61364649bdd662754a105c0f,,,,,,,,
j,1.4493,0,22,22,43,1,612f638e6cac4627121d8d83,RORORRO,RORORRR,20.71309134,21.07490964,series_1,612f638e6cac4627121d8d83,Kobieta,33,2021-09-06_18h48.35.188,rantool2,2021.1.4,MacIntel,60.0024001,6135e006383e6ea6c3d06a28,61364649bdd662754a105c0f,,,,,,,,
f,1.9331,0,23,23,15,1,612f638e6cac4627121d8d83,OORRRRO,OORRRRR,22.10108823,21.74922619,series_0,612f638e6cac4627121d8d83,Kobieta,33,2021-09-06_18h48.35.188,rantool2,2021.1.4,MacIntel,60.0024001,6135e006383e6ea6c3d06a28,61364649bdd662754a105c0f,,,,,,,,
j,1.3009,0,24,24,55,1,612f638e6cac4627121d8d83,RRORRRO,RRORRRR,21.56657303,21.21223021,series_0,612f638e6cac4627121d8d83,Kobieta,33,2021-09-06_18h48.35.188,rantool2,2021.1.4,MacIntel,60.0024001,6135e006383e6ea6c3d06a28,61364649bdd662754a105c0f,,,,,,,,
f,2.5349,0,25,25,33,1,612f638e6cac4627121d8d83,ROOOORO,ROOOORR,20.83779602,22.03072203,series_1,612f638e6cac4627121d8d83,Kobieta,33,2021-09-06_18h48.35.188,rantool2,2021.1.4,MacIntel,60.0024001,6135e006383e6ea6c3d06a28,61364649bdd662754a105c0f,,,,,,,,
j,1.083,0,26,26,31,1,612f638e6cac4627121d8d83,ORRRRRO,ORRRRRR,22.16413392,20.74050628,series_0,612f638e6cac4627121d8d83,Kobieta,33,2021-09-06_18h48.35.188,rantool2,2021.1.4,MacIntel,60.0024001,6135e006383e6ea6c3d06a28,61364649bdd662754a105c0f,,,,,,,,
f,1.6691,0,27,27,57,1,612f638e6cac4627121d8d83,RRROORO,RRROORR,21.82425538,22.07102821,series_1,612f638e6cac4627121d8d83,Kobieta,33,2021-09-06_18h48.35.188,rantool2,2021.1.4,MacIntel,60.0024001,6135e006383e6ea6c3d06a28,61364649bdd662754a105c0f,,,,,,,,
j,1.8185,0,28,28,20,1,612f638e6cac4627121d8d83,OROROOO,OROROOR,21.31236711,21.90565814,series_1,612f638e6cac4627121d8d83,Kobieta,33,2021-09-06_18h48.35.188,rantool2,2021.1.4,MacIntel,60.0024001,6135e006383e6ea6c3d06a28,61364649bdd662754a105c0f,,,,,,,,
f,2.3532,0,29,29,34,1,612f638e6cac4627121d8d83,ROOOROO,ROOOROR,21.03750787,21.24781509,series_1,612f638e6cac4627121d8d83,Kobieta,33,2021-09-06_18h48.35.188,rantool2,2021.1.4,MacIntel,60.0024001,6135e006383e6ea6c3d06a28,61364649bdd662754a105c0f,,,,,,,,
j,1.3849,0,30,30,40,1,612f638e6cac4627121d8d83,ROROOOO,ROROOOR,20.87963819,21.37121559,series_1,612f638e6cac4627121d8d83,Kobieta,33,2021-09-06_18h48.35.188,rantool2,2021.1.4,MacIntel,60.0024001,6135e006383e6ea6c3d06a28,61364649bdd662754a105c0f,,,,,,,,
j,2.1004,0,31,31,1,1,612f638e6cac4627121d8d83,OOOOORO,OOOOORR,19.92253567,20.74050628,series_1,612f638e6cac4627121d8d83,Kobieta,33,2021-09-06_18h48.35.188,rantool2,2021.1.4,MacIntel,60.0024001,6135e006383e6ea6c3d06a28,61364649bdd662754a105c0f,,,,,,,,
j,1.4675,0,32,32,63,1,612f638e6cac4627121d8d83,RRRRRRO,RRRRRRR,21.35278725,19.62521613,series_0,612f638e6cac4627121d8d83,Kobieta,33,2021-09-06_18h48.35.188,rantool2,2021.1.4,MacIntel,60.0024001,6135e006383e6ea6c3d06a28,61364649bdd662754a105c0f,,,,,,,,
j,1.7341,0,33,33,58,1,612f638e6cac4627121d8d83,RRROROO,RRROROR,22.1285618,21.37121559,series_0,612f638e6cac4627121d8d83,Kobieta,33,2021-09-06_18h48.35.188,rantool2,2021.1.4,MacIntel,60.0024001,6135e006383e6ea6c3d06a28,61364649bdd662754a105c0f,,,,,,,,
j,2.2004,0,34,34,27,1,612f638e6cac4627121d8d83,ORRORRO,ORRORRR,21.55250791,22.2428857,series_1,612f638e6cac4627121d8d83,Kobieta,33,2021-09-06_18h48.35.188,rantool2,2021.1.4,MacIntel,60.0024001,6135e006383e6ea6c3d06a28,61364649bdd662754a105c0f,,,,,,,,
f,1.3329,0,35,35,16,1,612f638e6cac4627121d8d83,OROOOOO,OROOOOR,20.43051175,21.17347734,series_1,612f638e6cac4627121d8d83,Kobieta,33,2021-09-06_18h48.35.188,rantool2,2021.1.4,MacIntel,60.0024001,6135e006383e6ea6c3d06a28,61364649bdd662754a105c0f,,,,,,,,
f,2.4176,0,36,36,42,1,612f638e6cac4627121d8d83,ROROROO,ROROROR,20.39515459,19.8361834,series_0,612f638e6cac4627121d8d83,Kobieta,33,2021-09-06_18h48.35.188,rantool2,2021.1.4,MacIntel,60.0024001,6135e006383e6ea6c3d06a28,61364649bdd662754a105c0f,,,,,,,,
j,1.5038,0,37,37,21,1,612f638e6cac4627121d8d83,ORORORO,ORORORR,20.39515459,22.06781359,series_1,612f638e6cac4627121d8d83,Kobieta,33,2021-09-06_18h48.35.188,rantool2,2021.1.4,MacIntel,60.0024001,6135e006383e6ea6c3d06a28,61364649bdd662754a105c0f,,,,,,,,
j,1.9339,0,38,38,17,1,612f638e6cac4627121d8d83,OROOORO,OROOORR,21.03750787,22.12173012,series_1,612f638e6cac4627121d8d83,Kobieta,33,2021-09-06_18h48.35.188,rantool2,2021.1.4,MacIntel,60.0024001,6135e006383e6ea6c3d06a28,61364649bdd662754a105c0f,,,,,,,,
j,2.778,0,39,39,46,1,612f638e6cac4627121d8d83,RORRROO,RORRROR,22.00300695,21.24781509,series_0,612f638e6cac4627121d8d83,Kobieta,33,2021-09-06_18h48.35.188,rantool2,2021.1.4,MacIntel,60.0024001,6135e006383e6ea6c3d06a28,61364649bdd662754a105c0f,,,,,,,,
j,1.8002,0,40,40,14,1,612f638e6cac4627121d8d83,OORRROO,OORRROR,22.24142883,22.16977179,series_0,612f638e6cac4627121d8d83,Kobieta,33,2021-09-06_18h48.35.188,rantool2,2021.1.4,MacIntel,60.0024001,6135e006383e6ea6c3d06a28,61364649bdd662754a105c0f,,,,,,,,
f,1.9181,0,41,41,52,1,612f638e6cac4627121d8d83,RROROOO,RROROOR,22.18365867,22.11097995,series_0,612f638e6cac4627121d8d83,Kobieta,33,2021-09-06_18h48.35.188,rantool2,2021.1.4,MacIntel,60.0024001,6135e006383e6ea6c3d06a28,61364649bdd662754a105c0f,,,,,,,,
j,1.3662,0,42,42,32,1,612f638e6cac4627121d8d83,ROOOOOO,ROOOOOR,19.92253567,21.27974287,series_1,612f638e6cac4627121d8d83,Kobieta,33,2021-09-06_18h48.35.188,rantool2,2021.1.4,MacIntel,60.0024001,6135e006383e6ea6c3d06a28,61364649bdd662754a105c0f,,,,,,,,
f,3.0971,0,43,43,45,1,612f638e6cac4627121d8d83,RORRORO,RORRORR,20.78182524,21.22513037,series_1,612f638e6cac4627121d8d83,Kobieta,33,2021-09-06_18h48.35.188,rantool2,2021.1.4,MacIntel,60.0024001,6135e006383e6ea6c3d06a28,61364649bdd662754a105c0f,,,,,,,,
f,2.3826,0,44,44,22,1,612f638e6cac4627121d8d83,ORORROO,ORORROR,22.02732763,21.57657071,series_0,612f638e6cac4627121d8d83,Kobieta,33,2021-09-06_18h48.35.188,rantool2,2021.1.4,MacIntel,60.0024001,6135e006383e6ea6c3d06a28,61364649bdd662754a105c0f,,,,,,,,
f,1.4496,0,45,45,44,1,612f638e6cac4627121d8d83,RORROOO,RORROOR,21.66733484,22.02566557,series_1,612f638e6cac4627121d8d83,Kobieta,33,2021-09-06_18h48.35.188,rantool2,2021.1.4,MacIntel,60.0024001,6135e006383e6ea6c3d06a28,61364649bdd662754a105c0f,,,,,,,,
f,1.9167,0,46,46,9,1,612f638e6cac4627121d8d83,OOROORO,OOROORR,21.07991943,22.2428857,series_1,612f638e6cac4627121d8d83,Kobieta,33,2021-09-06_18h48.35.188,rantool2,2021.1.4,MacIntel,60.0024001,6135e006383e6ea6c3d06a28,61364649bdd662754a105c0f,,,,,,,,
f,2.2869,0,47,47,2,1,612f638e6cac4627121d8d83,OOOOROO,OOOOROR,20.43051175,21.02936224,series_1,612f638e6cac4627121d8d83,Kobieta,33,2021-09-06_18h48.35.188,rantool2,2021.1.4,MacIntel,60.0024001,6135e006383e6ea6c3d06a28,61364649bdd662754a105c0f,,,,,,,,
j,2.8361,0,48,48,37,1,612f638e6cac4627121d8d83,ROORORO,ROORORR,20.42602454,21.57657071,series_1,612f638e6cac4627121d8d83,Kobieta,33,2021-09-06_18h48.35.188,rantool2,2021.1.4,MacIntel,60.0024001,6135e006383e6ea6c3d06a28,61364649bdd662754a105c0f,,,,,,,,
f,1.5496,0,49,49,56,1,612f638e6cac4627121d8d83,RRROOOO,RRROOOR,21.6194508,22.31681875,series_1,612f638e6cac4627121d8d83,Kobieta,33,2021-09-06_18h48.35.188,rantool2,2021.1.4,MacIntel,60.0024001,6135e006383e6ea6c3d06a28,61364649bdd662754a105c0f,,,,,,,,
j,1.3172,0,50,50,51,1,612f638e6cac4627121d8d83,RROORRO,RROORRR,21.89852628,22.02786418,series_1,612f638e6cac4627121d8d83,Kobieta,33,2021-09-06_18h48.35.188,rantool2,2021.1.4,MacIntel,60.0024001,6135e006383e6ea6c3d06a28,61364649bdd662754a105c0f,,,,,,,,
f,1.4169,0,51,51,47,1,612f638e6cac4627121d8d83,RORRRRO,RORRRRR,21.81333602,21.02936224,series_0,612f638e6cac4627121d8d83,Kobieta,33,2021-09-06_18h48.35.188,rantool2,2021.1.4,MacIntel,60.0024001,6135e006383e6ea6c3d06a28,61364649bdd662754a105c0f,,,,,,,,
j,2.868,0,52,52,18,1,612f638e6cac4627121d8d83,OROOROO,OROOROR,20.84860893,21.22513037,series_1,612f638e6cac4627121d8d83,Kobieta,33,2021-09-06_18h48.35.188,rantool2,2021.1.4,MacIntel,60.0024001,6135e006383e6ea6c3d06a28,61364649bdd662754a105c0f,,,,,,,,
f,1.9838,0,53,53,28,1,612f638e6cac4627121d8d83,ORRROOO,ORRROOR,22.24142883,22.53364006,series_1,612f638e6cac4627121d8d83,Kobieta,33,2021-09-06_18h48.35.188,rantool2,2021.1.4,MacIntel,60.0024001,6135e006383e6ea6c3d06a28,61364649bdd662754a105c0f,,,,,,,,
j,1.7002,0,54,54,3,1,612f638e6cac4627121d8d83,OOOORRO,OOOORRR,20.90986523,21.74922619,series_1,612f638e6cac4627121d8d83,Kobieta,33,2021-09-06_18h48.35.188,rantool2,2021.1.4,MacIntel,60.0024001,6135e006383e6ea6c3d06a28,61364649bdd662754a105c0f,,,,,,,,
f,1.8347,0,55,55,35,1,612f638e6cac4627121d8d83,ROOORRO,ROOORRR,21.76276513,22.16977179,series_1,612f638e6cac4627121d8d83,Kobieta,33,2021-09-06_18h48.35.188,rantool2,2021.1.4,MacIntel,60.0024001,6135e006383e6ea6c3d06a28,61364649bdd662754a105c0f,,,,,,,,
j,1.5001,0,56,56,4,1,612f638e6cac4627121d8d83,OOOROOO,OOOROOR,19.91402015,21.21223021,series_1,612f638e6cac4627121d8d83,Kobieta,33,2021-09-06_18h48.35.188,rantool2,2021.1.4,MacIntel,60.0024001,6135e006383e6ea6c3d06a28,61364649bdd662754a105c0f,,,,,,,,
f,1.9006,0,57,57,39,1,612f638e6cac4627121d8d83,ROORRRO,ROORRRR,21.82425538,21.38562617,series_0,612f638e6cac4627121d8d83,Kobieta,33,2021-09-06_18h48.35.188,rantool2,2021.1.4,MacIntel,60.0024001,6135e006383e6ea6c3d06a28,61364649bdd662754a105c0f,,,,,,,,
j,1.1852,0,58,58,8,1,612f638e6cac4627121d8d83,OOROOOO,OOROOOR,19.91402015,20.89823192,series_1,612f638e6cac4627121d8d83,Kobieta,33,2021-09-06_18h48.35.188,rantool2,2021.1.4,MacIntel,60.0024001,6135e006383e6ea6c3d06a28,61364649bdd662754a105c0f,,,,,,,,
f,2.6837,0,59,59,13,1,612f638e6cac4627121d8d83,OORRORO,OORRORR,21.66733484,22.11181017,series_1,612f638e6cac4627121d8d83,Kobieta,33,2021-09-06_18h48.35.188,rantool2,2021.1.4,MacIntel,60.0024001,6135e006383e6ea6c3d06a28,61364649bdd662754a105c0f,,,,,,,,
j,2.5167,0,60,60,10,1,612f638e6cac4627121d8d83,OOROROO,OOROROR,21.31236711,21.07490964,series_0,612f638e6cac4627121d8d83,Kobieta,33,2021-09-06_18h48.35.188,rantool2,2021.1.4,MacIntel,60.0024001,6135e006383e6ea6c3d06a28,61364649bdd662754a105c0f,,,,,,,,
f,1.0992,0,61,61,7,1,612f638e6cac4627121d8d83,OOORRRO,OOORRRR,21.6194508,21.899017,series_1,612f638e6cac4627121d8d83,Kobieta,33,2021-09-06_18h48.35.188,rantool2,2021.1.4,MacIntel,60.0024001,6135e006383e6ea6c3d06a28,61364649bdd662754a105c0f,,,,,,,,
f,1.6507,0,62,62,62,1,612f638e6cac4627121d8d83,RRRRROO,RRRRROR,22.16413392,21.27974287,series_0,612f638e6cac4627121d8d83,Kobieta,33,2021-09-06_18h48.35.188,rantool2,2021.1.4,MacIntel,60.0024001,6135e006383e6ea6c3d06a28,61364649bdd662754a105c0f,,,,,,,,
f,2.6169,0,63,63,6,1,612f638e6cac4627121d8d83,OOORROO,OOORROR,21.12383932,21.38562617,series_1,612f638e6cac4627121d8d83,Kobieta,33,2021-09-06_18h48.35.188,rantool2,2021.1.4,MacIntel,60.0024001,6135e006383e6ea6c3d06a28,61364649bdd662754a105c0f,,,,,,,,
,,,,,,,612f638e6cac4627121d8d83,,,,,,612f638e6cac4627121d8d83,Kobieta,33,2021-09-06_18h48.35.188,rantool2,2021.1.4,MacIntel,60.0024001,6135e006383e6ea6c3d06a28,61364649bdd662754a105c0f,"[""comma""]",0,[1.0188999999761563],0,0,0,0,1
,,,,,,,612f638e6cac4627121d8d83,,,,,,612f638e6cac4627121d8d83,Kobieta,33,2021-09-06_18h48.35.188,rantool2,2021.1.4,MacIntel,60.0024001,6135e006383e6ea6c3d06a28,61364649bdd662754a105c0f,"[""period""]",0,[0.33730000001193616],1,0,1,0,1
,,,,,,,612f638e6cac4627121d8d83,,,,,,612f638e6cac4627121d8d83,Kobieta,33,2021-09-06_18h48.35.188,rantool2,2021.1.4,MacIntel,60.0024001,6135e006383e6ea6c3d06a28,61364649bdd662754a105c0f,"[""period""]",0,[0.21980000001192934],2,0,2,0,1
,,,,,,,612f638e6cac4627121d8d83,,,,,,612f638e6cac4627121d8d83,Kobieta,33,2021-09-06_18h48.35.188,rantool2,2021.1.4,MacIntel,60.0024001,6135e006383e6ea6c3d06a28,61364649bdd662754a105c0f,"[""comma""]",0,[0.23320000004767394],3,0,3,0,1
,,,,,,,612f638e6cac4627121d8d83,,,,,,612f638e6cac4627121d8d83,Kobieta,33,2021-09-06_18h48.35.188,rantool2,2021.1.4,MacIntel,60.0024001,6135e006383e6ea6c3d06a28,61364649bdd662754a105c0f,"[""period""]",0,[0.29939999997617406],4,0,4,0,1
,,,,,,,612f638e6cac4627121d8d83,,,,,,612f638e6cac4627121d8d83,Kobieta,33,2021-09-06_18h48.35.188,rantool2,2021.1.4,MacIntel,60.0024001,6135e006383e6ea6c3d06a28,61364649bdd662754a105c0f,"[""comma""]",0,[0.25039999997616746],5,0,5,0,1
,,,,,,,612f638e6cac4627121d8d83,,,,,,612f638e6cac4627121d8d83,Kobieta,33,2021-09-06_18h48.35.188,rantool2,2021.1.4,MacIntel,60.0024001,6135e006383e6ea6c3d06a28,61364649bdd662754a105c0f,"[""comma""]",0,[0.2504000000357678],6,0,6,0,1
,,,,,,,612f638e6cac4627121d8d83,,,,,,612f638e6cac4627121d8d83,Kobieta,33,2021-09-06_18h48.35.188,rantool2,2021.1.4,MacIntel,60.0024001,6135e006383e6ea6c3d06a28,61364649bdd662754a105c0f,"[""comma""]",0,[0.3001000000238321],7,0,7,0,1
,,,,,,,612f638e6cac4627121d8d83,,,,,,612f638e6cac4627121d8d83,Kobieta,33,2021-09-06_18h48.35.188,rantool2,2021.1.4,MacIntel,60.0024001,6135e006383e6ea6c3d06a28,61364649bdd662754a105c0f,"[""period""]",0,[0.2616000000238614],8,0,8,0,1
,,,,,,,612f638e6cac4627121d8d83,,,,,,612f638e6cac4627121d8d83,Kobieta,33,2021-09-06_18h48.35.188,rantool2,2021.1.4,MacIntel,60.0024001,6135e006383e6ea6c3d06a28,61364649bdd662754a105c0f,"[""period""]",0,[0.2656999999880725],9,0,9,0,1
,,,,,,,612f638e6cac4627121d8d83,,,,,,612f638e6cac4627121d8d83,Kobieta,33,2021-09-06_18h48.35.188,rantool2,2021.1.4,MacIntel,60.0024001,6135e006383e6ea6c3d06a28,61364649bdd662754a105c0f,"[""comma""]",0,[0.28340000003575483],10,0,10,0,1
,,,,,,,612f638e6cac4627121d8d83,,,,,,612f638e6cac4627121d8d83,Kobieta,33,2021-09-06_18h48.35.188,rantool2,2021.1.4,MacIntel,60.0024001,6135e006383e6ea6c3d06a28,61364649bdd662754a105c0f,"[""period""]",0,[0.29930000001192525],11,0,11,0,1
,,,,,,,612f638e6cac4627121d8d83,,,,,,612f638e6cac4627121d8d83,Kobieta,33,2021-09-06_18h48.35.188,rantool2,2021.1.4,MacIntel,60.0024001,6135e006383e6ea6c3d06a28,61364649bdd662754a105c0f,"[""comma""]",0,[0.34950000000000614],12,0,12,0,1
,,,,,,,612f638e6cac4627121d8d83,,,,,,612f638e6cac4627121d8d83,Kobieta,33,2021-09-06_18h48.35.188,rantool2,2021.1.4,MacIntel,60.0024001,6135e006383e6ea6c3d06a28,61364649bdd662754a105c0f,"[""comma""]",0,[0.28360000002382435],13,0,13,0,1
,,,,,,,612f638e6cac4627121d8d83,,,,,,612f638e6cac4627121d8d83,Kobieta,33,2021-09-06_18h48.35.188,rantool2,2021.1.4,MacIntel,60.0024001,6135e006383e6ea6c3d06a28,61364649bdd662754a105c0f,"[""period""]",0,[0.2838999999761427],14,0,14,0,1
,,,,,,,612f638e6cac4627121d8d83,,,,,,612f638e6cac4627121d8d83,Kobieta,33,2021-09-06_18h48.35.188,rantool2,2021.1.4,MacIntel,60.0024001,6135e006383e6ea6c3d06a28,61364649bdd662754a105c0f,"[""period""]",0,[0.3013999999761552],15,0,15,0,1
,,,,,,,612f638e6cac4627121d8d83,,,,,,612f638e6cac4627121d8d83,Kobieta,33,2021-09-06_18h48.35.188,rantool2,2021.1.4,MacIntel,60.0024001,6135e006383e6ea6c3d06a28,61364649bdd662754a105c0f,"[""comma"",""period""]",0,"[0.2516999999880909,1.766999999999996]",16,0,16,0,1
,,,,,,,612f638e6cac4627121d8d83,,,,,,612f638e6cac4627121d8d83,Kobieta,33,2021-09-06_18h48.35.188,rantool2,2021.1.4,MacIntel,60.0024001,6135e006383e6ea6c3d06a28,61364649bdd662754a105c0f,"[""period""]",0,[0.333500000000015],17,0,17,0,1
,,,,,,,612f638e6cac4627121d8d83,,,,,,612f638e6cac4627121d8d83,Kobieta,33,2021-09-06_18h48.35.188,rantool2,2021.1.4,MacIntel,60.0024001,6135e006383e6ea6c3d06a28,61364649bdd662754a105c0f,"[""period""]",0,[0.3005999999642768],18,0,18,0,1
,,,,,,,612f638e6cac4627121d8d83,,,,,,612f638e6cac4627121d8d83,Kobieta,33,2021-09-06_18h48.35.188,rantool2,2021.1.4,MacIntel,60.0024001,6135e006383e6ea6c3d06a28,61364649bdd662754a105c0f,"[""period""]",0,[0.30119999998805724],19,0,19,0,1
,,,,,,,612f638e6cac4627121d8d83,,,,,,612f638e6cac4627121d8d83,Kobieta,33,2021-09-06_18h48.35.188,rantool2,2021.1.4,MacIntel,60.0024001,6135e006383e6ea6c3d06a28,61364649bdd662754a105c0f,"[""comma""]",0,[0.33369999998808453],20,0,20,0,1
,,,,,,,612f638e6cac4627121d8d83,,,,,,612f638e6cac4627121d8d83,Kobieta,33,2021-09-06_18h48.35.188,rantool2,2021.1.4,MacIntel,60.0024001,6135e006383e6ea6c3d06a28,61364649bdd662754a105c0f,"[""period""]",0,[0.3499999999999659],21,0,21,0,1
,,,,,,,612f638e6cac4627121d8d83,,,,,,612f638e6cac4627121d8d83,Kobieta,33,2021-09-06_18h48.35.188,rantool2,2021.1.4,MacIntel,60.0024001,6135e006383e6ea6c3d06a28,61364649bdd662754a105c0f,"[""comma""]",0,[0.3006000000238487],22,0,22,0,1
,,,,,,,612f638e6cac4627121d8d83,,,,,,612f638e6cac4627121d8d83,Kobieta,33,2021-09-06_18h48.35.188,rantool2,2021.1.4,MacIntel,60.0024001,6135e006383e6ea6c3d06a28,61364649bdd662754a105c0f,"[""comma""]",0,[0.5013999999761722],23,0,23,0,1
,,,,,,,612f638e6cac4627121d8d83,,,,,,612f638e6cac4627121d8d83,Kobieta,33,2021-09-06_18h48.35.188,rantool2,2021.1.4,MacIntel,60.0024001,6135e006383e6ea6c3d06a28,61364649bdd662754a105c0f,"[""comma""]",0,[0.38409999996423494],24,0,24,0,1
,,,,,,,612f638e6cac4627121d8d83,,,,,,612f638e6cac4627121d8d83,Kobieta,33,2021-09-06_18h48.35.188,rantool2,2021.1.4,MacIntel,60.0024001,6135e006383e6ea6c3d06a28,61364649bdd662754a105c0f,"[""period""]",0,[0.2845999999642572],25,0,25,0,1
,,,,,,,612f638e6cac4627121d8d83,,,,,,612f638e6cac4627121d8d83,Kobieta,33,2021-09-06_18h48.35.188,rantool2,2021.1.4,MacIntel,60.0024001,6135e006383e6ea6c3d06a28,61364649bdd662754a105c0f,"[""comma""]",0,[0.30169999998810226],26,0,26,0,1
,,,,,,,612f638e6cac4627121d8d83,,,,,,612f638e6cac4627121d8d83,Kobieta,33,2021-09-06_18h48.35.188,rantool2,2021.1.4,MacIntel,60.0024001,6135e006383e6ea6c3d06a28,61364649bdd662754a105c0f,"[""period""]",0,[0.28369999998807316],27,0,27,0,1
,,,,,,,612f638e6cac4627121d8d83,,,,,,612f638e6cac4627121d8d83,Kobieta,33,2021-09-06_18h48.35.188,rantool2,2021.1.4,MacIntel,60.0024001,6135e006383e6ea6c3d06a28,61364649bdd662754a105c0f,"[""period""]",0,[0.3178999999761345],28,0,28,0,1
,,,,,,,612f638e6cac4627121d8d83,,,,,,612f638e6cac4627121d8d83,Kobieta,33,2021-09-06_18h48.35.188,rantool2,2021.1.4,MacIntel,60.0024001,6135e006383e6ea6c3d06a28,61364649bdd662754a105c0f,"[""period""]",0,[0.5683000000119023],29,0,29,0,1
,,,,,,,612f638e6cac4627121d8d83,,,,,,612f638e6cac4627121d8d83,Kobieta,33,2021-09-06_18h48.35.188,rantool2,2021.1.4,MacIntel,60.0024001,6135e006383e6ea6c3d06a28,61364649bdd662754a105c0f,"[""comma""]",0,[0.33389999997615405],30,0,30,0,1
,,,,,,,612f638e6cac4627121d8d83,,,,,,612f638e6cac4627121d8d83,Kobieta,33,2021-09-06_18h48.35.188,rantool2,2021.1.4,MacIntel,60.0024001,6135e006383e6ea6c3d06a28,61364649bdd662754a105c0f,"[""period""]",0,[0.16699999999997317],31,0,31,0,1
,,,,,,,612f638e6cac4627121d8d83,,,,,,612f638e6cac4627121d8d83,Kobieta,33,2021-09-06_18h48.35.188,rantool2,2021.1.4,MacIntel,60.0024001,6135e006383e6ea6c3d06a28,61364649bdd662754a105c0f,"[""comma""]",0,[0.30160000002382503],32,0,32,0,1
,,,,,,,612f638e6cac4627121d8d83,,,,,,612f638e6cac4627121d8d83,Kobieta,33,2021-09-06_18h48.35.188,rantool2,2021.1.4,MacIntel,60.0024001,6135e006383e6ea6c3d06a28,61364649bdd662754a105c0f,"[""comma""]",0,[0.38299999999998136],33,0,33,0,1
,,,,,,,612f638e6cac4627121d8d83,,,,,,612f638e6cac4627121d8d83,Kobieta,33,2021-09-06_18h48.35.188,rantool2,2021.1.4,MacIntel,60.0024001,6135e006383e6ea6c3d06a28,61364649bdd662754a105c0f,"[""period""]",0,[0.2669000000357187],34,0,34,0,1
,,,,,,,612f638e6cac4627121d8d83,,,,,,612f638e6cac4627121d8d83,Kobieta,33,2021-09-06_18h48.35.188,rantool2,2021.1.4,MacIntel,60.0024001,6135e006383e6ea6c3d06a28,61364649bdd662754a105c0f,"[""comma""]",0,[0.2512999999523231],35,0,35,0,1
,,,,,,,612f638e6cac4627121d8d83,,,,,,612f638e6cac4627121d8d83,Kobieta,33,2021-09-06_18h48.35.188,rantool2,2021.1.4,MacIntel,60.0024001,6135e006383e6ea6c3d06a28,61364649bdd662754a105c0f,"[""period""]",0,[0.24960000002386096],36,0,36,0,1
,,,,,,,612f638e6cac4627121d8d83,,,,,,612f638e6cac4627121d8d83,Kobieta,33,2021-09-06_18h48.35.188,rantool2,2021.1.4,MacIntel,60.0024001,6135e006383e6ea6c3d06a28,61364649bdd662754a105c0f,"[""comma""]",0,[-0.012999999999976808],37,0,37,0,1
,,,,,,,612f638e6cac4627121d8d83,,,,,,612f638e6cac4627121d8d83,Kobieta,33,2021-09-06_18h48.35.188,rantool2,2021.1.4,MacIntel,60.0024001,6135e006383e6ea6c3d06a28,61364649bdd662754a105c0f,"[""comma""]",0,[0.2823999999761213],38,0,38,0,1
,,,,,,,612f638e6cac4627121d8d83,,,,,,612f638e6cac4627121d8d83,Kobieta,33,2021-09-06_18h48.35.188,rantool2,2021.1.4,MacIntel,60.0024001,6135e006383e6ea6c3d06a28,61364649bdd662754a105c0f,"[""period""]",0,[0.2808000000119364],39,0,39,0,1
,,,,,,,612f638e6cac4627121d8d83,,,,,,612f638e6cac4627121d8d83,Kobieta,33,2021-09-06_18h48.35.188,rantool2,2021.1.4,MacIntel,60.0024001,6135e006383e6ea6c3d06a28,61364649bdd662754a105c0f,"[""comma""]",0,[0.24919999998803632],40,0,40,0,1
,,,,,,,612f638e6cac4627121d8d83,,,,,,612f638e6cac4627121d8d83,Kobieta,33,2021-09-06_18h48.35.188,rantool2,2021.1.4,MacIntel,60.0024001,6135e006383e6ea6c3d06a28,61364649bdd662754a105c0f,"[""comma""]",0,[0.25030000001191866],41,0,41,0,1
,,,,,,,612f638e6cac4627121d8d83,,,,,,612f638e6cac4627121d8d83,Kobieta,33,2021-09-06_18h48.35.188,rantool2,2021.1.4,MacIntel,60.0024001,6135e006383e6ea6c3d06a28,61364649bdd662754a105c0f,"[""period""]",0,[0.3326000000238878],42,0,42,0,1
,,,,,,,612f638e6cac4627121d8d83,,,,,,612f638e6cac4627121d8d83,Kobieta,33,2021-09-06_18h48.35.188,rantool2,2021.1.4,MacIntel,60.0024001,6135e006383e6ea6c3d06a28,61364649bdd662754a105c0f,"[""period""]",0,[0.2827999999523172],43,0,43,0,1
,,,,,,,612f638e6cac4627121d8d83,,,,,,612f638e6cac4627121d8d83,Kobieta,33,2021-09-06_18h48.35.188,rantool2,2021.1.4,MacIntel,60.0024001,6135e006383e6ea6c3d06a28,61364649bdd662754a105c0f,"[""period""]",0,[0.26660000002385686],44,0,44,0,1
,,,,,,,612f638e6cac4627121d8d83,,,,,,612f638e6cac4627121d8d83,Kobieta,33,2021-09-06_18h48.35.188,rantool2,2021.1.4,MacIntel,60.0024001,6135e006383e6ea6c3d06a28,61364649bdd662754a105c0f,"[""period""]",0,[0.29899999999997817],45,0,45,0,1
,,,,,,,612f638e6cac4627121d8d83,,,,,,612f638e6cac4627121d8d83,Kobieta,33,2021-09-06_18h48.35.188,rantool2,2021.1.4,MacIntel,60.0024001,6135e006383e6ea6c3d06a28,61364649bdd662754a105c0f,"[""comma""]",0,[0.3353999999761754],46,0,46,0,1
,,,,,,,612f638e6cac4627121d8d83,,,,,,612f638e6cac4627121d8d83,Kobieta,33,2021-09-06_18h48.35.188,rantool2,2021.1.4,MacIntel,60.0024001,6135e006383e6ea6c3d06a28,61364649bdd662754a105c0f,"[""comma""]",0,[0.3336000000238073],47,0,47,0,1
,,,,,,,612f638e6cac4627121d8d83,,,,,,612f638e6cac4627121d8d83,Kobieta,33,2021-09-06_18h48.35.188,rantool2,2021.1.4,MacIntel,60.0024001,6135e006383e6ea6c3d06a28,61364649bdd662754a105c0f,"[""period""]",0,[0.4159999999999968],48,0,48,0,1
,,,,,,,612f638e6cac4627121d8d83,,,,,,612f638e6cac4627121d8d83,Kobieta,33,2021-09-06_18h48.35.188,rantool2,2021.1.4,MacIntel,60.0024001,6135e006383e6ea6c3d06a28,61364649bdd662754a105c0f,"[""comma""]",0,[0.29919999998810454],49,0,49,0,1
,,,,,,,612f638e6cac4627121d8d83,,,,,,612f638e6cac4627121d8d83,Kobieta,33,2021-09-06_18h48.35.188,rantool2,2021.1.4,MacIntel,60.0024001,6135e006383e6ea6c3d06a28,61364649bdd662754a105c0f,"[""comma""]",0,[0.3271000000238473],50,0,50,0,1
,,,,,,,612f638e6cac4627121d8d83,,,,,,612f638e6cac4627121d8d83,Kobieta,33,2021-09-06_18h48.35.188,rantool2,2021.1.4,MacIntel,60.0024001,6135e006383e6ea6c3d06a28,61364649bdd662754a105c0f,"[""comma""]",0,[0.3003000000118732],51,0,51,0,1
,,,,,,,612f638e6cac4627121d8d83,,,,,,612f638e6cac4627121d8d83,Kobieta,33,2021-09-06_18h48.35.188,rantool2,2021.1.4,MacIntel,60.0024001,6135e006383e6ea6c3d06a28,61364649bdd662754a105c0f,"[""comma""]",0,[0.28359999996428087],52,0,52,0,1
,,,,,,,612f638e6cac4627121d8d83,,,,,,612f638e6cac4627121d8d83,Kobieta,33,2021-09-06_18h48.35.188,rantool2,2021.1.4,MacIntel,60.0024001,6135e006383e6ea6c3d06a28,61364649bdd662754a105c0f,"[""period""]",0,[0.09949999999997772],53,0,53,0,1
,,,,,,,612f638e6cac4627121d8d83,,,,,,612f638e6cac4627121d8d83,Kobieta,33,2021-09-06_18h48.35.188,rantool2,2021.1.4,MacIntel,60.0024001,6135e006383e6ea6c3d06a28,61364649bdd662754a105c0f,"[""comma""]",0,[0.2506999999880577],54,0,54,0,1
,,,,,,,612f638e6cac4627121d8d83,,,,,,612f638e6cac4627121d8d83,Kobieta,33,2021-09-06_18h48.35.188,rantool2,2021.1.4,MacIntel,60.0024001,6135e006383e6ea6c3d06a28,61364649bdd662754a105c0f,"[""period""]",0,[0.4175000000000182],55,0,55,0,1
,,,,,,,612f638e6cac4627121d8d83,,,,,,612f638e6cac4627121d8d83,Kobieta,33,2021-09-06_18h48.35.188,rantool2,2021.1.4,MacIntel,60.0024001,6135e006383e6ea6c3d06a28,61364649bdd662754a105c0f,"[""comma""]",0,[0.4328000000119232],56,0,56,0,1
,,,,,,,612f638e6cac4627121d8d83,,,,,,612f638e6cac4627121d8d83,Kobieta,33,2021-09-06_18h48.35.188,rantool2,2021.1.4,MacIntel,60.0024001,6135e006383e6ea6c3d06a28,61364649bdd662754a105c0f,"[""comma""]",0,[0.3498000000118964],57,0,57,0,1
,,,,,,,612f638e6cac4627121d8d83,,,,,,612f638e6cac4627121d8d83,Kobieta,33,2021-09-06_18h48.35.188,rantool2,2021.1.4,MacIntel,60.0024001,6135e006383e6ea6c3d06a28,61364649bdd662754a105c0f,"[""comma""]",0,[0.22689999997618315],58,0,58,0,1
,,,,,,,612f638e6cac4627121d8d83,,,,,,612f638e6cac4627121d8d83,Kobieta,33,2021-09-06_18h48.35.188,rantool2,2021.1.4,MacIntel,60.0024001,6135e006383e6ea6c3d06a28,61364649bdd662754a105c0f,"[""period""]",0,[0.5163999999761586],59,0,59,0,1
,,,,,,,612f638e6cac4627121d8d83,,,,,,612f638e6cac4627121d8d83,Kobieta,33,2021-09-06_18h48.35.188,rantool2,2021.1.4,MacIntel,60.0024001,6135e006383e6ea6c3d06a28,61364649bdd662754a105c0f,"[""comma""]",0,[0.3166000000238114],60,0,60,0,1
,,,,,,,612f638e6cac4627121d8d83,,,,,,612f638e6cac4627121d8d83,Kobieta,33,2021-09-06_18h48.35.188,rantool2,2021.1.4,MacIntel,60.0024001,6135e006383e6ea6c3d06a28,61364649bdd662754a105c0f,"[""period""]",0,[0.30240000003573186],61,0,61,0,1
,,,,,,,612f638e6cac4627121d8d83,,,,,,612f638e6cac4627121d8d83,Kobieta,33,2021-09-06_18h48.35.188,rantool2,2021.1.4,MacIntel,60.0024001,6135e006383e6ea6c3d06a28,61364649bdd662754a105c0f,"[""period""]",0,[0.3335999999642354],62,0,62,0,1
,,,,,,,612f638e6cac4627121d8d83,,,,,,612f638e6cac4627121d8d83,Kobieta,33,2021-09-06_18h48.35.188,rantool2,2021.1.4,MacIntel,60.0024001,6135e006383e6ea6c3d06a28,61364649bdd662754a105c0f,"[""comma""]",0,[0.3171999999880768],63,0,63,0,1
,,,,,,,612f638e6cac4627121d8d83,,,,,,612f638e6cac4627121d8d83,Kobieta,33,2021-09-06_18h48.35.188,rantool2,2021.1.4,MacIntel,60.0024001,6135e006383e6ea6c3d06a28,61364649bdd662754a105c0f,"[""comma""]",0,[0.2769999999999868],64,0,64,0,1
,,,,,,,612f638e6cac4627121d8d83,,,,,,612f638e6cac4627121d8d83,Kobieta,33,2021-09-06_18h48.35.188,rantool2,2021.1.4,MacIntel,60.0024001,6135e006383e6ea6c3d06a28,61364649bdd662754a105c0f,"[""comma""]",0,[0.35049999999995407],65,0,65,0,1
,,,,,,,612f638e6cac4627121d8d83,,,,,,612f638e6cac4627121d8d83,Kobieta,33,2021-09-06_18h48.35.188,rantool2,2021.1.4,MacIntel,60.0024001,6135e006383e6ea6c3d06a28,61364649bdd662754a105c0f,"[""comma""]",0,[0.2536000000238232],66,0,66,0,1
,,,,,,,612f638e6cac4627121d8d83,,,,,,612f638e6cac4627121d8d83,Kobieta,33,2021-09-06_18h48.35.188,rantool2,2021.1.4,MacIntel,60.0024001,6135e006383e6ea6c3d06a28,61364649bdd662754a105c0f,"[""comma""]",0,[0.2778999999761709],67,0,67,0,1
,,,,,,,612f638e6cac4627121d8d83,,,,,,612f638e6cac4627121d8d83,Kobieta,33,2021-09-06_18h48.35.188,rantool2,2021.1.4,MacIntel,60.0024001,6135e006383e6ea6c3d06a28,61364649bdd662754a105c0f,"[""period""]",0,[0.2823000000119009],68,0,68,0,1
,,,,,,,612f638e6cac4627121d8d83,,,,,,612f638e6cac4627121d8d83,Kobieta,33,2021-09-06_18h48.35.188,rantool2,2021.1.4,MacIntel,60.0024001,6135e006383e6ea6c3d06a28,61364649bdd662754a105c0f,"[""comma""]",0,[0.3125],69,0,69,0,1
,,,,,,,612f638e6cac4627121d8d83,,,,,,612f638e6cac4627121d8d83,Kobieta,33,2021-09-06_18h48.35.188,rantool2,2021.1.4,MacIntel,60.0024001,6135e006383e6ea6c3d06a28,61364649bdd662754a105c0f,"[""comma""]",0,[0.2834000000357264],70,0,70,0,1
,,,,,,,612f638e6cac4627121d8d83,,,,,,612f638e6cac4627121d8d83,Kobieta,33,2021-09-06_18h48.35.188,rantool2,2021.1.4,MacIntel,60.0024001,6135e006383e6ea6c3d06a28,61364649bdd662754a105c0f,"[""period""]",0,[0.3363999999761518],71,0,71,0,1
,,,,,,,612f638e6cac4627121d8d83,,,,,,612f638e6cac4627121d8d83,Kobieta,33,2021-09-06_18h48.35.188,rantool2,2021.1.4,MacIntel,60.0024001,6135e006383e6ea6c3d06a28,61364649bdd662754a105c0f,"[""comma""]",0,[0.3350000000000364],72,0,72,0,1
,,,,,,,612f638e6cac4627121d8d83,,,,,,612f638e6cac4627121d8d83,Kobieta,33,2021-09-06_18h48.35.188,rantool2,2021.1.4,MacIntel,60.0024001,6135e006383e6ea6c3d06a28,61364649bdd662754a105c0f,"[""comma""]",0,[0.2661000000238687],73,0,73,0,1
,,,,,,,612f638e6cac4627121d8d83,,,,,,612f638e6cac4627121d8d83,Kobieta,33,2021-09-06_18h48.35.188,rantool2,2021.1.4,MacIntel,60.0024001,6135e006383e6ea6c3d06a28,61364649bdd662754a105c0f,"[""comma""]",0,[0.15030000001195276],74,0,74,0,1
,,,,,,,612f638e6cac4627121d8d83,,,,,,612f638e6cac4627121d8d83,Kobieta,33,2021-09-06_18h48.35.188,rantool2,2021.1.4,MacIntel,60.0024001,6135e006383e6ea6c3d06a28,61364649bdd662754a105c0f,"[""period""]",0,[0.2834999999999468],75,0,75,0,1
,,,,,,,612f638e6cac4627121d8d83,,,,,,612f638e6cac4627121d8d83,Kobieta,33,2021-09-06_18h48.35.188,rantool2,2021.1.4,MacIntel,60.0024001,6135e006383e6ea6c3d06a28,61364649bdd662754a105c0f,"[""period"",""period""]",0,"[0.1330999999642586,0.9843999999761763]",76,0,76,0,1
,,,,,,,612f638e6cac4627121d8d83,,,,,,612f638e6cac4627121d8d83,Kobieta,33,2021-09-06_18h48.35.188,rantool2,2021.1.4,MacIntel,60.0024001,6135e006383e6ea6c3d06a28,61364649bdd662754a105c0f,"[""period""]",0,[0.33349999999995816],77,0,77,0,1
,,,,,,,612f638e6cac4627121d8d83,,,,,,612f638e6cac4627121d8d83,Kobieta,33,2021-09-06_18h48.35.188,rantool2,2021.1.4,MacIntel,60.0024001,6135e006383e6ea6c3d06a28,61364649bdd662754a105c0f,"[""period""]",0,[0.28369999998813],78,0,78,0,1
,,,,,,,612f638e6cac4627121d8d83,,,,,,612f638e6cac4627121d8d83,Kobieta,33,2021-09-06_18h48.35.188,rantool2,2021.1.4,MacIntel,60.0024001,6135e006383e6ea6c3d06a28,61364649bdd662754a105c0f,"[""period""]",0,[0.14930000001191956],79,0,79,0,1
,,,,,,,612f638e6cac4627121d8d83,,,,,,612f638e6cac4627121d8d83,Kobieta,33,2021-09-06_18h48.35.188,rantool2,2021.1.4,MacIntel,60.0024001,6135e006383e6ea6c3d06a28,61364649bdd662754a105c0f,"[""comma""]",0,[0.250500000000045],80,0,80,0,1
,,,,,,,612f638e6cac4627121d8d83,,,,,,612f638e6cac4627121d8d83,Kobieta,33,2021-09-06_18h48.35.188,rantool2,2021.1.4,MacIntel,60.0024001,6135e006383e6ea6c3d06a28,61364649bdd662754a105c0f,"[""comma""]",0,[0.26090000003574687],81,0,81,0,1
,,,,,,,612f638e6cac4627121d8d83,,,,,,612f638e6cac4627121d8d83,Kobieta,33,2021-09-06_18h48.35.188,rantool2,2021.1.4,MacIntel,60.0024001,6135e006383e6ea6c3d06a28,61364649bdd662754a105c0f,"[""comma""]",0,[0.25009999996427723],82,0,82,0,1
,,,,,,,612f638e6cac4627121d8d83,,,,,,612f638e6cac4627121d8d83,Kobieta,33,2021-09-06_18h48.35.188,rantool2,2021.1.4,MacIntel,60.0024001,6135e006383e6ea6c3d06a28,61364649bdd662754a105c0f,"[""period""]",0,[0.2108000000119432],83,0,83,0,1
,,,,,,,612f638e6cac4627121d8d83,,,,,,612f638e6cac4627121d8d83,Kobieta,33,2021-09-06_18h48.35.188,rantool2,2021.1.4,MacIntel,60.0024001,6135e006383e6ea6c3d06a28,61364649bdd662754a105c0f,"[""comma""]",0,[0.23080000001192502],84,0,84,0,1
,,,,,,,612f638e6cac4627121d8d83,,,,,,612f638e6cac4627121d8d83,Kobieta,33,2021-09-06_18h48.35.188,rantool2,2021.1.4,MacIntel,60.0024001,6135e006383e6ea6c3d06a28,61364649bdd662754a105c0f,"[""comma""]",0,[0.26260000002383777],85,0,85,0,1
,,,,,,,612f638e6cac4627121d8d83,,,,,,612f638e6cac4627121d8d83,Kobieta,33,2021-09-06_18h48.35.188,rantool2,2021.1.4,MacIntel,60.0024001,6135e006383e6ea6c3d06a28,61364649bdd662754a105c0f,"[""period""]",0,[0.15030000001195276],86,0,86,0,1
,,,,,,,612f638e6cac4627121d8d83,,,,,,612f638e6cac4627121d8d83,Kobieta,33,2021-09-06_18h48.35.188,rantool2,2021.1.4,MacIntel,60.0024001,6135e006383e6ea6c3d06a28,61364649bdd662754a105c0f,"[""period""]",0,[0.24980000001193048],87,0,87,0,1
,,,,,,,612f638e6cac4627121d8d83,,,,,,612f638e6cac4627121d8d83,Kobieta,33,2021-09-06_18h48.35.188,rantool2,2021.1.4,MacIntel,60.0024001,6135e006383e6ea6c3d06a28,61364649bdd662754a105c0f,"[""comma""]",0,[0.2008000000119523],88,0,88,0,1
,,,,,,,612f638e6cac4627121d8d83,,,,,,612f638e6cac4627121d8d83,Kobieta,33,2021-09-06_18h48.35.188,rantool2,2021.1.4,MacIntel,60.0024001,6135e006383e6ea6c3d06a28,61364649bdd662754a105c0f,"[""period""]",0,[0.1617000000476878],89,0,89,0,1
,,,,,,,612f638e6cac4627121d8d83,,,,,,612f638e6cac4627121d8d83,Kobieta,33,2021-09-06_18h48.35.188,rantool2,2021.1.4,MacIntel,60.0024001,6135e006383e6ea6c3d06a28,61364649bdd662754a105c0f,"[""comma"",""comma""]",0,"[-0.01710000002384504,0.7338000000119678]",90,0,90,0,1
,,,,,,,612f638e6cac4627121d8d83,,,,,,612f638e6cac4627121d8d83,Kobieta,33,2021-09-06_18h48.35.188,rantool2,2021.1.4,MacIntel,60.0024001,6135e006383e6ea6c3d06a28,61364649bdd662754a105c0f,"[""period""]",0,[0.2838000000119223],91,0,91,0,1
,,,,,,,612f638e6cac4627121d8d83,,,,,,612f638e6cac4627121d8d83,Kobieta,33,2021-09-06_18h48.35.188,rantool2,2021.1.4,MacIntel,60.0024001,6135e006383e6ea6c3d06a28,61364649bdd662754a105c0f,"[""comma""]",0,[0.2510000000000332],92,0,92,0,1
,,,,,,,612f638e6cac4627121d8d83,,,,,,612f638e6cac4627121d8d83,Kobieta,33,2021-09-06_18h48.35.188,rantool2,2021.1.4,MacIntel,60.0024001,6135e006383e6ea6c3d06a28,61364649bdd662754a105c0f,"[""comma""]",0,[0.11760000002385596],93,0,93,0,1
,,,,,,,612f638e6cac4627121d8d83,,,,,,612f638e6cac4627121d8d83,Kobieta,33,2021-09-06_18h48.35.188,rantool2,2021.1.4,MacIntel,60.0024001,6135e006383e6ea6c3d06a28,61364649bdd662754a105c0f,"[""period""]",0,[0.3008000000119182],94,0,94,0,1
,,,,,,,612f638e6cac4627121d8d83,,,,,,612f638e6cac4627121d8d83,Kobieta,33,2021-09-06_18h48.35.188,rantool2,2021.1.4,MacIntel,60.0024001,6135e006383e6ea6c3d06a28,61364649bdd662754a105c0f,"[""period""]",0,[0.06599999999997408],95,0,95,0,1
,,,,,,,612f638e6cac4627121d8d83,,,,,,612f638e6cac4627121d8d83,Kobieta,33,2021-09-06_18h48.35.188,rantool2,2021.1.4,MacIntel,60.0024001,6135e006383e6ea6c3d06a28,61364649bdd662754a105c0f,"[""period""]",0,[0.5661999999881004],96,0,96,0,1
,,,,,,,612f638e6cac4627121d8d83,,,,,,612f638e6cac4627121d8d83,Kobieta,33,2021-09-06_18h48.35.188,rantool2,2021.1.4,MacIntel,60.0024001,6135e006383e6ea6c3d06a28,61364649bdd662754a105c0f,"[""comma""]",0,[0.30349999999998545],97,0,97,0,1
,,,,,,,612f638e6cac4627121d8d83,,,,,,612f638e6cac4627121d8d83,Kobieta,33,2021-09-06_18h48.35.188,rantool2,2021.1.4,MacIntel,60.0024001,6135e006383e6ea6c3d06a28,61364649bdd662754a105c0f,"[""comma""]",0,[0.2701999999881082],98,0,98,0,1
,,,,,,,612f638e6cac4627121d8d83,,,,,,612f638e6cac4627121d8d83,Kobieta,33,2021-09-06_18h48.35.188,rantool2,2021.1.4,MacIntel,60.0024001,6135e006383e6ea6c3d06a28,61364649bdd662754a105c0f,"[""comma""]",0,[0.26729999995234266],99,0,99,0,1
,,,,,,,612f638e6cac4627121d8d83,,,,,,612f638e6cac4627121d8d83,Kobieta,33,2021-09-06_18h48.35.188,rantool2,2021.1.4,MacIntel,60.0024001,6135e006383e6ea6c3d06a28,61364649bdd662754a105c0f,"[""period""]",0,[0.23310000002385323],100,0,100,0,1
,,,,,,,612f638e6cac4627121d8d83,,,,,,612f638e6cac4627121d8d83,Kobieta,33,2021-09-06_18h48.35.188,rantool2,2021.1.4,MacIntel,60.0024001,6135e006383e6ea6c3d06a28,61364649bdd662754a105c0f,"[""period""]",0,[0.31749999999999545],101,0,101,0,1
,,,,,,,612f638e6cac4627121d8d83,,,,,,612f638e6cac4627121d8d83,Kobieta,33,2021-09-06_18h48.35.188,rantool2,2021.1.4,MacIntel,60.0024001,6135e006383e6ea6c3d06a28,61364649bdd662754a105c0f,"[""period"",""comma""]",0,"[0.29599999999999227,1.8003000000118732]",102,0,102,0,1
,,,,,,,612f638e6cac4627121d8d83,,,,,,612f638e6cac4627121d8d83,Kobieta,33,2021-09-06_18h48.35.188,rantool2,2021.1.4,MacIntel,60.0024001,6135e006383e6ea6c3d06a28,61364649bdd662754a105c0f,"[""comma""]",0,[0.6492999999523477],103,0,103,0,1
,,,,,,,612f638e6cac4627121d8d83,,,,,,612f638e6cac4627121d8d83,Kobieta,33,2021-09-06_18h48.35.188,rantool2,2021.1.4,MacIntel,60.0024001,6135e006383e6ea6c3d06a28,61364649bdd662754a105c0f,"[""comma"",""comma""]",0,"[0.299900000035791,1.9499999999999886]",104,0,104,0,1
,,,,,,,612f638e6cac4627121d8d83,,,,,,612f638e6cac4627121d8d83,Kobieta,33,2021-09-06_18h48.35.188,rantool2,2021.1.4,MacIntel,60.0024001,6135e006383e6ea6c3d06a28,61364649bdd662754a105c0f,"[""comma""]",0,[0.46399999999999864],105,0,105,0,1
,,,,,,,612f638e6cac4627121d8d83,,,,,,612f638e6cac4627121d8d83,Kobieta,33,2021-09-06_18h48.35.188,rantool2,2021.1.4,MacIntel,60.0024001,6135e006383e6ea6c3d06a28,61364649bdd662754a105c0f,"[""period""]",0,[0.2464000000357487],106,0,106,0,1
,,,,,,,612f638e6cac4627121d8d83,,,,,,612f638e6cac4627121d8d83,Kobieta,33,2021-09-06_18h48.35.188,rantool2,2021.1.4,MacIntel,60.0024001,6135e006383e6ea6c3d06a28,61364649bdd662754a105c0f,"[""period""]",0,[0.28369999998807316],107,0,107,0,1
,,,,,,,612f638e6cac4627121d8d83,,,,,,612f638e6cac4627121d8d83,Kobieta,33,2021-09-06_18h48.35.188,rantool2,2021.1.4,MacIntel,60.0024001,6135e006383e6ea6c3d06a28,61364649bdd662754a105c0f,"[""comma""]",0,[0.2826000000238764],108,0,108,0,1
,,,,,,,612f638e6cac4627121d8d83,,,,,,612f638e6cac4627121d8d83,Kobieta,33,2021-09-06_18h48.35.188,rantool2,2021.1.4,MacIntel,60.0024001,6135e006383e6ea6c3d06a28,61364649bdd662754a105c0f,"[""comma""]",0,[0.25139999997617224],109,0,109,0,1
,,,,,,,612f638e6cac4627121d8d83,,,,,,612f638e6cac4627121d8d83,Kobieta,33,2021-09-06_18h48.35.188,rantool2,2021.1.4,MacIntel,60.0024001,6135e006383e6ea6c3d06a28,61364649bdd662754a105c0f,"[""period""]",0,[0.24629999995232765],110,0,110,0,1
,,,,,,,612f638e6cac4627121d8d83,,,,,,612f638e6cac4627121d8d83,Kobieta,33,2021-09-06_18h48.35.188,rantool2,2021.1.4,MacIntel,60.0024001,6135e006383e6ea6c3d06a28,61364649bdd662754a105c0f,"[""period""]",0,[0.20019999998805815],111,0,111,0,1
,,,,,,,612f638e6cac4627121d8d83,,,,,,612f638e6cac4627121d8d83,Kobieta,33,2021-09-06_18h48.35.188,rantool2,2021.1.4,MacIntel,60.0024001,6135e006383e6ea6c3d06a28,61364649bdd662754a105c0f,"[""period""]",0,[0.31689999997615814],112,0,112,0,1
,,,,,,,612f638e6cac4627121d8d83,,,,,,612f638e6cac4627121d8d83,Kobieta,33,2021-09-06_18h48.35.188,rantool2,2021.1.4,MacIntel,60.0024001,6135e006383e6ea6c3d06a28,61364649bdd662754a105c0f,"[""comma""]",0,[0.2488999999761745],113,0,113,0,1
,,,,,,,612f638e6cac4627121d8d83,,,,,,612f638e6cac4627121d8d83,Kobieta,33,2021-09-06_18h48.35.188,rantool2,2021.1.4,MacIntel,60.0024001,6135e006383e6ea6c3d06a28,61364649bdd662754a105c0f,"[""comma""]",0,[0.43439999997616496],114,0,114,0,1
,,,,,,,612f638e6cac4627121d8d83,,,,,,612f638e6cac4627121d8d83,Kobieta,33,2021-09-06_18h48.35.188,rantool2,2021.1.4,MacIntel,60.0024001,6135e006383e6ea6c3d06a28,61364649bdd662754a105c0f,"[""period""]",0,[0.3353999999761754],115,0,115,0,1
,,,,,,,612f638e6cac4627121d8d83,,,,,,612f638e6cac4627121d8d83,Kobieta,33,2021-09-06_18h48.35.188,rantool2,2021.1.4,MacIntel,60.0024001,6135e006383e6ea6c3d06a28,61364649bdd662754a105c0f,"[""period""]",0,[0.2353000000119323],116,0,116,0,1
,,,,,,,612f638e6cac4627121d8d83,,,,,,612f638e6cac4627121d8d83,Kobieta,33,2021-09-06_18h48.35.188,rantool2,2021.1.4,MacIntel,60.0024001,6135e006383e6ea6c3d06a28,61364649bdd662754a105c0f,"[""period""]",0,[1.0850000000000364],117,0,117,0,1
,,,,,,,612f638e6cac4627121d8d83,,,,,,612f638e6cac4627121d8d83,Kobieta,33,2021-09-06_18h48.35.188,rantool2,2021.1.4,MacIntel,60.0024001,6135e006383e6ea6c3d06a28,61364649bdd662754a105c0f,"[""comma""]",0,[0.5173000000119146],118,0,118,0,1
,,,,,,,612f638e6cac4627121d8d83,,,,,,612f638e6cac4627121d8d83,Kobieta,33,2021-09-06_18h48.35.188,rantool2,2021.1.4,MacIntel,60.0024001,6135e006383e6ea6c3d06a28,61364649bdd662754a105c0f,"[""comma""]",0,[0.8948000000119123],119,0,119,0,1
