key_resp_5.keys,key_resp_5.corr,key_resp_5.rt,trials.thisRepN,trials.thisTrialN,trials.thisN,trials.thisIndex,trials.ran,id*,Płeć*,Wiek*,date,expName,psychopyVersion,OS,frameRate,id,STUDY_ID,SESSION_ID,key_resp_7.keys,key_resp_7.rt,trials_2.thisRepN,trials_2.thisTrialN,trials_2.thisN,trials_2.thisIndex,trials_2.ran,series_0,series_1,acss_0,acss_1,comparison
0,,,0,0,0,0,1,605b98c83da1ded576bcf096,Kobieta,18,2021-07-13_21h35.37.816,rantool2,2021.1.4,Win32,59.88023952,605b98c83da1ded576bcf096,60d9d14f4a8a35a482e0d9bf,60edea793638800b1b47b233,,,,,,,,,,,,
"[""comma""]",0,[0.4410000000000025],1,0,1,0,1,605b98c83da1ded576bcf096,Kobieta,18,2021-07-13_21h35.37.816,rantool2,2021.1.4,Win32,59.88023952,605b98c83da1ded576bcf096,60d9d14f4a8a35a482e0d9bf,60edea793638800b1b47b233,,,,,,,,,,,,
"[""comma""]",0,[0.6189999999999998],2,0,2,0,1,605b98c83da1ded576bcf096,Kobieta,18,2021-07-13_21h35.37.816,rantool2,2021.1.4,Win32,59.88023952,605b98c83da1ded576bcf096,60d9d14f4a8a35a482e0d9bf,60edea793638800b1b47b233,,,,,,,,,,,,
"[""period""]",0,[0.6239999999999952],3,0,3,0,1,605b98c83da1ded576bcf096,Kobieta,18,2021-07-13_21h35.37.816,rantool2,2021.1.4,Win32,59.88023952,605b98c83da1ded576bcf096,60d9d14f4a8a35a482e0d9bf,60edea793638800b1b47b233,,,,,,,,,,,,
"[""comma""]",0,[0.5900000000000034],4,0,4,0,1,605b98c83da1ded576bcf096,Kobieta,18,2021-07-13_21h35.37.816,rantool2,2021.1.4,Win32,59.88023952,605b98c83da1ded576bcf096,60d9d14f4a8a35a482e0d9bf,60edea793638800b1b47b233,,,,,,,,,,,,
"[""period""]",0,[0.5430000000000064],5,0,5,0,1,605b98c83da1ded576bcf096,Kobieta,18,2021-07-13_21h35.37.816,rantool2,2021.1.4,Win32,59.88023952,605b98c83da1ded576bcf096,60d9d14f4a8a35a482e0d9bf,60edea793638800b1b47b233,,,,,,,,,,,,
"[""comma""]",0,[0.2879999999999967],6,0,6,0,1,605b98c83da1ded576bcf096,Kobieta,18,2021-07-13_21h35.37.816,rantool2,2021.1.4,Win32,59.88023952,605b98c83da1ded576bcf096,60d9d14f4a8a35a482e0d9bf,60edea793638800b1b47b233,,,,,,,,,,,,
"[""period""]",0,[0.27599999999999625],7,0,7,0,1,605b98c83da1ded576bcf096,Kobieta,18,2021-07-13_21h35.37.816,rantool2,2021.1.4,Win32,59.88023952,605b98c83da1ded576bcf096,60d9d14f4a8a35a482e0d9bf,60edea793638800b1b47b233,,,,,,,,,,,,
"[""period""]",0,[0.29300000000000637],8,0,8,0,1,605b98c83da1ded576bcf096,Kobieta,18,2021-07-13_21h35.37.816,rantool2,2021.1.4,Win32,59.88023952,605b98c83da1ded576bcf096,60d9d14f4a8a35a482e0d9bf,60edea793638800b1b47b233,,,,,,,,,,,,
"[""period""]",0,[0.27599999999999625],9,0,9,0,1,605b98c83da1ded576bcf096,Kobieta,18,2021-07-13_21h35.37.816,rantool2,2021.1.4,Win32,59.88023952,605b98c83da1ded576bcf096,60d9d14f4a8a35a482e0d9bf,60edea793638800b1b47b233,,,,,,,,,,,,
"[""comma""]",0,[0.29400000000001114],10,0,10,0,1,605b98c83da1ded576bcf096,Kobieta,18,2021-07-13_21h35.37.816,rantool2,2021.1.4,Win32,59.88023952,605b98c83da1ded576bcf096,60d9d14f4a8a35a482e0d9bf,60edea793638800b1b47b233,,,,,,,,,,,,
"[""period""]",0,[0.3130000000000024],11,0,11,0,1,605b98c83da1ded576bcf096,Kobieta,18,2021-07-13_21h35.37.816,rantool2,2021.1.4,Win32,59.88023952,605b98c83da1ded576bcf096,60d9d14f4a8a35a482e0d9bf,60edea793638800b1b47b233,,,,,,,,,,,,
"[""comma""]",0,[0.4380000000000024],12,0,12,0,1,605b98c83da1ded576bcf096,Kobieta,18,2021-07-13_21h35.37.816,rantool2,2021.1.4,Win32,59.88023952,605b98c83da1ded576bcf096,60d9d14f4a8a35a482e0d9bf,60edea793638800b1b47b233,,,,,,,,,,,,
"[""period""]",0,[0.31799999999999784],13,0,13,0,1,605b98c83da1ded576bcf096,Kobieta,18,2021-07-13_21h35.37.816,rantool2,2021.1.4,Win32,59.88023952,605b98c83da1ded576bcf096,60d9d14f4a8a35a482e0d9bf,60edea793638800b1b47b233,,,,,,,,,,,,
"[""comma""]",0,[0.367999999999995],14,0,14,0,1,605b98c83da1ded576bcf096,Kobieta,18,2021-07-13_21h35.37.816,rantool2,2021.1.4,Win32,59.88023952,605b98c83da1ded576bcf096,60d9d14f4a8a35a482e0d9bf,60edea793638800b1b47b233,,,,,,,,,,,,
"[""period""]",0,[0.28600000000000136],15,0,15,0,1,605b98c83da1ded576bcf096,Kobieta,18,2021-07-13_21h35.37.816,rantool2,2021.1.4,Win32,59.88023952,605b98c83da1ded576bcf096,60d9d14f4a8a35a482e0d9bf,60edea793638800b1b47b233,,,,,,,,,,,,
0,0,,16,0,16,0,1,605b98c83da1ded576bcf096,Kobieta,18,2021-07-13_21h35.37.816,rantool2,2021.1.4,Win32,59.88023952,605b98c83da1ded576bcf096,60d9d14f4a8a35a482e0d9bf,60edea793638800b1b47b233,,,,,,,,,,,,
0,0,,17,0,17,0,1,605b98c83da1ded576bcf096,Kobieta,18,2021-07-13_21h35.37.816,rantool2,2021.1.4,Win32,59.88023952,605b98c83da1ded576bcf096,60d9d14f4a8a35a482e0d9bf,60edea793638800b1b47b233,,,,,,,,,,,,
"[""comma""]",0,[0.5690000000000168],18,0,18,0,1,605b98c83da1ded576bcf096,Kobieta,18,2021-07-13_21h35.37.816,rantool2,2021.1.4,Win32,59.88023952,605b98c83da1ded576bcf096,60d9d14f4a8a35a482e0d9bf,60edea793638800b1b47b233,,,,,,,,,,,,
"[""period""]",0,[0.29699999999999704],19,0,19,0,1,605b98c83da1ded576bcf096,Kobieta,18,2021-07-13_21h35.37.816,rantool2,2021.1.4,Win32,59.88023952,605b98c83da1ded576bcf096,60d9d14f4a8a35a482e0d9bf,60edea793638800b1b47b233,,,,,,,,,,,,
"[""comma""]",0,[0.3100000000000023],20,0,20,0,1,605b98c83da1ded576bcf096,Kobieta,18,2021-07-13_21h35.37.816,rantool2,2021.1.4,Win32,59.88023952,605b98c83da1ded576bcf096,60d9d14f4a8a35a482e0d9bf,60edea793638800b1b47b233,,,,,,,,,,,,
"[""period""]",0,[0.6350000000000193],21,0,21,0,1,605b98c83da1ded576bcf096,Kobieta,18,2021-07-13_21h35.37.816,rantool2,2021.1.4,Win32,59.88023952,605b98c83da1ded576bcf096,60d9d14f4a8a35a482e0d9bf,60edea793638800b1b47b233,,,,,,,,,,,,
"[""comma""]",0,[0.7439999999999998],22,0,22,0,1,605b98c83da1ded576bcf096,Kobieta,18,2021-07-13_21h35.37.816,rantool2,2021.1.4,Win32,59.88023952,605b98c83da1ded576bcf096,60d9d14f4a8a35a482e0d9bf,60edea793638800b1b47b233,,,,,,,,,,,,
"[""period""]",0,[0.33500000000000796],23,0,23,0,1,605b98c83da1ded576bcf096,Kobieta,18,2021-07-13_21h35.37.816,rantool2,2021.1.4,Win32,59.88023952,605b98c83da1ded576bcf096,60d9d14f4a8a35a482e0d9bf,60edea793638800b1b47b233,,,,,,,,,,,,
"[""comma""]",0,[0.3219999999999743],24,0,24,0,1,605b98c83da1ded576bcf096,Kobieta,18,2021-07-13_21h35.37.816,rantool2,2021.1.4,Win32,59.88023952,605b98c83da1ded576bcf096,60d9d14f4a8a35a482e0d9bf,60edea793638800b1b47b233,,,,,,,,,,,,
"[""period""]",0,[0.492999999999995],25,0,25,0,1,605b98c83da1ded576bcf096,Kobieta,18,2021-07-13_21h35.37.816,rantool2,2021.1.4,Win32,59.88023952,605b98c83da1ded576bcf096,60d9d14f4a8a35a482e0d9bf,60edea793638800b1b47b233,,,,,,,,,,,,
"[""comma""]",0,[0.3959999999999866],26,0,26,0,1,605b98c83da1ded576bcf096,Kobieta,18,2021-07-13_21h35.37.816,rantool2,2021.1.4,Win32,59.88023952,605b98c83da1ded576bcf096,60d9d14f4a8a35a482e0d9bf,60edea793638800b1b47b233,,,,,,,,,,,,
0,0,,27,0,27,0,1,605b98c83da1ded576bcf096,Kobieta,18,2021-07-13_21h35.37.816,rantool2,2021.1.4,Win32,59.88023952,605b98c83da1ded576bcf096,60d9d14f4a8a35a482e0d9bf,60edea793638800b1b47b233,,,,,,,,,,,,
0,0,,28,0,28,0,1,605b98c83da1ded576bcf096,Kobieta,18,2021-07-13_21h35.37.816,rantool2,2021.1.4,Win32,59.88023952,605b98c83da1ded576bcf096,60d9d14f4a8a35a482e0d9bf,60edea793638800b1b47b233,,,,,,,,,,,,
0,0,,29,0,29,0,1,605b98c83da1ded576bcf096,Kobieta,18,2021-07-13_21h35.37.816,rantool2,2021.1.4,Win32,59.88023952,605b98c83da1ded576bcf096,60d9d14f4a8a35a482e0d9bf,60edea793638800b1b47b233,,,,,,,,,,,,
"[""comma""]",0,[0.6410000000000196],30,0,30,0,1,605b98c83da1ded576bcf096,Kobieta,18,2021-07-13_21h35.37.816,rantool2,2021.1.4,Win32,59.88023952,605b98c83da1ded576bcf096,60d9d14f4a8a35a482e0d9bf,60edea793638800b1b47b233,,,,,,,,,,,,
"[""period""]",0,[1.0919999999999845],31,0,31,0,1,605b98c83da1ded576bcf096,Kobieta,18,2021-07-13_21h35.37.816,rantool2,2021.1.4,Win32,59.88023952,605b98c83da1ded576bcf096,60d9d14f4a8a35a482e0d9bf,60edea793638800b1b47b233,,,,,,,,,,,,
"[""comma""]",0,[0.2849999999999966],32,0,32,0,1,605b98c83da1ded576bcf096,Kobieta,18,2021-07-13_21h35.37.816,rantool2,2021.1.4,Win32,59.88023952,605b98c83da1ded576bcf096,60d9d14f4a8a35a482e0d9bf,60edea793638800b1b47b233,,,,,,,,,,,,
"[""period""]",0,[0.3050000000000068],33,0,33,0,1,605b98c83da1ded576bcf096,Kobieta,18,2021-07-13_21h35.37.816,rantool2,2021.1.4,Win32,59.88023952,605b98c83da1ded576bcf096,60d9d14f4a8a35a482e0d9bf,60edea793638800b1b47b233,,,,,,,,,,,,
"[""comma""]",0,[0.3059999999999832],34,0,34,0,1,605b98c83da1ded576bcf096,Kobieta,18,2021-07-13_21h35.37.816,rantool2,2021.1.4,Win32,59.88023952,605b98c83da1ded576bcf096,60d9d14f4a8a35a482e0d9bf,60edea793638800b1b47b233,,,,,,,,,,,,
"[""period""]",0,[0.35200000000000387],35,0,35,0,1,605b98c83da1ded576bcf096,Kobieta,18,2021-07-13_21h35.37.816,rantool2,2021.1.4,Win32,59.88023952,605b98c83da1ded576bcf096,60d9d14f4a8a35a482e0d9bf,60edea793638800b1b47b233,,,,,,,,,,,,
"[""comma""]",0,[0.4939999999999998],36,0,36,0,1,605b98c83da1ded576bcf096,Kobieta,18,2021-07-13_21h35.37.816,rantool2,2021.1.4,Win32,59.88023952,605b98c83da1ded576bcf096,60d9d14f4a8a35a482e0d9bf,60edea793638800b1b47b233,,,,,,,,,,,,
"[""period""]",0,[0.34600000000000364],37,0,37,0,1,605b98c83da1ded576bcf096,Kobieta,18,2021-07-13_21h35.37.816,rantool2,2021.1.4,Win32,59.88023952,605b98c83da1ded576bcf096,60d9d14f4a8a35a482e0d9bf,60edea793638800b1b47b233,,,,,,,,,,,,
"[""comma""]",0,[0.3190000000000168],38,0,38,0,1,605b98c83da1ded576bcf096,Kobieta,18,2021-07-13_21h35.37.816,rantool2,2021.1.4,Win32,59.88023952,605b98c83da1ded576bcf096,60d9d14f4a8a35a482e0d9bf,60edea793638800b1b47b233,,,,,,,,,,,,
"[""period""]",0,[0.3859999999999957],39,0,39,0,1,605b98c83da1ded576bcf096,Kobieta,18,2021-07-13_21h35.37.816,rantool2,2021.1.4,Win32,59.88023952,605b98c83da1ded576bcf096,60d9d14f4a8a35a482e0d9bf,60edea793638800b1b47b233,,,,,,,,,,,,
"[""comma""]",0,[0.2750000000000057],40,0,40,0,1,605b98c83da1ded576bcf096,Kobieta,18,2021-07-13_21h35.37.816,rantool2,2021.1.4,Win32,59.88023952,605b98c83da1ded576bcf096,60d9d14f4a8a35a482e0d9bf,60edea793638800b1b47b233,,,,,,,,,,,,
"[""period""]",0,[0.2680000000000007],41,0,41,0,1,605b98c83da1ded576bcf096,Kobieta,18,2021-07-13_21h35.37.816,rantool2,2021.1.4,Win32,59.88023952,605b98c83da1ded576bcf096,60d9d14f4a8a35a482e0d9bf,60edea793638800b1b47b233,,,,,,,,,,,,
"[""comma""]",0,[0.24099999999998545],42,0,42,0,1,605b98c83da1ded576bcf096,Kobieta,18,2021-07-13_21h35.37.816,rantool2,2021.1.4,Win32,59.88023952,605b98c83da1ded576bcf096,60d9d14f4a8a35a482e0d9bf,60edea793638800b1b47b233,,,,,,,,,,,,
"[""period""]",0,[0.25199999999998113],43,0,43,0,1,605b98c83da1ded576bcf096,Kobieta,18,2021-07-13_21h35.37.816,rantool2,2021.1.4,Win32,59.88023952,605b98c83da1ded576bcf096,60d9d14f4a8a35a482e0d9bf,60edea793638800b1b47b233,,,,,,,,,,,,
"[""comma""]",0,[0.2470000000000141],44,0,44,0,1,605b98c83da1ded576bcf096,Kobieta,18,2021-07-13_21h35.37.816,rantool2,2021.1.4,Win32,59.88023952,605b98c83da1ded576bcf096,60d9d14f4a8a35a482e0d9bf,60edea793638800b1b47b233,,,,,,,,,,,,
"[""comma""]",0,[0.2459999999999809],45,0,45,0,1,605b98c83da1ded576bcf096,Kobieta,18,2021-07-13_21h35.37.816,rantool2,2021.1.4,Win32,59.88023952,605b98c83da1ded576bcf096,60d9d14f4a8a35a482e0d9bf,60edea793638800b1b47b233,,,,,,,,,,,,
"[""period""]",0,[0.2639999999999816],46,0,46,0,1,605b98c83da1ded576bcf096,Kobieta,18,2021-07-13_21h35.37.816,rantool2,2021.1.4,Win32,59.88023952,605b98c83da1ded576bcf096,60d9d14f4a8a35a482e0d9bf,60edea793638800b1b47b233,,,,,,,,,,,,
"[""comma""]",0,[0.22499999999999432],47,0,47,0,1,605b98c83da1ded576bcf096,Kobieta,18,2021-07-13_21h35.37.816,rantool2,2021.1.4,Win32,59.88023952,605b98c83da1ded576bcf096,60d9d14f4a8a35a482e0d9bf,60edea793638800b1b47b233,,,,,,,,,,,,
"[""period"",""comma""]",0,"[0.26499999999998636,1.9209999999999923]",48,0,48,0,1,605b98c83da1ded576bcf096,Kobieta,18,2021-07-13_21h35.37.816,rantool2,2021.1.4,Win32,59.88023952,605b98c83da1ded576bcf096,60d9d14f4a8a35a482e0d9bf,60edea793638800b1b47b233,,,,,,,,,,,,
"[""comma""]",0,[0.1279999999999859],49,0,49,0,1,605b98c83da1ded576bcf096,Kobieta,18,2021-07-13_21h35.37.816,rantool2,2021.1.4,Win32,59.88023952,605b98c83da1ded576bcf096,60d9d14f4a8a35a482e0d9bf,60edea793638800b1b47b233,,,,,,,,,,,,
"[""period""]",0,[0.26600000000001955],50,0,50,0,1,605b98c83da1ded576bcf096,Kobieta,18,2021-07-13_21h35.37.816,rantool2,2021.1.4,Win32,59.88023952,605b98c83da1ded576bcf096,60d9d14f4a8a35a482e0d9bf,60edea793638800b1b47b233,,,,,,,,,,,,
"[""comma""]",0,[0.48799999999999955],51,0,51,0,1,605b98c83da1ded576bcf096,Kobieta,18,2021-07-13_21h35.37.816,rantool2,2021.1.4,Win32,59.88023952,605b98c83da1ded576bcf096,60d9d14f4a8a35a482e0d9bf,60edea793638800b1b47b233,,,,,,,,,,,,
"[""period""]",0,[0.41900000000001114],52,0,52,0,1,605b98c83da1ded576bcf096,Kobieta,18,2021-07-13_21h35.37.816,rantool2,2021.1.4,Win32,59.88023952,605b98c83da1ded576bcf096,60d9d14f4a8a35a482e0d9bf,60edea793638800b1b47b233,,,,,,,,,,,,
"[""comma""]",0,[0.42600000000001614],53,0,53,0,1,605b98c83da1ded576bcf096,Kobieta,18,2021-07-13_21h35.37.816,rantool2,2021.1.4,Win32,59.88023952,605b98c83da1ded576bcf096,60d9d14f4a8a35a482e0d9bf,60edea793638800b1b47b233,,,,,,,,,,,,
"[""period""]",0,[0.3229999999999791],54,0,54,0,1,605b98c83da1ded576bcf096,Kobieta,18,2021-07-13_21h35.37.816,rantool2,2021.1.4,Win32,59.88023952,605b98c83da1ded576bcf096,60d9d14f4a8a35a482e0d9bf,60edea793638800b1b47b233,,,,,,,,,,,,
"[""comma""]",0,[0.3060000000000116],55,0,55,0,1,605b98c83da1ded576bcf096,Kobieta,18,2021-07-13_21h35.37.816,rantool2,2021.1.4,Win32,59.88023952,605b98c83da1ded576bcf096,60d9d14f4a8a35a482e0d9bf,60edea793638800b1b47b233,,,,,,,,,,,,
"[""period""]",0,[0.36299999999999955],56,0,56,0,1,605b98c83da1ded576bcf096,Kobieta,18,2021-07-13_21h35.37.816,rantool2,2021.1.4,Win32,59.88023952,605b98c83da1ded576bcf096,60d9d14f4a8a35a482e0d9bf,60edea793638800b1b47b233,,,,,,,,,,,,
"[""comma""]",0,[0.539999999999992],57,0,57,0,1,605b98c83da1ded576bcf096,Kobieta,18,2021-07-13_21h35.37.816,rantool2,2021.1.4,Win32,59.88023952,605b98c83da1ded576bcf096,60d9d14f4a8a35a482e0d9bf,60edea793638800b1b47b233,,,,,,,,,,,,
"[""period""]",0,[0.37000000000000455],58,0,58,0,1,605b98c83da1ded576bcf096,Kobieta,18,2021-07-13_21h35.37.816,rantool2,2021.1.4,Win32,59.88023952,605b98c83da1ded576bcf096,60d9d14f4a8a35a482e0d9bf,60edea793638800b1b47b233,,,,,,,,,,,,
"[""period""]",0,[0.4369999999999834],59,0,59,0,1,605b98c83da1ded576bcf096,Kobieta,18,2021-07-13_21h35.37.816,rantool2,2021.1.4,Win32,59.88023952,605b98c83da1ded576bcf096,60d9d14f4a8a35a482e0d9bf,60edea793638800b1b47b233,,,,,,,,,,,,
"[""comma"",""comma"",""comma""]",0,"[0.39200000000002433,0.5970000000000084,0.7800000000000011]",60,0,60,0,1,605b98c83da1ded576bcf096,Kobieta,18,2021-07-13_21h35.37.816,rantool2,2021.1.4,Win32,59.88023952,605b98c83da1ded576bcf096,60d9d14f4a8a35a482e0d9bf,60edea793638800b1b47b233,,,,,,,,,,,,
"[""period""]",0,[0.3240000000000123],61,0,61,0,1,605b98c83da1ded576bcf096,Kobieta,18,2021-07-13_21h35.37.816,rantool2,2021.1.4,Win32,59.88023952,605b98c83da1ded576bcf096,60d9d14f4a8a35a482e0d9bf,60edea793638800b1b47b233,,,,,,,,,,,,
"[""period""]",0,[0.5979999999999848],62,0,62,0,1,605b98c83da1ded576bcf096,Kobieta,18,2021-07-13_21h35.37.816,rantool2,2021.1.4,Win32,59.88023952,605b98c83da1ded576bcf096,60d9d14f4a8a35a482e0d9bf,60edea793638800b1b47b233,,,,,,,,,,,,
"[""period"",""comma""]",0,"[0.5130000000000052,0.5700000000000216]",63,0,63,0,1,605b98c83da1ded576bcf096,Kobieta,18,2021-07-13_21h35.37.816,rantool2,2021.1.4,Win32,59.88023952,605b98c83da1ded576bcf096,60d9d14f4a8a35a482e0d9bf,60edea793638800b1b47b233,,,,,,,,,,,,
"[""period""]",0,[0.5409999999999968],64,0,64,0,1,605b98c83da1ded576bcf096,Kobieta,18,2021-07-13_21h35.37.816,rantool2,2021.1.4,Win32,59.88023952,605b98c83da1ded576bcf096,60d9d14f4a8a35a482e0d9bf,60edea793638800b1b47b233,,,,,,,,,,,,
"[""comma""]",0,[0.7409999999999854],65,0,65,0,1,605b98c83da1ded576bcf096,Kobieta,18,2021-07-13_21h35.37.816,rantool2,2021.1.4,Win32,59.88023952,605b98c83da1ded576bcf096,60d9d14f4a8a35a482e0d9bf,60edea793638800b1b47b233,,,,,,,,,,,,
"[""period""]",0,[0.3709999999999809],66,0,66,0,1,605b98c83da1ded576bcf096,Kobieta,18,2021-07-13_21h35.37.816,rantool2,2021.1.4,Win32,59.88023952,605b98c83da1ded576bcf096,60d9d14f4a8a35a482e0d9bf,60edea793638800b1b47b233,,,,,,,,,,,,
"[""comma""]",0,[0.34799999999998477],67,0,67,0,1,605b98c83da1ded576bcf096,Kobieta,18,2021-07-13_21h35.37.816,rantool2,2021.1.4,Win32,59.88023952,605b98c83da1ded576bcf096,60d9d14f4a8a35a482e0d9bf,60edea793638800b1b47b233,,,,,,,,,,,,
"[""period""]",0,[0.48599999999999],68,0,68,0,1,605b98c83da1ded576bcf096,Kobieta,18,2021-07-13_21h35.37.816,rantool2,2021.1.4,Win32,59.88023952,605b98c83da1ded576bcf096,60d9d14f4a8a35a482e0d9bf,60edea793638800b1b47b233,,,,,,,,,,,,
"[""comma""]",0,[0.3310000000000173],69,0,69,0,1,605b98c83da1ded576bcf096,Kobieta,18,2021-07-13_21h35.37.816,rantool2,2021.1.4,Win32,59.88023952,605b98c83da1ded576bcf096,60d9d14f4a8a35a482e0d9bf,60edea793638800b1b47b233,,,,,,,,,,,,
"[""period""]",0,[0.34799999999998477],70,0,70,0,1,605b98c83da1ded576bcf096,Kobieta,18,2021-07-13_21h35.37.816,rantool2,2021.1.4,Win32,59.88023952,605b98c83da1ded576bcf096,60d9d14f4a8a35a482e0d9bf,60edea793638800b1b47b233,,,,,,,,,,,,
"[""comma""]",0,[0.32499999999998863],71,0,71,0,1,605b98c83da1ded576bcf096,Kobieta,18,2021-07-13_21h35.37.816,rantool2,2021.1.4,Win32,59.88023952,605b98c83da1ded576bcf096,60d9d14f4a8a35a482e0d9bf,60edea793638800b1b47b233,,,,,,,,,,,,
"[""period""]",0,[0.4060000000000059],72,0,72,0,1,605b98c83da1ded576bcf096,Kobieta,18,2021-07-13_21h35.37.816,rantool2,2021.1.4,Win32,59.88023952,605b98c83da1ded576bcf096,60d9d14f4a8a35a482e0d9bf,60edea793638800b1b47b233,,,,,,,,,,,,
"[""comma""]",0,[0.31399999999999295],73,0,73,0,1,605b98c83da1ded576bcf096,Kobieta,18,2021-07-13_21h35.37.816,rantool2,2021.1.4,Win32,59.88023952,605b98c83da1ded576bcf096,60d9d14f4a8a35a482e0d9bf,60edea793638800b1b47b233,,,,,,,,,,,,
"[""period""]",0,[0.30299999999999727],74,0,74,0,1,605b98c83da1ded576bcf096,Kobieta,18,2021-07-13_21h35.37.816,rantool2,2021.1.4,Win32,59.88023952,605b98c83da1ded576bcf096,60d9d14f4a8a35a482e0d9bf,60edea793638800b1b47b233,,,,,,,,,,,,
"[""comma""]",0,[0.40200000000001523],75,0,75,0,1,605b98c83da1ded576bcf096,Kobieta,18,2021-07-13_21h35.37.816,rantool2,2021.1.4,Win32,59.88023952,605b98c83da1ded576bcf096,60d9d14f4a8a35a482e0d9bf,60edea793638800b1b47b233,,,,,,,,,,,,
"[""period""]",0,[0.41100000000000136],76,0,76,0,1,605b98c83da1ded576bcf096,Kobieta,18,2021-07-13_21h35.37.816,rantool2,2021.1.4,Win32,59.88023952,605b98c83da1ded576bcf096,60d9d14f4a8a35a482e0d9bf,60edea793638800b1b47b233,,,,,,,,,,,,
"[""comma""]",0,[0.8790000000000191],77,0,77,0,1,605b98c83da1ded576bcf096,Kobieta,18,2021-07-13_21h35.37.816,rantool2,2021.1.4,Win32,59.88023952,605b98c83da1ded576bcf096,60d9d14f4a8a35a482e0d9bf,60edea793638800b1b47b233,,,,,,,,,,,,
"[""period""]",0,[0.5200000000000102],78,0,78,0,1,605b98c83da1ded576bcf096,Kobieta,18,2021-07-13_21h35.37.816,rantool2,2021.1.4,Win32,59.88023952,605b98c83da1ded576bcf096,60d9d14f4a8a35a482e0d9bf,60edea793638800b1b47b233,,,,,,,,,,,,
"[""comma""]",0,[0.39400000000000546],79,0,79,0,1,605b98c83da1ded576bcf096,Kobieta,18,2021-07-13_21h35.37.816,rantool2,2021.1.4,Win32,59.88023952,605b98c83da1ded576bcf096,60d9d14f4a8a35a482e0d9bf,60edea793638800b1b47b233,,,,,,,,,,,,
"[""period""]",0,[0.40200000000001523],80,0,80,0,1,605b98c83da1ded576bcf096,Kobieta,18,2021-07-13_21h35.37.816,rantool2,2021.1.4,Win32,59.88023952,605b98c83da1ded576bcf096,60d9d14f4a8a35a482e0d9bf,60edea793638800b1b47b233,,,,,,,,,,,,
"[""period""]",0,[0.4000000000000341],81,0,81,0,1,605b98c83da1ded576bcf096,Kobieta,18,2021-07-13_21h35.37.816,rantool2,2021.1.4,Win32,59.88023952,605b98c83da1ded576bcf096,60d9d14f4a8a35a482e0d9bf,60edea793638800b1b47b233,,,,,,,,,,,,
"[""comma""]",0,[1.579999999999984],82,0,82,0,1,605b98c83da1ded576bcf096,Kobieta,18,2021-07-13_21h35.37.816,rantool2,2021.1.4,Win32,59.88023952,605b98c83da1ded576bcf096,60d9d14f4a8a35a482e0d9bf,60edea793638800b1b47b233,,,,,,,,,,,,
"[""comma""]",0,[0.3480000000000132],83,0,83,0,1,605b98c83da1ded576bcf096,Kobieta,18,2021-07-13_21h35.37.816,rantool2,2021.1.4,Win32,59.88023952,605b98c83da1ded576bcf096,60d9d14f4a8a35a482e0d9bf,60edea793638800b1b47b233,,,,,,,,,,,,
"[""period""]",0,[0.48500000000001364],84,0,84,0,1,605b98c83da1ded576bcf096,Kobieta,18,2021-07-13_21h35.37.816,rantool2,2021.1.4,Win32,59.88023952,605b98c83da1ded576bcf096,60d9d14f4a8a35a482e0d9bf,60edea793638800b1b47b233,,,,,,,,,,,,
"[""comma""]",0,[0.7019999999999982],85,0,85,0,1,605b98c83da1ded576bcf096,Kobieta,18,2021-07-13_21h35.37.816,rantool2,2021.1.4,Win32,59.88023952,605b98c83da1ded576bcf096,60d9d14f4a8a35a482e0d9bf,60edea793638800b1b47b233,,,,,,,,,,,,
"[""comma""]",0,[0.3529999999999518],86,0,86,0,1,605b98c83da1ded576bcf096,Kobieta,18,2021-07-13_21h35.37.816,rantool2,2021.1.4,Win32,59.88023952,605b98c83da1ded576bcf096,60d9d14f4a8a35a482e0d9bf,60edea793638800b1b47b233,,,,,,,,,,,,
"[""period""]",0,[0.36000000000001364],87,0,87,0,1,605b98c83da1ded576bcf096,Kobieta,18,2021-07-13_21h35.37.816,rantool2,2021.1.4,Win32,59.88023952,605b98c83da1ded576bcf096,60d9d14f4a8a35a482e0d9bf,60edea793638800b1b47b233,,,,,,,,,,,,
"[""comma""]",0,[0.367999999999995],88,0,88,0,1,605b98c83da1ded576bcf096,Kobieta,18,2021-07-13_21h35.37.816,rantool2,2021.1.4,Win32,59.88023952,605b98c83da1ded576bcf096,60d9d14f4a8a35a482e0d9bf,60edea793638800b1b47b233,,,,,,,,,,,,
"[""comma""]",0,[0.5079999999999814],89,0,89,0,1,605b98c83da1ded576bcf096,Kobieta,18,2021-07-13_21h35.37.816,rantool2,2021.1.4,Win32,59.88023952,605b98c83da1ded576bcf096,60d9d14f4a8a35a482e0d9bf,60edea793638800b1b47b233,,,,,,,,,,,,
"[""comma""]",0,[0.36100000000004684],90,0,90,0,1,605b98c83da1ded576bcf096,Kobieta,18,2021-07-13_21h35.37.816,rantool2,2021.1.4,Win32,59.88023952,605b98c83da1ded576bcf096,60d9d14f4a8a35a482e0d9bf,60edea793638800b1b47b233,,,,,,,,,,,,
"[""period""]",0,[0.33199999999999363],91,0,91,0,1,605b98c83da1ded576bcf096,Kobieta,18,2021-07-13_21h35.37.816,rantool2,2021.1.4,Win32,59.88023952,605b98c83da1ded576bcf096,60d9d14f4a8a35a482e0d9bf,60edea793638800b1b47b233,,,,,,,,,,,,
"[""comma""]",0,[0.3100000000000023],92,0,92,0,1,605b98c83da1ded576bcf096,Kobieta,18,2021-07-13_21h35.37.816,rantool2,2021.1.4,Win32,59.88023952,605b98c83da1ded576bcf096,60d9d14f4a8a35a482e0d9bf,60edea793638800b1b47b233,,,,,,,,,,,,
"[""period""]",0,[0.3720000000000141],93,0,93,0,1,605b98c83da1ded576bcf096,Kobieta,18,2021-07-13_21h35.37.816,rantool2,2021.1.4,Win32,59.88023952,605b98c83da1ded576bcf096,60d9d14f4a8a35a482e0d9bf,60edea793638800b1b47b233,,,,,,,,,,,,
"[""period""]",0,[0.29199999999997317],94,0,94,0,1,605b98c83da1ded576bcf096,Kobieta,18,2021-07-13_21h35.37.816,rantool2,2021.1.4,Win32,59.88023952,605b98c83da1ded576bcf096,60d9d14f4a8a35a482e0d9bf,60edea793638800b1b47b233,,,,,,,,,,,,
"[""comma""]",0,[0.3020000000000209],95,0,95,0,1,605b98c83da1ded576bcf096,Kobieta,18,2021-07-13_21h35.37.816,rantool2,2021.1.4,Win32,59.88023952,605b98c83da1ded576bcf096,60d9d14f4a8a35a482e0d9bf,60edea793638800b1b47b233,,,,,,,,,,,,
"[""period""]",0,[0.2810000000000059],96,0,96,0,1,605b98c83da1ded576bcf096,Kobieta,18,2021-07-13_21h35.37.816,rantool2,2021.1.4,Win32,59.88023952,605b98c83da1ded576bcf096,60d9d14f4a8a35a482e0d9bf,60edea793638800b1b47b233,,,,,,,,,,,,
"[""comma""]",0,[0.29199999999997317],97,0,97,0,1,605b98c83da1ded576bcf096,Kobieta,18,2021-07-13_21h35.37.816,rantool2,2021.1.4,Win32,59.88023952,605b98c83da1ded576bcf096,60d9d14f4a8a35a482e0d9bf,60edea793638800b1b47b233,,,,,,,,,,,,
"[""period""]",0,[0.2810000000000059],98,0,98,0,1,605b98c83da1ded576bcf096,Kobieta,18,2021-07-13_21h35.37.816,rantool2,2021.1.4,Win32,59.88023952,605b98c83da1ded576bcf096,60d9d14f4a8a35a482e0d9bf,60edea793638800b1b47b233,,,,,,,,,,,,
"[""comma""]",0,[0.28600000000000136],99,0,99,0,1,605b98c83da1ded576bcf096,Kobieta,18,2021-07-13_21h35.37.816,rantool2,2021.1.4,Win32,59.88023952,605b98c83da1ded576bcf096,60d9d14f4a8a35a482e0d9bf,60edea793638800b1b47b233,,,,,,,,,,,,
"[""period""]",0,[0.30299999999999727],100,0,100,0,1,605b98c83da1ded576bcf096,Kobieta,18,2021-07-13_21h35.37.816,rantool2,2021.1.4,Win32,59.88023952,605b98c83da1ded576bcf096,60d9d14f4a8a35a482e0d9bf,60edea793638800b1b47b233,,,,,,,,,,,,
"[""period""]",0,[0.3079999999999927],101,0,101,0,1,605b98c83da1ded576bcf096,Kobieta,18,2021-07-13_21h35.37.816,rantool2,2021.1.4,Win32,59.88023952,605b98c83da1ded576bcf096,60d9d14f4a8a35a482e0d9bf,60edea793638800b1b47b233,,,,,,,,,,,,
"[""comma""]",0,[0.507000000000005],102,0,102,0,1,605b98c83da1ded576bcf096,Kobieta,18,2021-07-13_21h35.37.816,rantool2,2021.1.4,Win32,59.88023952,605b98c83da1ded576bcf096,60d9d14f4a8a35a482e0d9bf,60edea793638800b1b47b233,,,,,,,,,,,,
"[""period""]",0,[0.5539999999999736],103,0,103,0,1,605b98c83da1ded576bcf096,Kobieta,18,2021-07-13_21h35.37.816,rantool2,2021.1.4,Win32,59.88023952,605b98c83da1ded576bcf096,60d9d14f4a8a35a482e0d9bf,60edea793638800b1b47b233,,,,,,,,,,,,
"[""comma""]",0,[0.46999999999997044],104,0,104,0,1,605b98c83da1ded576bcf096,Kobieta,18,2021-07-13_21h35.37.816,rantool2,2021.1.4,Win32,59.88023952,605b98c83da1ded576bcf096,60d9d14f4a8a35a482e0d9bf,60edea793638800b1b47b233,,,,,,,,,,,,
"[""comma""]",0,[0.7930000000000064],105,0,105,0,1,605b98c83da1ded576bcf096,Kobieta,18,2021-07-13_21h35.37.816,rantool2,2021.1.4,Win32,59.88023952,605b98c83da1ded576bcf096,60d9d14f4a8a35a482e0d9bf,60edea793638800b1b47b233,,,,,,,,,,,,
"[""period""]",0,[0.3380000000000223],106,0,106,0,1,605b98c83da1ded576bcf096,Kobieta,18,2021-07-13_21h35.37.816,rantool2,2021.1.4,Win32,59.88023952,605b98c83da1ded576bcf096,60d9d14f4a8a35a482e0d9bf,60edea793638800b1b47b233,,,,,,,,,,,,
"[""comma""]",0,[0.6370000000000005],107,0,107,0,1,605b98c83da1ded576bcf096,Kobieta,18,2021-07-13_21h35.37.816,rantool2,2021.1.4,Win32,59.88023952,605b98c83da1ded576bcf096,60d9d14f4a8a35a482e0d9bf,60edea793638800b1b47b233,,,,,,,,,,,,
"[""period""]",0,[0.5550000000000068],108,0,108,0,1,605b98c83da1ded576bcf096,Kobieta,18,2021-07-13_21h35.37.816,rantool2,2021.1.4,Win32,59.88023952,605b98c83da1ded576bcf096,60d9d14f4a8a35a482e0d9bf,60edea793638800b1b47b233,,,,,,,,,,,,
"[""comma""]",0,[0.30800000000004957],109,0,109,0,1,605b98c83da1ded576bcf096,Kobieta,18,2021-07-13_21h35.37.816,rantool2,2021.1.4,Win32,59.88023952,605b98c83da1ded576bcf096,60d9d14f4a8a35a482e0d9bf,60edea793638800b1b47b233,,,,,,,,,,,,
"[""period""]",0,[0.28700000000003456],110,0,110,0,1,605b98c83da1ded576bcf096,Kobieta,18,2021-07-13_21h35.37.816,rantool2,2021.1.4,Win32,59.88023952,605b98c83da1ded576bcf096,60d9d14f4a8a35a482e0d9bf,60edea793638800b1b47b233,,,,,,,,,,,,
"[""comma""]",0,[0.28600000000000136],111,0,111,0,1,605b98c83da1ded576bcf096,Kobieta,18,2021-07-13_21h35.37.816,rantool2,2021.1.4,Win32,59.88023952,605b98c83da1ded576bcf096,60d9d14f4a8a35a482e0d9bf,60edea793638800b1b47b233,,,,,,,,,,,,
"[""period""]",0,[0.2629999999999768],112,0,112,0,1,605b98c83da1ded576bcf096,Kobieta,18,2021-07-13_21h35.37.816,rantool2,2021.1.4,Win32,59.88023952,605b98c83da1ded576bcf096,60d9d14f4a8a35a482e0d9bf,60edea793638800b1b47b233,,,,,,,,,,,,
"[""comma""]",0,[0.3100000000000023],113,0,113,0,1,605b98c83da1ded576bcf096,Kobieta,18,2021-07-13_21h35.37.816,rantool2,2021.1.4,Win32,59.88023952,605b98c83da1ded576bcf096,60d9d14f4a8a35a482e0d9bf,60edea793638800b1b47b233,,,,,,,,,,,,
"[""comma""]",0,[0.36700000000001864],114,0,114,0,1,605b98c83da1ded576bcf096,Kobieta,18,2021-07-13_21h35.37.816,rantool2,2021.1.4,Win32,59.88023952,605b98c83da1ded576bcf096,60d9d14f4a8a35a482e0d9bf,60edea793638800b1b47b233,,,,,,,,,,,,
"[""period""]",0,[0.3090000000000259],115,0,115,0,1,605b98c83da1ded576bcf096,Kobieta,18,2021-07-13_21h35.37.816,rantool2,2021.1.4,Win32,59.88023952,605b98c83da1ded576bcf096,60d9d14f4a8a35a482e0d9bf,60edea793638800b1b47b233,,,,,,,,,,,,
"[""comma""]",0,[0.2810000000000059],116,0,116,0,1,605b98c83da1ded576bcf096,Kobieta,18,2021-07-13_21h35.37.816,rantool2,2021.1.4,Win32,59.88023952,605b98c83da1ded576bcf096,60d9d14f4a8a35a482e0d9bf,60edea793638800b1b47b233,,,,,,,,,,,,
"[""period""]",0,[0.41200000000003456],117,0,117,0,1,605b98c83da1ded576bcf096,Kobieta,18,2021-07-13_21h35.37.816,rantool2,2021.1.4,Win32,59.88023952,605b98c83da1ded576bcf096,60d9d14f4a8a35a482e0d9bf,60edea793638800b1b47b233,,,,,,,,,,,,
"[""comma""]",0,[0.325999999999965],118,0,118,0,1,605b98c83da1ded576bcf096,Kobieta,18,2021-07-13_21h35.37.816,rantool2,2021.1.4,Win32,59.88023952,605b98c83da1ded576bcf096,60d9d14f4a8a35a482e0d9bf,60edea793638800b1b47b233,,,,,,,,,,,,
"[""period""]",0,[0.49099999999998545],119,0,119,0,1,605b98c83da1ded576bcf096,Kobieta,18,2021-07-13_21h35.37.816,rantool2,2021.1.4,Win32,59.88023952,605b98c83da1ded576bcf096,60d9d14f4a8a35a482e0d9bf,60edea793638800b1b47b233,,,,,,,,,,,,
,,,,,,,,605b98c83da1ded576bcf096,Kobieta,18,2021-07-13_21h35.37.816,rantool2,2021.1.4,Win32,59.88023952,605b98c83da1ded576bcf096,60d9d14f4a8a35a482e0d9bf,60edea793638800b1b47b233,j,3,0,0,0,55,1,RRORRRO,RRORRRR,21.56657303,21.21223021,series_0
,,,,,,,,605b98c83da1ded576bcf096,Kobieta,18,2021-07-13_21h35.37.816,rantool2,2021.1.4,Win32,59.88023952,605b98c83da1ded576bcf096,60d9d14f4a8a35a482e0d9bf,60edea793638800b1b47b233,j,1.207,0,1,1,14,1,OORRROO,OORRROR,22.24142883,22.16977179,series_0
,,,,,,,,605b98c83da1ded576bcf096,Kobieta,18,2021-07-13_21h35.37.816,rantool2,2021.1.4,Win32,59.88023952,605b98c83da1ded576bcf096,60d9d14f4a8a35a482e0d9bf,60edea793638800b1b47b233,f,1.285,0,2,2,5,1,OOORORO,OOORORR,20.87963819,21.9921709,series_1
,,,,,,,,605b98c83da1ded576bcf096,Kobieta,18,2021-07-13_21h35.37.816,rantool2,2021.1.4,Win32,59.88023952,605b98c83da1ded576bcf096,60d9d14f4a8a35a482e0d9bf,60edea793638800b1b47b233,f,1.404,0,3,3,52,1,RROROOO,RROROOR,22.18365867,22.11097995,series_0
,,,,,,,,605b98c83da1ded576bcf096,Kobieta,18,2021-07-13_21h35.37.816,rantool2,2021.1.4,Win32,59.88023952,605b98c83da1ded576bcf096,60d9d14f4a8a35a482e0d9bf,60edea793638800b1b47b233,j,1.378,0,4,4,41,1,ROROORO,ROROORR,20.42602454,21.71443381,series_1
,,,,,,,,605b98c83da1ded576bcf096,Kobieta,18,2021-07-13_21h35.37.816,rantool2,2021.1.4,Win32,59.88023952,605b98c83da1ded576bcf096,60d9d14f4a8a35a482e0d9bf,60edea793638800b1b47b233,f,1.294,0,5,5,32,1,ROOOOOO,ROOOOOR,19.92253567,21.27974287,series_1
,,,,,,,,605b98c83da1ded576bcf096,Kobieta,18,2021-07-13_21h35.37.816,rantool2,2021.1.4,Win32,59.88023952,605b98c83da1ded576bcf096,60d9d14f4a8a35a482e0d9bf,60edea793638800b1b47b233,f,1.367,0,6,6,26,1,ORROROO,ORROROR,22.02732763,21.71443381,series_0
,,,,,,,,605b98c83da1ded576bcf096,Kobieta,18,2021-07-13_21h35.37.816,rantool2,2021.1.4,Win32,59.88023952,605b98c83da1ded576bcf096,60d9d14f4a8a35a482e0d9bf,60edea793638800b1b47b233,j,1.138,0,7,7,54,1,RRORROO,RRORROR,21.55250791,20.9984461,series_0
,,,,,,,,605b98c83da1ded576bcf096,Kobieta,18,2021-07-13_21h35.37.816,rantool2,2021.1.4,Win32,59.88023952,605b98c83da1ded576bcf096,60d9d14f4a8a35a482e0d9bf,60edea793638800b1b47b233,f,1.374,0,8,8,63,1,RRRRRRO,RRRRRRR,21.35278725,19.62521613,series_0
,,,,,,,,605b98c83da1ded576bcf096,Kobieta,18,2021-07-13_21h35.37.816,rantool2,2021.1.4,Win32,59.88023952,605b98c83da1ded576bcf096,60d9d14f4a8a35a482e0d9bf,60edea793638800b1b47b233,f,1.313,0,9,9,38,1,ROORROO,ROORROR,21.79500819,21.36812781,series_0
,,,,,,,,605b98c83da1ded576bcf096,Kobieta,18,2021-07-13_21h35.37.816,rantool2,2021.1.4,Win32,59.88023952,605b98c83da1ded576bcf096,60d9d14f4a8a35a482e0d9bf,60edea793638800b1b47b233,f,1.408,0,10,10,18,1,OROOROO,OROOROR,20.84860893,21.22513037,series_1
,,,,,,,,605b98c83da1ded576bcf096,Kobieta,18,2021-07-13_21h35.37.816,rantool2,2021.1.4,Win32,59.88023952,605b98c83da1ded576bcf096,60d9d14f4a8a35a482e0d9bf,60edea793638800b1b47b233,j,1.405,0,11,11,35,1,ROOORRO,ROOORRR,21.76276513,22.16977179,series_1
,,,,,,,,605b98c83da1ded576bcf096,Kobieta,18,2021-07-13_21h35.37.816,rantool2,2021.1.4,Win32,59.88023952,605b98c83da1ded576bcf096,60d9d14f4a8a35a482e0d9bf,60edea793638800b1b47b233,f,1.293,0,12,12,27,1,ORRORRO,ORRORRR,21.55250791,22.2428857,series_1
,,,,,,,,605b98c83da1ded576bcf096,Kobieta,18,2021-07-13_21h35.37.816,rantool2,2021.1.4,Win32,59.88023952,605b98c83da1ded576bcf096,60d9d14f4a8a35a482e0d9bf,60edea793638800b1b47b233,f,1.236,0,13,13,22,1,ORORROO,ORORROR,22.02732763,21.57657071,series_0
,,,,,,,,605b98c83da1ded576bcf096,Kobieta,18,2021-07-13_21h35.37.816,rantool2,2021.1.4,Win32,59.88023952,605b98c83da1ded576bcf096,60d9d14f4a8a35a482e0d9bf,60edea793638800b1b47b233,j,1.023,0,14,14,50,1,RROOROO,RROOROR,21.73568164,22.02566557,series_1
,,,,,,,,605b98c83da1ded576bcf096,Kobieta,18,2021-07-13_21h35.37.816,rantool2,2021.1.4,Win32,59.88023952,605b98c83da1ded576bcf096,60d9d14f4a8a35a482e0d9bf,60edea793638800b1b47b233,f,1.215,0,15,15,1,1,OOOOORO,OOOOORR,19.92253567,20.74050628,series_1
,,,,,,,,605b98c83da1ded576bcf096,Kobieta,18,2021-07-13_21h35.37.816,rantool2,2021.1.4,Win32,59.88023952,605b98c83da1ded576bcf096,60d9d14f4a8a35a482e0d9bf,60edea793638800b1b47b233,j,1.115,0,16,16,8,1,OOROOOO,OOROOOR,19.91402015,20.89823192,series_1
,,,,,,,,605b98c83da1ded576bcf096,Kobieta,18,2021-07-13_21h35.37.816,rantool2,2021.1.4,Win32,59.88023952,605b98c83da1ded576bcf096,60d9d14f4a8a35a482e0d9bf,60edea793638800b1b47b233,f,1.185,0,17,17,59,1,RRRORRO,RRRORRR,21.56657303,20.89823192,series_0
,,,,,,,,605b98c83da1ded576bcf096,Kobieta,18,2021-07-13_21h35.37.816,rantool2,2021.1.4,Win32,59.88023952,605b98c83da1ded576bcf096,60d9d14f4a8a35a482e0d9bf,60edea793638800b1b47b233,j,1.119,0,18,18,49,1,RROOORO,RROOORR,21.76276513,22.53364006,series_1
,,,,,,,,605b98c83da1ded576bcf096,Kobieta,18,2021-07-13_21h35.37.816,rantool2,2021.1.4,Win32,59.88023952,605b98c83da1ded576bcf096,60d9d14f4a8a35a482e0d9bf,60edea793638800b1b47b233,j,1.158,0,19,19,13,1,OORRORO,OORRORR,21.66733484,22.11181017,series_1
,,,,,,,,605b98c83da1ded576bcf096,Kobieta,18,2021-07-13_21h35.37.816,rantool2,2021.1.4,Win32,59.88023952,605b98c83da1ded576bcf096,60d9d14f4a8a35a482e0d9bf,60edea793638800b1b47b233,j,1.148,0,20,20,29,1,ORRRORO,ORRRORR,22.00300695,22.12173012,series_1
,,,,,,,,605b98c83da1ded576bcf096,Kobieta,18,2021-07-13_21h35.37.816,rantool2,2021.1.4,Win32,59.88023952,605b98c83da1ded576bcf096,60d9d14f4a8a35a482e0d9bf,60edea793638800b1b47b233,f,1.185,0,21,21,4,1,OOOROOO,OOOROOR,19.91402015,21.21223021,series_1
,,,,,,,,605b98c83da1ded576bcf096,Kobieta,18,2021-07-13_21h35.37.816,rantool2,2021.1.4,Win32,59.88023952,605b98c83da1ded576bcf096,60d9d14f4a8a35a482e0d9bf,60edea793638800b1b47b233,j,1.288,0,22,22,11,1,OORORRO,OORORRR,22.18365867,22.6797523,series_1
,,,,,,,,605b98c83da1ded576bcf096,Kobieta,18,2021-07-13_21h35.37.816,rantool2,2021.1.4,Win32,59.88023952,605b98c83da1ded576bcf096,60d9d14f4a8a35a482e0d9bf,60edea793638800b1b47b233,j,1.173,0,23,23,10,1,OOROROO,OOROROR,21.31236711,21.07490964,series_0
,,,,,,,,605b98c83da1ded576bcf096,Kobieta,18,2021-07-13_21h35.37.816,rantool2,2021.1.4,Win32,59.88023952,605b98c83da1ded576bcf096,60d9d14f4a8a35a482e0d9bf,60edea793638800b1b47b233,j,1.221,0,24,24,23,1,ORORRRO,ORORRRR,22.1285618,21.9921709,series_0
,,,,,,,,605b98c83da1ded576bcf096,Kobieta,18,2021-07-13_21h35.37.816,rantool2,2021.1.4,Win32,59.88023952,605b98c83da1ded576bcf096,60d9d14f4a8a35a482e0d9bf,60edea793638800b1b47b233,j,1.155,0,25,25,30,1,ORRRROO,ORRRROR,22.46748491,22.03072203,series_0
,,,,,,,,605b98c83da1ded576bcf096,Kobieta,18,2021-07-13_21h35.37.816,rantool2,2021.1.4,Win32,59.88023952,605b98c83da1ded576bcf096,60d9d14f4a8a35a482e0d9bf,60edea793638800b1b47b233,j,1.103,0,26,26,0,1,OOOOOOO,OOOOOOR,18.52739004,19.62521613,series_1
,,,,,,,,605b98c83da1ded576bcf096,Kobieta,18,2021-07-13_21h35.37.816,rantool2,2021.1.4,Win32,59.88023952,605b98c83da1ded576bcf096,60d9d14f4a8a35a482e0d9bf,60edea793638800b1b47b233,f,1.277,0,27,27,42,1,ROROROO,ROROROR,20.39515459,19.8361834,series_0
,,,,,,,,605b98c83da1ded576bcf096,Kobieta,18,2021-07-13_21h35.37.816,rantool2,2021.1.4,Win32,59.88023952,605b98c83da1ded576bcf096,60d9d14f4a8a35a482e0d9bf,60edea793638800b1b47b233,j,1.206,0,28,28,53,1,RRORORO,RRORORR,20.71309134,21.90565814,series_1
,,,,,,,,605b98c83da1ded576bcf096,Kobieta,18,2021-07-13_21h35.37.816,rantool2,2021.1.4,Win32,59.88023952,605b98c83da1ded576bcf096,60d9d14f4a8a35a482e0d9bf,60edea793638800b1b47b233,j,1.347,0,29,29,45,1,RORRORO,RORRORR,20.78182524,21.22513037,series_1
,,,,,,,,605b98c83da1ded576bcf096,Kobieta,18,2021-07-13_21h35.37.816,rantool2,2021.1.4,Win32,59.88023952,605b98c83da1ded576bcf096,60d9d14f4a8a35a482e0d9bf,60edea793638800b1b47b233,f,1.227,0,30,30,33,1,ROOOORO,ROOOORR,20.83779602,22.03072203,series_1
,,,,,,,,605b98c83da1ded576bcf096,Kobieta,18,2021-07-13_21h35.37.816,rantool2,2021.1.4,Win32,59.88023952,605b98c83da1ded576bcf096,60d9d14f4a8a35a482e0d9bf,60edea793638800b1b47b233,j,1.293,0,31,31,57,1,RRROORO,RRROORR,21.82425538,22.07102821,series_1
,,,,,,,,605b98c83da1ded576bcf096,Kobieta,18,2021-07-13_21h35.37.816,rantool2,2021.1.4,Win32,59.88023952,605b98c83da1ded576bcf096,60d9d14f4a8a35a482e0d9bf,60edea793638800b1b47b233,j,1.253,0,32,32,48,1,RROOOOO,RROOOOR,20.90986523,22.15934078,series_1
,,,,,,,,605b98c83da1ded576bcf096,Kobieta,18,2021-07-13_21h35.37.816,rantool2,2021.1.4,Win32,59.88023952,605b98c83da1ded576bcf096,60d9d14f4a8a35a482e0d9bf,60edea793638800b1b47b233,j,1.255,0,33,33,2,1,OOOOROO,OOOOROR,20.43051175,21.02936224,series_1
,,,,,,,,605b98c83da1ded576bcf096,Kobieta,18,2021-07-13_21h35.37.816,rantool2,2021.1.4,Win32,59.88023952,605b98c83da1ded576bcf096,60d9d14f4a8a35a482e0d9bf,60edea793638800b1b47b233,j,1.449,0,34,34,60,1,RRRROOO,RRRROOR,22.10108823,22.15934078,series_1
,,,,,,,,605b98c83da1ded576bcf096,Kobieta,18,2021-07-13_21h35.37.816,rantool2,2021.1.4,Win32,59.88023952,605b98c83da1ded576bcf096,60d9d14f4a8a35a482e0d9bf,60edea793638800b1b47b233,f,1.275,0,35,35,36,1,ROOROOO,ROOROOR,21.07991943,20.9984461,series_0
,,,,,,,,605b98c83da1ded576bcf096,Kobieta,18,2021-07-13_21h35.37.816,rantool2,2021.1.4,Win32,59.88023952,605b98c83da1ded576bcf096,60d9d14f4a8a35a482e0d9bf,60edea793638800b1b47b233,f,1.403,0,36,36,47,1,RORRRRO,RORRRRR,21.81333602,21.02936224,series_0
,,,,,,,,605b98c83da1ded576bcf096,Kobieta,18,2021-07-13_21h35.37.816,rantool2,2021.1.4,Win32,59.88023952,605b98c83da1ded576bcf096,60d9d14f4a8a35a482e0d9bf,60edea793638800b1b47b233,j,1.345,0,37,37,43,1,RORORRO,RORORRR,20.71309134,21.07490964,series_1
,,,,,,,,605b98c83da1ded576bcf096,Kobieta,18,2021-07-13_21h35.37.816,rantool2,2021.1.4,Win32,59.88023952,605b98c83da1ded576bcf096,60d9d14f4a8a35a482e0d9bf,60edea793638800b1b47b233,j,1.327,0,38,38,17,1,OROOORO,OROOORR,21.03750787,22.12173012,series_1
,,,,,,,,605b98c83da1ded576bcf096,Kobieta,18,2021-07-13_21h35.37.816,rantool2,2021.1.4,Win32,59.88023952,605b98c83da1ded576bcf096,60d9d14f4a8a35a482e0d9bf,60edea793638800b1b47b233,f,1.22,0,39,39,31,1,ORRRRRO,ORRRRRR,22.16413392,20.74050628,series_0
,,,,,,,,605b98c83da1ded576bcf096,Kobieta,18,2021-07-13_21h35.37.816,rantool2,2021.1.4,Win32,59.88023952,605b98c83da1ded576bcf096,60d9d14f4a8a35a482e0d9bf,60edea793638800b1b47b233,j,1.382,0,40,40,46,1,RORRROO,RORRROR,22.00300695,21.24781509,series_0
,,,,,,,,605b98c83da1ded576bcf096,Kobieta,18,2021-07-13_21h35.37.816,rantool2,2021.1.4,Win32,59.88023952,605b98c83da1ded576bcf096,60d9d14f4a8a35a482e0d9bf,60edea793638800b1b47b233,j,1.368,0,41,41,20,1,OROROOO,OROROOR,21.31236711,21.90565814,series_1
,,,,,,,,605b98c83da1ded576bcf096,Kobieta,18,2021-07-13_21h35.37.816,rantool2,2021.1.4,Win32,59.88023952,605b98c83da1ded576bcf096,60d9d14f4a8a35a482e0d9bf,60edea793638800b1b47b233,j,1.225,0,42,42,24,1,ORROOOO,ORROOOR,21.12383932,22.07102821,series_1
,,,,,,,,605b98c83da1ded576bcf096,Kobieta,18,2021-07-13_21h35.37.816,rantool2,2021.1.4,Win32,59.88023952,605b98c83da1ded576bcf096,60d9d14f4a8a35a482e0d9bf,60edea793638800b1b47b233,f,1.161,0,43,43,56,1,RRROOOO,RRROOOR,21.6194508,22.31681875,series_1
,,,,,,,,605b98c83da1ded576bcf096,Kobieta,18,2021-07-13_21h35.37.816,rantool2,2021.1.4,Win32,59.88023952,605b98c83da1ded576bcf096,60d9d14f4a8a35a482e0d9bf,60edea793638800b1b47b233,j,1.008,0,44,44,9,1,OOROORO,OOROORR,21.07991943,22.2428857,series_1
,,,,,,,,605b98c83da1ded576bcf096,Kobieta,18,2021-07-13_21h35.37.816,rantool2,2021.1.4,Win32,59.88023952,605b98c83da1ded576bcf096,60d9d14f4a8a35a482e0d9bf,60edea793638800b1b47b233,f,1.019,0,45,45,12,1,OORROOO,OORROOR,21.30250474,22.02786418,series_1
,,,,,,,,605b98c83da1ded576bcf096,Kobieta,18,2021-07-13_21h35.37.816,rantool2,2021.1.4,Win32,59.88023952,605b98c83da1ded576bcf096,60d9d14f4a8a35a482e0d9bf,60edea793638800b1b47b233,j,1.129,0,46,46,34,1,ROOOROO,ROOOROR,21.03750787,21.24781509,series_1
,,,,,,,,605b98c83da1ded576bcf096,Kobieta,18,2021-07-13_21h35.37.816,rantool2,2021.1.4,Win32,59.88023952,605b98c83da1ded576bcf096,60d9d14f4a8a35a482e0d9bf,60edea793638800b1b47b233,j,0.965,0,47,47,19,1,OROORRO,OROORRR,21.73568164,22.11181017,series_1
,,,,,,,,605b98c83da1ded576bcf096,Kobieta,18,2021-07-13_21h35.37.816,rantool2,2021.1.4,Win32,59.88023952,605b98c83da1ded576bcf096,60d9d14f4a8a35a482e0d9bf,60edea793638800b1b47b233,j,1.152,0,48,48,28,1,ORRROOO,ORRROOR,22.24142883,22.53364006,series_1
,,,,,,,,605b98c83da1ded576bcf096,Kobieta,18,2021-07-13_21h35.37.816,rantool2,2021.1.4,Win32,59.88023952,605b98c83da1ded576bcf096,60d9d14f4a8a35a482e0d9bf,60edea793638800b1b47b233,f,1.17,0,49,49,15,1,OORRRRO,OORRRRR,22.10108823,21.74922619,series_0
,,,,,,,,605b98c83da1ded576bcf096,Kobieta,18,2021-07-13_21h35.37.816,rantool2,2021.1.4,Win32,59.88023952,605b98c83da1ded576bcf096,60d9d14f4a8a35a482e0d9bf,60edea793638800b1b47b233,j,1.204,0,50,50,6,1,OOORROO,OOORROR,21.12383932,21.38562617,series_1
,,,,,,,,605b98c83da1ded576bcf096,Kobieta,18,2021-07-13_21h35.37.816,rantool2,2021.1.4,Win32,59.88023952,605b98c83da1ded576bcf096,60d9d14f4a8a35a482e0d9bf,60edea793638800b1b47b233,f,1.27,0,51,51,61,1,RRRRORO,RRRRORR,21.81333602,21.17347734,series_0
,,,,,,,,605b98c83da1ded576bcf096,Kobieta,18,2021-07-13_21h35.37.816,rantool2,2021.1.4,Win32,59.88023952,605b98c83da1ded576bcf096,60d9d14f4a8a35a482e0d9bf,60edea793638800b1b47b233,j,1.203,0,52,52,51,1,RROORRO,RROORRR,21.89852628,22.02786418,series_1
,,,,,,,,605b98c83da1ded576bcf096,Kobieta,18,2021-07-13_21h35.37.816,rantool2,2021.1.4,Win32,59.88023952,605b98c83da1ded576bcf096,60d9d14f4a8a35a482e0d9bf,60edea793638800b1b47b233,j,1.244,0,53,53,3,1,OOOORRO,OOOORRR,20.90986523,21.74922619,series_1
,,,,,,,,605b98c83da1ded576bcf096,Kobieta,18,2021-07-13_21h35.37.816,rantool2,2021.1.4,Win32,59.88023952,605b98c83da1ded576bcf096,60d9d14f4a8a35a482e0d9bf,60edea793638800b1b47b233,f,1.185,0,54,54,21,1,ORORORO,ORORORR,20.39515459,22.06781359,series_1
,,,,,,,,605b98c83da1ded576bcf096,Kobieta,18,2021-07-13_21h35.37.816,rantool2,2021.1.4,Win32,59.88023952,605b98c83da1ded576bcf096,60d9d14f4a8a35a482e0d9bf,60edea793638800b1b47b233,f,1.226,0,55,55,58,1,RRROROO,RRROROR,22.1285618,21.37121559,series_0
,,,,,,,,605b98c83da1ded576bcf096,Kobieta,18,2021-07-13_21h35.37.816,rantool2,2021.1.4,Win32,59.88023952,605b98c83da1ded576bcf096,60d9d14f4a8a35a482e0d9bf,60edea793638800b1b47b233,j,1.218,0,56,56,37,1,ROORORO,ROORORR,20.42602454,21.57657071,series_1
,,,,,,,,605b98c83da1ded576bcf096,Kobieta,18,2021-07-13_21h35.37.816,rantool2,2021.1.4,Win32,59.88023952,605b98c83da1ded576bcf096,60d9d14f4a8a35a482e0d9bf,60edea793638800b1b47b233,f,1.103,0,57,57,40,1,ROROOOO,ROROOOR,20.87963819,21.37121559,series_1
,,,,,,,,605b98c83da1ded576bcf096,Kobieta,18,2021-07-13_21h35.37.816,rantool2,2021.1.4,Win32,59.88023952,605b98c83da1ded576bcf096,60d9d14f4a8a35a482e0d9bf,60edea793638800b1b47b233,f,1.24,0,58,58,44,1,RORROOO,RORROOR,21.66733484,22.02566557,series_1
,,,,,,,,605b98c83da1ded576bcf096,Kobieta,18,2021-07-13_21h35.37.816,rantool2,2021.1.4,Win32,59.88023952,605b98c83da1ded576bcf096,60d9d14f4a8a35a482e0d9bf,60edea793638800b1b47b233,j,1.336,0,59,59,7,1,OOORRRO,OOORRRR,21.6194508,21.899017,series_1
,,,,,,,,605b98c83da1ded576bcf096,Kobieta,18,2021-07-13_21h35.37.816,rantool2,2021.1.4,Win32,59.88023952,605b98c83da1ded576bcf096,60d9d14f4a8a35a482e0d9bf,60edea793638800b1b47b233,f,1.269,0,60,60,25,1,ORROORO,ORROORR,21.79500819,22.61624387,series_1
,,,,,,,,605b98c83da1ded576bcf096,Kobieta,18,2021-07-13_21h35.37.816,rantool2,2021.1.4,Win32,59.88023952,605b98c83da1ded576bcf096,60d9d14f4a8a35a482e0d9bf,60edea793638800b1b47b233,f,1.319,0,61,61,62,1,RRRRROO,RRRRROR,22.16413392,21.27974287,series_0
,,,,,,,,605b98c83da1ded576bcf096,Kobieta,18,2021-07-13_21h35.37.816,rantool2,2021.1.4,Win32,59.88023952,605b98c83da1ded576bcf096,60d9d14f4a8a35a482e0d9bf,60edea793638800b1b47b233,j,1.299,0,62,62,39,1,ROORRRO,ROORRRR,21.82425538,21.38562617,series_0
,,,,,,,,605b98c83da1ded576bcf096,Kobieta,18,2021-07-13_21h35.37.816,rantool2,2021.1.4,Win32,59.88023952,605b98c83da1ded576bcf096,60d9d14f4a8a35a482e0d9bf,60edea793638800b1b47b233,j,1.19,0,63,63,16,1,OROOOOO,OROOOOR,20.43051175,21.17347734,series_1
