key_resp_7.keys,key_resp_7.rt,trials_2.thisRepN,trials_2.thisTrialN,trials_2.thisN,trials_2.thisIndex,trials_2.ran,id,series_0,series_1,acss_0,acss_1,comparison,id*,Płeć*,Wiek*,date,expName,psychopyVersion,OS,frameRate,STUDY_ID,SESSION_ID,key_resp_5.keys,key_resp_5.corr,key_resp_5.rt,trials.thisRepN,trials.thisTrialN,trials.thisN,trials.thisIndex,trials.ran
j,2.3127,0,0,0,43,1,611bbb6d3c2df7826cf6316a,RORORRO,RORORRR,20.71309134,21.07490964,series_1,611bbb6d3c2df7826cf6316a,Mężczyzna,26,2021-09-06_19h29.45.950,rantool2,2021.1.4,Win32,59.99880002,6135e006383e6ea6c3d06a28,61364fe607d48d63535b1049,,,,,,,,
f,2.4137,0,1,1,40,1,611bbb6d3c2df7826cf6316a,ROROOOO,ROROOOR,20.87963819,21.37121559,series_1,611bbb6d3c2df7826cf6316a,Mężczyzna,26,2021-09-06_19h29.45.950,rantool2,2021.1.4,Win32,59.99880002,6135e006383e6ea6c3d06a28,61364fe607d48d63535b1049,,,,,,,,
f,1.959,0,2,2,5,1,611bbb6d3c2df7826cf6316a,OOORORO,OOORORR,20.87963819,21.9921709,series_1,611bbb6d3c2df7826cf6316a,Mężczyzna,26,2021-09-06_19h29.45.950,rantool2,2021.1.4,Win32,59.99880002,6135e006383e6ea6c3d06a28,61364fe607d48d63535b1049,,,,,,,,
j,1.8784,0,3,3,36,1,611bbb6d3c2df7826cf6316a,ROOROOO,ROOROOR,21.07991943,20.9984461,series_0,611bbb6d3c2df7826cf6316a,Mężczyzna,26,2021-09-06_19h29.45.950,rantool2,2021.1.4,Win32,59.99880002,6135e006383e6ea6c3d06a28,61364fe607d48d63535b1049,,,,,,,,
f,1.5376,0,4,4,35,1,611bbb6d3c2df7826cf6316a,ROOORRO,ROOORRR,21.76276513,22.16977179,series_1,611bbb6d3c2df7826cf6316a,Mężczyzna,26,2021-09-06_19h29.45.950,rantool2,2021.1.4,Win32,59.99880002,6135e006383e6ea6c3d06a28,61364fe607d48d63535b1049,,,,,,,,
f,1.3296,0,5,5,62,1,611bbb6d3c2df7826cf6316a,RRRRROO,RRRRROR,22.16413392,21.27974287,series_0,611bbb6d3c2df7826cf6316a,Mężczyzna,26,2021-09-06_19h29.45.950,rantool2,2021.1.4,Win32,59.99880002,6135e006383e6ea6c3d06a28,61364fe607d48d63535b1049,,,,,,,,
f,1.3933,0,6,6,31,1,611bbb6d3c2df7826cf6316a,ORRRRRO,ORRRRRR,22.16413392,20.74050628,series_0,611bbb6d3c2df7826cf6316a,Mężczyzna,26,2021-09-06_19h29.45.950,rantool2,2021.1.4,Win32,59.99880002,6135e006383e6ea6c3d06a28,61364fe607d48d63535b1049,,,,,,,,
j,1.4013,0,7,7,19,1,611bbb6d3c2df7826cf6316a,OROORRO,OROORRR,21.73568164,22.11181017,series_1,611bbb6d3c2df7826cf6316a,Mężczyzna,26,2021-09-06_19h29.45.950,rantool2,2021.1.4,Win32,59.99880002,6135e006383e6ea6c3d06a28,61364fe607d48d63535b1049,,,,,,,,
f,1.0192,0,8,8,12,1,611bbb6d3c2df7826cf6316a,OORROOO,OORROOR,21.30250474,22.02786418,series_1,611bbb6d3c2df7826cf6316a,Mężczyzna,26,2021-09-06_19h29.45.950,rantool2,2021.1.4,Win32,59.99880002,6135e006383e6ea6c3d06a28,61364fe607d48d63535b1049,,,,,,,,
j,0.8084,0,9,9,60,1,611bbb6d3c2df7826cf6316a,RRRROOO,RRRROOR,22.10108823,22.15934078,series_1,611bbb6d3c2df7826cf6316a,Mężczyzna,26,2021-09-06_19h29.45.950,rantool2,2021.1.4,Win32,59.99880002,6135e006383e6ea6c3d06a28,61364fe607d48d63535b1049,,,,,,,,
f,0.6861,0,10,10,8,1,611bbb6d3c2df7826cf6316a,OOROOOO,OOROOOR,19.91402015,20.89823192,series_1,611bbb6d3c2df7826cf6316a,Mężczyzna,26,2021-09-06_19h29.45.950,rantool2,2021.1.4,Win32,59.99880002,6135e006383e6ea6c3d06a28,61364fe607d48d63535b1049,,,,,,,,
j,1.7856,0,11,11,29,1,611bbb6d3c2df7826cf6316a,ORRRORO,ORRRORR,22.00300695,22.12173012,series_1,611bbb6d3c2df7826cf6316a,Mężczyzna,26,2021-09-06_19h29.45.950,rantool2,2021.1.4,Win32,59.99880002,6135e006383e6ea6c3d06a28,61364fe607d48d63535b1049,,,,,,,,
f,1.5699,0,12,12,0,1,611bbb6d3c2df7826cf6316a,OOOOOOO,OOOOOOR,18.52739004,19.62521613,series_1,611bbb6d3c2df7826cf6316a,Mężczyzna,26,2021-09-06_19h29.45.950,rantool2,2021.1.4,Win32,59.99880002,6135e006383e6ea6c3d06a28,61364fe607d48d63535b1049,,,,,,,,
f,2.0274,0,13,13,30,1,611bbb6d3c2df7826cf6316a,ORRRROO,ORRRROR,22.46748491,22.03072203,series_0,611bbb6d3c2df7826cf6316a,Mężczyzna,26,2021-09-06_19h29.45.950,rantool2,2021.1.4,Win32,59.99880002,6135e006383e6ea6c3d06a28,61364fe607d48d63535b1049,,,,,,,,
f,1.8524,0,14,14,3,1,611bbb6d3c2df7826cf6316a,OOOORRO,OOOORRR,20.90986523,21.74922619,series_1,611bbb6d3c2df7826cf6316a,Mężczyzna,26,2021-09-06_19h29.45.950,rantool2,2021.1.4,Win32,59.99880002,6135e006383e6ea6c3d06a28,61364fe607d48d63535b1049,,,,,,,,
f,1.6366,0,15,15,9,1,611bbb6d3c2df7826cf6316a,OOROORO,OOROORR,21.07991943,22.2428857,series_1,611bbb6d3c2df7826cf6316a,Mężczyzna,26,2021-09-06_19h29.45.950,rantool2,2021.1.4,Win32,59.99880002,6135e006383e6ea6c3d06a28,61364fe607d48d63535b1049,,,,,,,,
j,1.6254,0,16,16,58,1,611bbb6d3c2df7826cf6316a,RRROROO,RRROROR,22.1285618,21.37121559,series_0,611bbb6d3c2df7826cf6316a,Mężczyzna,26,2021-09-06_19h29.45.950,rantool2,2021.1.4,Win32,59.99880002,6135e006383e6ea6c3d06a28,61364fe607d48d63535b1049,,,,,,,,
j,1.6214,0,17,17,18,1,611bbb6d3c2df7826cf6316a,OROOROO,OROOROR,20.84860893,21.22513037,series_1,611bbb6d3c2df7826cf6316a,Mężczyzna,26,2021-09-06_19h29.45.950,rantool2,2021.1.4,Win32,59.99880002,6135e006383e6ea6c3d06a28,61364fe607d48d63535b1049,,,,,,,,
f,2.2908,0,18,18,23,1,611bbb6d3c2df7826cf6316a,ORORRRO,ORORRRR,22.1285618,21.9921709,series_0,611bbb6d3c2df7826cf6316a,Mężczyzna,26,2021-09-06_19h29.45.950,rantool2,2021.1.4,Win32,59.99880002,6135e006383e6ea6c3d06a28,61364fe607d48d63535b1049,,,,,,,,
j,1.8047,0,19,19,59,1,611bbb6d3c2df7826cf6316a,RRRORRO,RRRORRR,21.56657303,20.89823192,series_0,611bbb6d3c2df7826cf6316a,Mężczyzna,26,2021-09-06_19h29.45.950,rantool2,2021.1.4,Win32,59.99880002,6135e006383e6ea6c3d06a28,61364fe607d48d63535b1049,,,,,,,,
f,1.8423,0,20,20,28,1,611bbb6d3c2df7826cf6316a,ORRROOO,ORRROOR,22.24142883,22.53364006,series_1,611bbb6d3c2df7826cf6316a,Mężczyzna,26,2021-09-06_19h29.45.950,rantool2,2021.1.4,Win32,59.99880002,6135e006383e6ea6c3d06a28,61364fe607d48d63535b1049,,,,,,,,
f,2.0721,0,21,21,56,1,611bbb6d3c2df7826cf6316a,RRROOOO,RRROOOR,21.6194508,22.31681875,series_1,611bbb6d3c2df7826cf6316a,Mężczyzna,26,2021-09-06_19h29.45.950,rantool2,2021.1.4,Win32,59.99880002,6135e006383e6ea6c3d06a28,61364fe607d48d63535b1049,,,,,,,,
j,1.6131,0,22,22,49,1,611bbb6d3c2df7826cf6316a,RROOORO,RROOORR,21.76276513,22.53364006,series_1,611bbb6d3c2df7826cf6316a,Mężczyzna,26,2021-09-06_19h29.45.950,rantool2,2021.1.4,Win32,59.99880002,6135e006383e6ea6c3d06a28,61364fe607d48d63535b1049,,,,,,,,
f,1.5291,0,23,23,6,1,611bbb6d3c2df7826cf6316a,OOORROO,OOORROR,21.12383932,21.38562617,series_1,611bbb6d3c2df7826cf6316a,Mężczyzna,26,2021-09-06_19h29.45.950,rantool2,2021.1.4,Win32,59.99880002,6135e006383e6ea6c3d06a28,61364fe607d48d63535b1049,,,,,,,,
j,2.0187,0,24,24,45,1,611bbb6d3c2df7826cf6316a,RORRORO,RORRORR,20.78182524,21.22513037,series_1,611bbb6d3c2df7826cf6316a,Mężczyzna,26,2021-09-06_19h29.45.950,rantool2,2021.1.4,Win32,59.99880002,6135e006383e6ea6c3d06a28,61364fe607d48d63535b1049,,,,,,,,
f,2.4138,0,25,25,39,1,611bbb6d3c2df7826cf6316a,ROORRRO,ROORRRR,21.82425538,21.38562617,series_0,611bbb6d3c2df7826cf6316a,Mężczyzna,26,2021-09-06_19h29.45.950,rantool2,2021.1.4,Win32,59.99880002,6135e006383e6ea6c3d06a28,61364fe607d48d63535b1049,,,,,,,,
f,1.7557,0,26,26,20,1,611bbb6d3c2df7826cf6316a,OROROOO,OROROOR,21.31236711,21.90565814,series_1,611bbb6d3c2df7826cf6316a,Mężczyzna,26,2021-09-06_19h29.45.950,rantool2,2021.1.4,Win32,59.99880002,6135e006383e6ea6c3d06a28,61364fe607d48d63535b1049,,,,,,,,
f,2.055,0,27,27,22,1,611bbb6d3c2df7826cf6316a,ORORROO,ORORROR,22.02732763,21.57657071,series_0,611bbb6d3c2df7826cf6316a,Mężczyzna,26,2021-09-06_19h29.45.950,rantool2,2021.1.4,Win32,59.99880002,6135e006383e6ea6c3d06a28,61364fe607d48d63535b1049,,,,,,,,
j,1.8656,0,28,28,42,1,611bbb6d3c2df7826cf6316a,ROROROO,ROROROR,20.39515459,19.8361834,series_0,611bbb6d3c2df7826cf6316a,Mężczyzna,26,2021-09-06_19h29.45.950,rantool2,2021.1.4,Win32,59.99880002,6135e006383e6ea6c3d06a28,61364fe607d48d63535b1049,,,,,,,,
j,1.3781,0,29,29,55,1,611bbb6d3c2df7826cf6316a,RRORRRO,RRORRRR,21.56657303,21.21223021,series_0,611bbb6d3c2df7826cf6316a,Mężczyzna,26,2021-09-06_19h29.45.950,rantool2,2021.1.4,Win32,59.99880002,6135e006383e6ea6c3d06a28,61364fe607d48d63535b1049,,,,,,,,
j,1.6544,0,30,30,14,1,611bbb6d3c2df7826cf6316a,OORRROO,OORRROR,22.24142883,22.16977179,series_0,611bbb6d3c2df7826cf6316a,Mężczyzna,26,2021-09-06_19h29.45.950,rantool2,2021.1.4,Win32,59.99880002,6135e006383e6ea6c3d06a28,61364fe607d48d63535b1049,,,,,,,,
j,1.5471,0,31,31,57,1,611bbb6d3c2df7826cf6316a,RRROORO,RRROORR,21.82425538,22.07102821,series_1,611bbb6d3c2df7826cf6316a,Mężczyzna,26,2021-09-06_19h29.45.950,rantool2,2021.1.4,Win32,59.99880002,6135e006383e6ea6c3d06a28,61364fe607d48d63535b1049,,,,,,,,
j,1.6778,0,32,32,53,1,611bbb6d3c2df7826cf6316a,RRORORO,RRORORR,20.71309134,21.90565814,series_1,611bbb6d3c2df7826cf6316a,Mężczyzna,26,2021-09-06_19h29.45.950,rantool2,2021.1.4,Win32,59.99880002,6135e006383e6ea6c3d06a28,61364fe607d48d63535b1049,,,,,,,,
f,1.6244,0,33,33,17,1,611bbb6d3c2df7826cf6316a,OROOORO,OROOORR,21.03750787,22.12173012,series_1,611bbb6d3c2df7826cf6316a,Mężczyzna,26,2021-09-06_19h29.45.950,rantool2,2021.1.4,Win32,59.99880002,6135e006383e6ea6c3d06a28,61364fe607d48d63535b1049,,,,,,,,
f,1.4366,0,34,34,33,1,611bbb6d3c2df7826cf6316a,ROOOORO,ROOOORR,20.83779602,22.03072203,series_1,611bbb6d3c2df7826cf6316a,Mężczyzna,26,2021-09-06_19h29.45.950,rantool2,2021.1.4,Win32,59.99880002,6135e006383e6ea6c3d06a28,61364fe607d48d63535b1049,,,,,,,,
f,1.4775,0,35,35,46,1,611bbb6d3c2df7826cf6316a,RORRROO,RORRROR,22.00300695,21.24781509,series_0,611bbb6d3c2df7826cf6316a,Mężczyzna,26,2021-09-06_19h29.45.950,rantool2,2021.1.4,Win32,59.99880002,6135e006383e6ea6c3d06a28,61364fe607d48d63535b1049,,,,,,,,
j,1.895,0,36,36,47,1,611bbb6d3c2df7826cf6316a,RORRRRO,RORRRRR,21.81333602,21.02936224,series_0,611bbb6d3c2df7826cf6316a,Mężczyzna,26,2021-09-06_19h29.45.950,rantool2,2021.1.4,Win32,59.99880002,6135e006383e6ea6c3d06a28,61364fe607d48d63535b1049,,,,,,,,
j,1.9213,0,37,37,4,1,611bbb6d3c2df7826cf6316a,OOOROOO,OOOROOR,19.91402015,21.21223021,series_1,611bbb6d3c2df7826cf6316a,Mężczyzna,26,2021-09-06_19h29.45.950,rantool2,2021.1.4,Win32,59.99880002,6135e006383e6ea6c3d06a28,61364fe607d48d63535b1049,,,,,,,,
f,1.2555,0,38,38,51,1,611bbb6d3c2df7826cf6316a,RROORRO,RROORRR,21.89852628,22.02786418,series_1,611bbb6d3c2df7826cf6316a,Mężczyzna,26,2021-09-06_19h29.45.950,rantool2,2021.1.4,Win32,59.99880002,6135e006383e6ea6c3d06a28,61364fe607d48d63535b1049,,,,,,,,
j,1.4569,0,39,39,48,1,611bbb6d3c2df7826cf6316a,RROOOOO,RROOOOR,20.90986523,22.15934078,series_1,611bbb6d3c2df7826cf6316a,Mężczyzna,26,2021-09-06_19h29.45.950,rantool2,2021.1.4,Win32,59.99880002,6135e006383e6ea6c3d06a28,61364fe607d48d63535b1049,,,,,,,,
f,1.5907,0,40,40,50,1,611bbb6d3c2df7826cf6316a,RROOROO,RROOROR,21.73568164,22.02566557,series_1,611bbb6d3c2df7826cf6316a,Mężczyzna,26,2021-09-06_19h29.45.950,rantool2,2021.1.4,Win32,59.99880002,6135e006383e6ea6c3d06a28,61364fe607d48d63535b1049,,,,,,,,
j,1.7203,0,41,41,26,1,611bbb6d3c2df7826cf6316a,ORROROO,ORROROR,22.02732763,21.71443381,series_0,611bbb6d3c2df7826cf6316a,Mężczyzna,26,2021-09-06_19h29.45.950,rantool2,2021.1.4,Win32,59.99880002,6135e006383e6ea6c3d06a28,61364fe607d48d63535b1049,,,,,,,,
f,1.7078,0,42,42,13,1,611bbb6d3c2df7826cf6316a,OORRORO,OORRORR,21.66733484,22.11181017,series_1,611bbb6d3c2df7826cf6316a,Mężczyzna,26,2021-09-06_19h29.45.950,rantool2,2021.1.4,Win32,59.99880002,6135e006383e6ea6c3d06a28,61364fe607d48d63535b1049,,,,,,,,
f,2.4821,0,43,43,38,1,611bbb6d3c2df7826cf6316a,ROORROO,ROORROR,21.79500819,21.36812781,series_0,611bbb6d3c2df7826cf6316a,Mężczyzna,26,2021-09-06_19h29.45.950,rantool2,2021.1.4,Win32,59.99880002,6135e006383e6ea6c3d06a28,61364fe607d48d63535b1049,,,,,,,,
f,1.5533,0,44,44,52,1,611bbb6d3c2df7826cf6316a,RROROOO,RROROOR,22.18365867,22.11097995,series_0,611bbb6d3c2df7826cf6316a,Mężczyzna,26,2021-09-06_19h29.45.950,rantool2,2021.1.4,Win32,59.99880002,6135e006383e6ea6c3d06a28,61364fe607d48d63535b1049,,,,,,,,
j,1.3365,0,45,45,24,1,611bbb6d3c2df7826cf6316a,ORROOOO,ORROOOR,21.12383932,22.07102821,series_1,611bbb6d3c2df7826cf6316a,Mężczyzna,26,2021-09-06_19h29.45.950,rantool2,2021.1.4,Win32,59.99880002,6135e006383e6ea6c3d06a28,61364fe607d48d63535b1049,,,,,,,,
f,0.8954,0,46,46,32,1,611bbb6d3c2df7826cf6316a,ROOOOOO,ROOOOOR,19.92253567,21.27974287,series_1,611bbb6d3c2df7826cf6316a,Mężczyzna,26,2021-09-06_19h29.45.950,rantool2,2021.1.4,Win32,59.99880002,6135e006383e6ea6c3d06a28,61364fe607d48d63535b1049,,,,,,,,
j,1.1918,0,47,47,37,1,611bbb6d3c2df7826cf6316a,ROORORO,ROORORR,20.42602454,21.57657071,series_1,611bbb6d3c2df7826cf6316a,Mężczyzna,26,2021-09-06_19h29.45.950,rantool2,2021.1.4,Win32,59.99880002,6135e006383e6ea6c3d06a28,61364fe607d48d63535b1049,,,,,,,,
f,0.8378,0,48,48,1,1,611bbb6d3c2df7826cf6316a,OOOOORO,OOOOORR,19.92253567,20.74050628,series_1,611bbb6d3c2df7826cf6316a,Mężczyzna,26,2021-09-06_19h29.45.950,rantool2,2021.1.4,Win32,59.99880002,6135e006383e6ea6c3d06a28,61364fe607d48d63535b1049,,,,,,,,
j,1.6383,0,49,49,11,1,611bbb6d3c2df7826cf6316a,OORORRO,OORORRR,22.18365867,22.6797523,series_1,611bbb6d3c2df7826cf6316a,Mężczyzna,26,2021-09-06_19h29.45.950,rantool2,2021.1.4,Win32,59.99880002,6135e006383e6ea6c3d06a28,61364fe607d48d63535b1049,,,,,,,,
f,1.287,0,50,50,2,1,611bbb6d3c2df7826cf6316a,OOOOROO,OOOOROR,20.43051175,21.02936224,series_1,611bbb6d3c2df7826cf6316a,Mężczyzna,26,2021-09-06_19h29.45.950,rantool2,2021.1.4,Win32,59.99880002,6135e006383e6ea6c3d06a28,61364fe607d48d63535b1049,,,,,,,,
j,1.7223,0,51,51,10,1,611bbb6d3c2df7826cf6316a,OOROROO,OOROROR,21.31236711,21.07490964,series_0,611bbb6d3c2df7826cf6316a,Mężczyzna,26,2021-09-06_19h29.45.950,rantool2,2021.1.4,Win32,59.99880002,6135e006383e6ea6c3d06a28,61364fe607d48d63535b1049,,,,,,,,
f,1.6213,0,52,52,54,1,611bbb6d3c2df7826cf6316a,RRORROO,RRORROR,21.55250791,20.9984461,series_0,611bbb6d3c2df7826cf6316a,Mężczyzna,26,2021-09-06_19h29.45.950,rantool2,2021.1.4,Win32,59.99880002,6135e006383e6ea6c3d06a28,61364fe607d48d63535b1049,,,,,,,,
j,1.5058,0,53,53,61,1,611bbb6d3c2df7826cf6316a,RRRRORO,RRRRORR,21.81333602,21.17347734,series_0,611bbb6d3c2df7826cf6316a,Mężczyzna,26,2021-09-06_19h29.45.950,rantool2,2021.1.4,Win32,59.99880002,6135e006383e6ea6c3d06a28,61364fe607d48d63535b1049,,,,,,,,
j,1.7355,0,54,54,27,1,611bbb6d3c2df7826cf6316a,ORRORRO,ORRORRR,21.55250791,22.2428857,series_1,611bbb6d3c2df7826cf6316a,Mężczyzna,26,2021-09-06_19h29.45.950,rantool2,2021.1.4,Win32,59.99880002,6135e006383e6ea6c3d06a28,61364fe607d48d63535b1049,,,,,,,,
j,2.3047,0,55,55,44,1,611bbb6d3c2df7826cf6316a,RORROOO,RORROOR,21.66733484,22.02566557,series_1,611bbb6d3c2df7826cf6316a,Mężczyzna,26,2021-09-06_19h29.45.950,rantool2,2021.1.4,Win32,59.99880002,6135e006383e6ea6c3d06a28,61364fe607d48d63535b1049,,,,,,,,
j,2.9409,0,56,56,41,1,611bbb6d3c2df7826cf6316a,ROROORO,ROROORR,20.42602454,21.71443381,series_1,611bbb6d3c2df7826cf6316a,Mężczyzna,26,2021-09-06_19h29.45.950,rantool2,2021.1.4,Win32,59.99880002,6135e006383e6ea6c3d06a28,61364fe607d48d63535b1049,,,,,,,,
j,1.5227,0,57,57,15,1,611bbb6d3c2df7826cf6316a,OORRRRO,OORRRRR,22.10108823,21.74922619,series_0,611bbb6d3c2df7826cf6316a,Mężczyzna,26,2021-09-06_19h29.45.950,rantool2,2021.1.4,Win32,59.99880002,6135e006383e6ea6c3d06a28,61364fe607d48d63535b1049,,,,,,,,
f,0.9845,0,58,58,63,1,611bbb6d3c2df7826cf6316a,RRRRRRO,RRRRRRR,21.35278725,19.62521613,series_0,611bbb6d3c2df7826cf6316a,Mężczyzna,26,2021-09-06_19h29.45.950,rantool2,2021.1.4,Win32,59.99880002,6135e006383e6ea6c3d06a28,61364fe607d48d63535b1049,,,,,,,,
j,1.2819,0,59,59,16,1,611bbb6d3c2df7826cf6316a,OROOOOO,OROOOOR,20.43051175,21.17347734,series_1,611bbb6d3c2df7826cf6316a,Mężczyzna,26,2021-09-06_19h29.45.950,rantool2,2021.1.4,Win32,59.99880002,6135e006383e6ea6c3d06a28,61364fe607d48d63535b1049,,,,,,,,
f,1.1166,0,60,60,34,1,611bbb6d3c2df7826cf6316a,ROOOROO,ROOOROR,21.03750787,21.24781509,series_1,611bbb6d3c2df7826cf6316a,Mężczyzna,26,2021-09-06_19h29.45.950,rantool2,2021.1.4,Win32,59.99880002,6135e006383e6ea6c3d06a28,61364fe607d48d63535b1049,,,,,,,,
f,1.1039,0,61,61,21,1,611bbb6d3c2df7826cf6316a,ORORORO,ORORORR,20.39515459,22.06781359,series_1,611bbb6d3c2df7826cf6316a,Mężczyzna,26,2021-09-06_19h29.45.950,rantool2,2021.1.4,Win32,59.99880002,6135e006383e6ea6c3d06a28,61364fe607d48d63535b1049,,,,,,,,
f,1.3269,0,62,62,7,1,611bbb6d3c2df7826cf6316a,OOORRRO,OOORRRR,21.6194508,21.899017,series_1,611bbb6d3c2df7826cf6316a,Mężczyzna,26,2021-09-06_19h29.45.950,rantool2,2021.1.4,Win32,59.99880002,6135e006383e6ea6c3d06a28,61364fe607d48d63535b1049,,,,,,,,
j,1.6042,0,63,63,25,1,611bbb6d3c2df7826cf6316a,ORROORO,ORROORR,21.79500819,22.61624387,series_1,611bbb6d3c2df7826cf6316a,Mężczyzna,26,2021-09-06_19h29.45.950,rantool2,2021.1.4,Win32,59.99880002,6135e006383e6ea6c3d06a28,61364fe607d48d63535b1049,,,,,,,,
,,,,,,,611bbb6d3c2df7826cf6316a,,,,,,611bbb6d3c2df7826cf6316a,Mężczyzna,26,2021-09-06_19h29.45.950,rantool2,2021.1.4,Win32,59.99880002,6135e006383e6ea6c3d06a28,61364fe607d48d63535b1049,"[""comma""]",0,[1.298100000008958],0,0,0,0,1
,,,,,,,611bbb6d3c2df7826cf6316a,,,,,,611bbb6d3c2df7826cf6316a,Mężczyzna,26,2021-09-06_19h29.45.950,rantool2,2021.1.4,Win32,59.99880002,6135e006383e6ea6c3d06a28,61364fe607d48d63535b1049,"[""comma""]",0,[0.41009999999403135],1,0,1,0,1
,,,,,,,611bbb6d3c2df7826cf6316a,,,,,,611bbb6d3c2df7826cf6316a,Mężczyzna,26,2021-09-06_19h29.45.950,rantool2,2021.1.4,Win32,59.99880002,6135e006383e6ea6c3d06a28,61364fe607d48d63535b1049,"[""comma""]",0,[0.09520000000296136],2,0,2,0,1
,,,,,,,611bbb6d3c2df7826cf6316a,,,,,,611bbb6d3c2df7826cf6316a,Mężczyzna,26,2021-09-06_19h29.45.950,rantool2,2021.1.4,Win32,59.99880002,6135e006383e6ea6c3d06a28,61364fe607d48d63535b1049,"[""period""]",0,[0.2849999999999966],3,0,3,0,1
,,,,,,,611bbb6d3c2df7826cf6316a,,,,,,611bbb6d3c2df7826cf6316a,Mężczyzna,26,2021-09-06_19h29.45.950,rantool2,2021.1.4,Win32,59.99880002,6135e006383e6ea6c3d06a28,61364fe607d48d63535b1049,"[""comma""]",0,[0.3675000000000068],4,0,4,0,1
,,,,,,,611bbb6d3c2df7826cf6316a,,,,,,611bbb6d3c2df7826cf6316a,Mężczyzna,26,2021-09-06_19h29.45.950,rantool2,2021.1.4,Win32,59.99880002,6135e006383e6ea6c3d06a28,61364fe607d48d63535b1049,"[""comma""]",0,[0.2257000000029734],5,0,5,0,1
,,,,,,,611bbb6d3c2df7826cf6316a,,,,,,611bbb6d3c2df7826cf6316a,Mężczyzna,26,2021-09-06_19h29.45.950,rantool2,2021.1.4,Win32,59.99880002,6135e006383e6ea6c3d06a28,61364fe607d48d63535b1049,"[""comma""]",0,[0.31980000001192366],6,0,6,0,1
,,,,,,,611bbb6d3c2df7826cf6316a,,,,,,611bbb6d3c2df7826cf6316a,Mężczyzna,26,2021-09-06_19h29.45.950,rantool2,2021.1.4,Win32,59.99880002,6135e006383e6ea6c3d06a28,61364fe607d48d63535b1049,"[""comma""]",0,[0.21929999999701977],7,0,7,0,1
,,,,,,,611bbb6d3c2df7826cf6316a,,,,,,611bbb6d3c2df7826cf6316a,Mężczyzna,26,2021-09-06_19h29.45.950,rantool2,2021.1.4,Win32,59.99880002,6135e006383e6ea6c3d06a28,61364fe607d48d63535b1049,"[""comma""]",0,[0.12389999999106749],8,0,8,0,1
,,,,,,,611bbb6d3c2df7826cf6316a,,,,,,611bbb6d3c2df7826cf6316a,Mężczyzna,26,2021-09-06_19h29.45.950,rantool2,2021.1.4,Win32,59.99880002,6135e006383e6ea6c3d06a28,61364fe607d48d63535b1049,"[""comma""]",0,[0.25589999999104407],9,0,9,0,1
,,,,,,,611bbb6d3c2df7826cf6316a,,,,,,611bbb6d3c2df7826cf6316a,Mężczyzna,26,2021-09-06_19h29.45.950,rantool2,2021.1.4,Win32,59.99880002,6135e006383e6ea6c3d06a28,61364fe607d48d63535b1049,"[""comma""]",0,[0.2754000000059591],10,0,10,0,1
,,,,,,,611bbb6d3c2df7826cf6316a,,,,,,611bbb6d3c2df7826cf6316a,Mężczyzna,26,2021-09-06_19h29.45.950,rantool2,2021.1.4,Win32,59.99880002,6135e006383e6ea6c3d06a28,61364fe607d48d63535b1049,"[""comma""]",0,[0.2189999999999941],11,0,11,0,1
,,,,,,,611bbb6d3c2df7826cf6316a,,,,,,611bbb6d3c2df7826cf6316a,Mężczyzna,26,2021-09-06_19h29.45.950,rantool2,2021.1.4,Win32,59.99880002,6135e006383e6ea6c3d06a28,61364fe607d48d63535b1049,"[""comma"",""comma""]",0,"[0.22239999999106885,1.873399999991051]",12,0,12,0,1
,,,,,,,611bbb6d3c2df7826cf6316a,,,,,,611bbb6d3c2df7826cf6316a,Mężczyzna,26,2021-09-06_19h29.45.950,rantool2,2021.1.4,Win32,59.99880002,6135e006383e6ea6c3d06a28,61364fe607d48d63535b1049,"[""comma""]",0,[0.638100000008933],13,0,13,0,1
,,,,,,,611bbb6d3c2df7826cf6316a,,,,,,611bbb6d3c2df7826cf6316a,Mężczyzna,26,2021-09-06_19h29.45.950,rantool2,2021.1.4,Win32,59.99880002,6135e006383e6ea6c3d06a28,61364fe607d48d63535b1049,"[""comma""]",0,[0.2858999999910452],14,0,14,0,1
,,,,,,,611bbb6d3c2df7826cf6316a,,,,,,611bbb6d3c2df7826cf6316a,Mężczyzna,26,2021-09-06_19h29.45.950,rantool2,2021.1.4,Win32,59.99880002,6135e006383e6ea6c3d06a28,61364fe607d48d63535b1049,"[""comma"",""comma""]",0,"[0.25250000000002615,1.8250999999940518]",15,0,15,0,1
,,,,,,,611bbb6d3c2df7826cf6316a,,,,,,611bbb6d3c2df7826cf6316a,Mężczyzna,26,2021-09-06_19h29.45.950,rantool2,2021.1.4,Win32,59.99880002,6135e006383e6ea6c3d06a28,61364fe607d48d63535b1049,"[""comma""]",0,[0.6540999999940311],16,0,16,0,1
,,,,,,,611bbb6d3c2df7826cf6316a,,,,,,611bbb6d3c2df7826cf6316a,Mężczyzna,26,2021-09-06_19h29.45.950,rantool2,2021.1.4,Win32,59.99880002,6135e006383e6ea6c3d06a28,61364fe607d48d63535b1049,"[""comma""]",0,[0.46100000000001273],17,0,17,0,1
,,,,,,,611bbb6d3c2df7826cf6316a,,,,,,611bbb6d3c2df7826cf6316a,Mężczyzna,26,2021-09-06_19h29.45.950,rantool2,2021.1.4,Win32,59.99880002,6135e006383e6ea6c3d06a28,61364fe607d48d63535b1049,"[""comma""]",0,[0.30279999999700635],18,0,18,0,1
,,,,,,,611bbb6d3c2df7826cf6316a,,,,,,611bbb6d3c2df7826cf6316a,Mężczyzna,26,2021-09-06_19h29.45.950,rantool2,2021.1.4,Win32,59.99880002,6135e006383e6ea6c3d06a28,61364fe607d48d63535b1049,"[""comma""]",0,[0.3706000000089489],19,0,19,0,1
,,,,,,,611bbb6d3c2df7826cf6316a,,,,,,611bbb6d3c2df7826cf6316a,Mężczyzna,26,2021-09-06_19h29.45.950,rantool2,2021.1.4,Win32,59.99880002,6135e006383e6ea6c3d06a28,61364fe607d48d63535b1049,"[""comma""]",0,[0.3078000000119232],20,0,20,0,1
,,,,,,,611bbb6d3c2df7826cf6316a,,,,,,611bbb6d3c2df7826cf6316a,Mężczyzna,26,2021-09-06_19h29.45.950,rantool2,2021.1.4,Win32,59.99880002,6135e006383e6ea6c3d06a28,61364fe607d48d63535b1049,"[""comma""]",0,[0.35550000000000637],21,0,21,0,1
,,,,,,,611bbb6d3c2df7826cf6316a,,,,,,611bbb6d3c2df7826cf6316a,Mężczyzna,26,2021-09-06_19h29.45.950,rantool2,2021.1.4,Win32,59.99880002,6135e006383e6ea6c3d06a28,61364fe607d48d63535b1049,"[""comma""]",0,[0.7032999999970571],22,0,22,0,1
,,,,,,,611bbb6d3c2df7826cf6316a,,,,,,611bbb6d3c2df7826cf6316a,Mężczyzna,26,2021-09-06_19h29.45.950,rantool2,2021.1.4,Win32,59.99880002,6135e006383e6ea6c3d06a28,61364fe607d48d63535b1049,"[""comma""]",0,[0.72199999999998],23,0,23,0,1
,,,,,,,611bbb6d3c2df7826cf6316a,,,,,,611bbb6d3c2df7826cf6316a,Mężczyzna,26,2021-09-06_19h29.45.950,rantool2,2021.1.4,Win32,59.99880002,6135e006383e6ea6c3d06a28,61364fe607d48d63535b1049,"[""comma""]",0,[0.5303000000118914],24,0,24,0,1
,,,,,,,611bbb6d3c2df7826cf6316a,,,,,,611bbb6d3c2df7826cf6316a,Mężczyzna,26,2021-09-06_19h29.45.950,rantool2,2021.1.4,Win32,59.99880002,6135e006383e6ea6c3d06a28,61364fe607d48d63535b1049,"[""comma""]",0,[0.37270000000296477],25,0,25,0,1
,,,,,,,611bbb6d3c2df7826cf6316a,,,,,,611bbb6d3c2df7826cf6316a,Mężczyzna,26,2021-09-06_19h29.45.950,rantool2,2021.1.4,Win32,59.99880002,6135e006383e6ea6c3d06a28,61364fe607d48d63535b1049,"[""comma""]",0,[0.15239999999107567],26,0,26,0,1
,,,,,,,611bbb6d3c2df7826cf6316a,,,,,,611bbb6d3c2df7826cf6316a,Mężczyzna,26,2021-09-06_19h29.45.950,rantool2,2021.1.4,Win32,59.99880002,6135e006383e6ea6c3d06a28,61364fe607d48d63535b1049,0,0,,27,0,27,0,1
,,,,,,,611bbb6d3c2df7826cf6316a,,,,,,611bbb6d3c2df7826cf6316a,Mężczyzna,26,2021-09-06_19h29.45.950,rantool2,2021.1.4,Win32,59.99880002,6135e006383e6ea6c3d06a28,61364fe607d48d63535b1049,"[""comma""]",0,[0.9110000000000014],28,0,28,0,1
,,,,,,,611bbb6d3c2df7826cf6316a,,,,,,611bbb6d3c2df7826cf6316a,Mężczyzna,26,2021-09-06_19h29.45.950,rantool2,2021.1.4,Win32,59.99880002,6135e006383e6ea6c3d06a28,61364fe607d48d63535b1049,"[""comma""]",0,[0.2598999999910916],29,0,29,0,1
,,,,,,,611bbb6d3c2df7826cf6316a,,,,,,611bbb6d3c2df7826cf6316a,Mężczyzna,26,2021-09-06_19h29.45.950,rantool2,2021.1.4,Win32,59.99880002,6135e006383e6ea6c3d06a28,61364fe607d48d63535b1049,"[""comma""]",0,[0.1400999999939927],30,0,30,0,1
,,,,,,,611bbb6d3c2df7826cf6316a,,,,,,611bbb6d3c2df7826cf6316a,Mężczyzna,26,2021-09-06_19h29.45.950,rantool2,2021.1.4,Win32,59.99880002,6135e006383e6ea6c3d06a28,61364fe607d48d63535b1049,"[""comma""]",0,[0.05609999999404636],31,0,31,0,1
,,,,,,,611bbb6d3c2df7826cf6316a,,,,,,611bbb6d3c2df7826cf6316a,Mężczyzna,26,2021-09-06_19h29.45.950,rantool2,2021.1.4,Win32,59.99880002,6135e006383e6ea6c3d06a28,61364fe607d48d63535b1049,"[""comma""]",0,[0.09429999999701977],32,0,32,0,1
,,,,,,,611bbb6d3c2df7826cf6316a,,,,,,611bbb6d3c2df7826cf6316a,Mężczyzna,26,2021-09-06_19h29.45.950,rantool2,2021.1.4,Win32,59.99880002,6135e006383e6ea6c3d06a28,61364fe607d48d63535b1049,"[""comma"",""comma""]",0,"[0.4032999999970457,1.7732999999969934]",33,0,33,0,1
,,,,,,,611bbb6d3c2df7826cf6316a,,,,,,611bbb6d3c2df7826cf6316a,Mężczyzna,26,2021-09-06_19h29.45.950,rantool2,2021.1.4,Win32,59.99880002,6135e006383e6ea6c3d06a28,61364fe607d48d63535b1049,"[""comma"",""comma"",""comma"",""comma""]",0,"[0.3862000000029866,0.9426000000089516,1.4162000000029593,1.939700000002972]",34,0,34,0,1
,,,,,,,611bbb6d3c2df7826cf6316a,,,,,,611bbb6d3c2df7826cf6316a,Mężczyzna,26,2021-09-06_19h29.45.950,rantool2,2021.1.4,Win32,59.99880002,6135e006383e6ea6c3d06a28,61364fe607d48d63535b1049,"[""comma"",""comma"",""comma""]",0,"[0.2941000000089389,1.0903000000118936,1.8757000000029507]",35,0,35,0,1
,,,,,,,611bbb6d3c2df7826cf6316a,,,,,,611bbb6d3c2df7826cf6316a,Mężczyzna,26,2021-09-06_19h29.45.950,rantool2,2021.1.4,Win32,59.99880002,6135e006383e6ea6c3d06a28,61364fe607d48d63535b1049,"[""comma"",""comma"",""comma"",""comma""]",0,"[0.2717000000029657,0.6535000000000082,1.3703000000119232,1.7056000000089284]",36,0,36,0,1
,,,,,,,611bbb6d3c2df7826cf6316a,,,,,,611bbb6d3c2df7826cf6316a,Mężczyzna,26,2021-09-06_19h29.45.950,rantool2,2021.1.4,Win32,59.99880002,6135e006383e6ea6c3d06a28,61364fe607d48d63535b1049,"[""comma"",""comma"",""comma"",""comma"",""comma"",""comma""]",0,"[0.018400000005954098,0.3437000000029684,0.7034000000059564,0.9704000000059523,1.2879000000059477,1.6283000000119046]",37,0,37,0,1
,,,,,,,611bbb6d3c2df7826cf6316a,,,,,,611bbb6d3c2df7826cf6316a,Mężczyzna,26,2021-09-06_19h29.45.950,rantool2,2021.1.4,Win32,59.99880002,6135e006383e6ea6c3d06a28,61364fe607d48d63535b1049,"[""comma"",""comma"",""comma"",""comma""]",0,"[0.5272999999970125,0.8757000000030075,1.4872999999970489,1.784099999994055]",38,0,38,0,1
,,,,,,,611bbb6d3c2df7826cf6316a,,,,,,611bbb6d3c2df7826cf6316a,Mężczyzna,26,2021-09-06_19h29.45.950,rantool2,2021.1.4,Win32,59.99880002,6135e006383e6ea6c3d06a28,61364fe607d48d63535b1049,"[""comma"",""comma"",""comma"",""comma"",""comma"",""comma"",""comma""]",0,"[0.03339999999104748,0.2515000000000214,0.518799999997043,0.8125,1.0872000000029516,1.47109999999401,1.7557999999970093]",39,0,39,0,1
,,,,,,,611bbb6d3c2df7826cf6316a,,,,,,611bbb6d3c2df7826cf6316a,Mężczyzna,26,2021-09-06_19h29.45.950,rantool2,2021.1.4,Win32,59.99880002,6135e006383e6ea6c3d06a28,61364fe607d48d63535b1049,"[""comma"",""comma"",""comma"",""comma"",""comma""]",0,"[0.29209999999403635,0.686200000002998,1.0817000000030248,1.4470000000000027,1.8249999999999886]",40,0,40,0,1
,,,,,,,611bbb6d3c2df7826cf6316a,,,,,,611bbb6d3c2df7826cf6316a,Mężczyzna,26,2021-09-06_19h29.45.950,rantool2,2021.1.4,Win32,59.99880002,6135e006383e6ea6c3d06a28,61364fe607d48d63535b1049,"[""comma"",""comma"",""comma"",""comma"",""comma""]",0,"[0.20179999999697884,0.5885999999940168,0.963199999988035,1.343499999999949,1.756099999994035]",41,0,41,0,1
,,,,,,,611bbb6d3c2df7826cf6316a,,,,,,611bbb6d3c2df7826cf6316a,Mężczyzna,26,2021-09-06_19h29.45.950,rantool2,2021.1.4,Win32,59.99880002,6135e006383e6ea6c3d06a28,61364fe607d48d63535b1049,"[""comma"",""comma"",""comma"",""comma"",""comma"",""comma""]",0,"[0.11170000000299751,0.47180000001191047,0.8371000000089452,1.213300000011941,1.589999999999975,1.9448000000119237]",42,0,42,0,1
,,,,,,,611bbb6d3c2df7826cf6316a,,,,,,611bbb6d3c2df7826cf6316a,Mężczyzna,26,2021-09-06_19h29.45.950,rantool2,2021.1.4,Win32,59.99880002,6135e006383e6ea6c3d06a28,61364fe607d48d63535b1049,"[""comma"",""comma"",""comma"",""comma"",""comma""]",0,"[0.3092000000029884,0.7033000000118932,1.1051000000089175,1.4962000000029434,1.8904999999999745]",43,0,43,0,1
,,,,,,,611bbb6d3c2df7826cf6316a,,,,,,611bbb6d3c2df7826cf6316a,Mężczyzna,26,2021-09-06_19h29.45.950,rantool2,2021.1.4,Win32,59.99880002,6135e006383e6ea6c3d06a28,61364fe607d48d63535b1049,"[""comma"",""comma"",""comma"",""comma"",""comma""]",0,"[0.2941000000089389,0.6597999999970057,1.080400000005966,1.461500000000001,1.8662999999970111]",44,0,44,0,1
,,,,,,,611bbb6d3c2df7826cf6316a,,,,,,611bbb6d3c2df7826cf6316a,Mężczyzna,26,2021-09-06_19h29.45.950,rantool2,2021.1.4,Win32,59.99880002,6135e006383e6ea6c3d06a28,61364fe607d48d63535b1049,"[""comma"",""comma"",""comma"",""comma""]",0,"[0.26900000000000546,0.6761999999880572,1.0907999999969888,1.655499999999961]",45,0,45,0,1
,,,,,,,611bbb6d3c2df7826cf6316a,,,,,,611bbb6d3c2df7826cf6316a,Mężczyzna,26,2021-09-06_19h29.45.950,rantool2,2021.1.4,Win32,59.99880002,6135e006383e6ea6c3d06a28,61364fe607d48d63535b1049,"[""comma"",""comma"",""comma"",""comma"",""comma""]",0,"[0.5754000000059705,0.9062000000029684,1.3119000000059486,1.6732000000029643,1.9416000000089184]",46,0,46,0,1
,,,,,,,611bbb6d3c2df7826cf6316a,,,,,,611bbb6d3c2df7826cf6316a,Mężczyzna,26,2021-09-06_19h29.45.950,rantool2,2021.1.4,Win32,59.99880002,6135e006383e6ea6c3d06a28,61364fe607d48d63535b1049,"[""comma"",""comma""]",0,"[0.3865000000000123,0.6755999999940059]",47,0,47,0,1
,,,,,,,611bbb6d3c2df7826cf6316a,,,,,,611bbb6d3c2df7826cf6316a,Mężczyzna,26,2021-09-06_19h29.45.950,rantool2,2021.1.4,Win32,59.99880002,6135e006383e6ea6c3d06a28,61364fe607d48d63535b1049,"[""comma"",""comma"",""comma"",""comma"",""comma"",""comma""]",0,"[0.45840000000600867,0.7385000000000446,0.9618000000119196,1.2412000000030048,1.6157000000030166,1.9128000000119414]",48,0,48,0,1
,,,,,,,611bbb6d3c2df7826cf6316a,,,,,,611bbb6d3c2df7826cf6316a,Mężczyzna,26,2021-09-06_19h29.45.950,rantool2,2021.1.4,Win32,59.99880002,6135e006383e6ea6c3d06a28,61364fe607d48d63535b1049,"[""comma"",""comma"",""comma""]",0,"[0.9535000000000196,1.1872999999970375,1.8394999999999868]",49,0,49,0,1
,,,,,,,611bbb6d3c2df7826cf6316a,,,,,,611bbb6d3c2df7826cf6316a,Mężczyzna,26,2021-09-06_19h29.45.950,rantool2,2021.1.4,Win32,59.99880002,6135e006383e6ea6c3d06a28,61364fe607d48d63535b1049,"[""comma"",""comma"",""comma"",""comma""]",0,"[0.641200000002982,0.9595000000000482,1.2580999999940445,1.473799999997027]",50,0,50,0,1
,,,,,,,611bbb6d3c2df7826cf6316a,,,,,,611bbb6d3c2df7826cf6316a,Mężczyzna,26,2021-09-06_19h29.45.950,rantool2,2021.1.4,Win32,59.99880002,6135e006383e6ea6c3d06a28,61364fe607d48d63535b1049,"[""comma"",""comma"",""comma"",""comma"",""comma""]",0,"[0.6860999999940418,0.9100999999940314,1.069500000000005,1.4076999999880968,1.7261999999880686]",51,0,51,0,1
,,,,,,,611bbb6d3c2df7826cf6316a,,,,,,611bbb6d3c2df7826cf6316a,Mężczyzna,26,2021-09-06_19h29.45.950,rantool2,2021.1.4,Win32,59.99880002,6135e006383e6ea6c3d06a28,61364fe607d48d63535b1049,"[""comma"",""comma"",""comma"",""comma"",""comma""]",0,"[0.0009999999999763531,1.0362000000029639,1.2375000000000114,1.6235999999940418,1.9387000000029389]",52,0,52,0,1
,,,,,,,611bbb6d3c2df7826cf6316a,,,,,,611bbb6d3c2df7826cf6316a,Mężczyzna,26,2021-09-06_19h29.45.950,rantool2,2021.1.4,Win32,59.99880002,6135e006383e6ea6c3d06a28,61364fe607d48d63535b1049,"[""comma"",""comma"",""comma"",""comma"",""comma"",""comma""]",0,"[0.07479999999702613,0.4680999999940241,0.840899999991052,1.472899999991057,1.7052000000030034,1.9108999999910452]",53,0,53,0,1
,,,,,,,611bbb6d3c2df7826cf6316a,,,,,,611bbb6d3c2df7826cf6316a,Mężczyzna,26,2021-09-06_19h29.45.950,rantool2,2021.1.4,Win32,59.99880002,6135e006383e6ea6c3d06a28,61364fe607d48d63535b1049,"[""comma"",""comma"",""comma"",""comma"",""comma"",""comma""]",0,"[0.39699999999999136,0.654700000002947,0.8437999999969747,1.3089000000059627,1.670799999996973,1.8940000000000055]",54,0,54,0,1
,,,,,,,611bbb6d3c2df7826cf6316a,,,,,,611bbb6d3c2df7826cf6316a,Mężczyzna,26,2021-09-06_19h29.45.950,rantool2,2021.1.4,Win32,59.99880002,6135e006383e6ea6c3d06a28,61364fe607d48d63535b1049,"[""comma"",""comma"",""comma"",""comma"",""comma"",""comma"",""comma""]",0,"[0.12390000000596046,0.4720999999940432,0.8212000000029889,1.0294000000059782,1.2607999999970616,1.4879000000059932,1.682299999997042]",55,0,55,0,1
,,,,,,,611bbb6d3c2df7826cf6316a,,,,,,611bbb6d3c2df7826cf6316a,Mężczyzna,26,2021-09-06_19h29.45.950,rantool2,2021.1.4,Win32,59.99880002,6135e006383e6ea6c3d06a28,61364fe607d48d63535b1049,"[""comma"",""comma""]",0,"[1.2205999999940218,1.5975999999940314]",56,0,56,0,1
,,,,,,,611bbb6d3c2df7826cf6316a,,,,,,611bbb6d3c2df7826cf6316a,Mężczyzna,26,2021-09-06_19h29.45.950,rantool2,2021.1.4,Win32,59.99880002,6135e006383e6ea6c3d06a28,61364fe607d48d63535b1049,"[""comma"",""comma""]",0,"[0.0673999999910393,0.5059999999999718]",57,0,57,0,1
,,,,,,,611bbb6d3c2df7826cf6316a,,,,,,611bbb6d3c2df7826cf6316a,Mężczyzna,26,2021-09-06_19h29.45.950,rantool2,2021.1.4,Win32,59.99880002,6135e006383e6ea6c3d06a28,61364fe607d48d63535b1049,"[""comma""]",0,[0.40210000000894297],58,0,58,0,1
,,,,,,,611bbb6d3c2df7826cf6316a,,,,,,611bbb6d3c2df7826cf6316a,Mężczyzna,26,2021-09-06_19h29.45.950,rantool2,2021.1.4,Win32,59.99880002,6135e006383e6ea6c3d06a28,61364fe607d48d63535b1049,"[""comma""]",0,[0.7428000000119255],59,0,59,0,1
,,,,,,,611bbb6d3c2df7826cf6316a,,,,,,611bbb6d3c2df7826cf6316a,Mężczyzna,26,2021-09-06_19h29.45.950,rantool2,2021.1.4,Win32,59.99880002,6135e006383e6ea6c3d06a28,61364fe607d48d63535b1049,"[""comma""]",0,[0.4372000000029743],60,0,60,0,1
,,,,,,,611bbb6d3c2df7826cf6316a,,,,,,611bbb6d3c2df7826cf6316a,Mężczyzna,26,2021-09-06_19h29.45.950,rantool2,2021.1.4,Win32,59.99880002,6135e006383e6ea6c3d06a28,61364fe607d48d63535b1049,"[""comma""]",0,[0.28540000000595],61,0,61,0,1
,,,,,,,611bbb6d3c2df7826cf6316a,,,,,,611bbb6d3c2df7826cf6316a,Mężczyzna,26,2021-09-06_19h29.45.950,rantool2,2021.1.4,Win32,59.99880002,6135e006383e6ea6c3d06a28,61364fe607d48d63535b1049,"[""comma""]",0,[0.5355999999940195],62,0,62,0,1
,,,,,,,611bbb6d3c2df7826cf6316a,,,,,,611bbb6d3c2df7826cf6316a,Mężczyzna,26,2021-09-06_19h29.45.950,rantool2,2021.1.4,Win32,59.99880002,6135e006383e6ea6c3d06a28,61364fe607d48d63535b1049,"[""comma""]",0,[0.40190000000592363],63,0,63,0,1
,,,,,,,611bbb6d3c2df7826cf6316a,,,,,,611bbb6d3c2df7826cf6316a,Mężczyzna,26,2021-09-06_19h29.45.950,rantool2,2021.1.4,Win32,59.99880002,6135e006383e6ea6c3d06a28,61364fe607d48d63535b1049,"[""comma""]",0,[0.2195000000000391],64,0,64,0,1
,,,,,,,611bbb6d3c2df7826cf6316a,,,,,,611bbb6d3c2df7826cf6316a,Mężczyzna,26,2021-09-06_19h29.45.950,rantool2,2021.1.4,Win32,59.99880002,6135e006383e6ea6c3d06a28,61364fe607d48d63535b1049,"[""comma""]",0,[0.31820000000300297],65,0,65,0,1
,,,,,,,611bbb6d3c2df7826cf6316a,,,,,,611bbb6d3c2df7826cf6316a,Mężczyzna,26,2021-09-06_19h29.45.950,rantool2,2021.1.4,Win32,59.99880002,6135e006383e6ea6c3d06a28,61364fe607d48d63535b1049,"[""comma""]",0,[0.34019999998810135],66,0,66,0,1
,,,,,,,611bbb6d3c2df7826cf6316a,,,,,,611bbb6d3c2df7826cf6316a,Mężczyzna,26,2021-09-06_19h29.45.950,rantool2,2021.1.4,Win32,59.99880002,6135e006383e6ea6c3d06a28,61364fe607d48d63535b1049,"[""comma""]",0,[0.2669999999999959],67,0,67,0,1
,,,,,,,611bbb6d3c2df7826cf6316a,,,,,,611bbb6d3c2df7826cf6316a,Mężczyzna,26,2021-09-06_19h29.45.950,rantool2,2021.1.4,Win32,59.99880002,6135e006383e6ea6c3d06a28,61364fe607d48d63535b1049,"[""comma""]",0,[0.1387999999970475],68,0,68,0,1
,,,,,,,611bbb6d3c2df7826cf6316a,,,,,,611bbb6d3c2df7826cf6316a,Mężczyzna,26,2021-09-06_19h29.45.950,rantool2,2021.1.4,Win32,59.99880002,6135e006383e6ea6c3d06a28,61364fe607d48d63535b1049,"[""comma""]",0,[0.27310000000892387],69,0,69,0,1
,,,,,,,611bbb6d3c2df7826cf6316a,,,,,,611bbb6d3c2df7826cf6316a,Mężczyzna,26,2021-09-06_19h29.45.950,rantool2,2021.1.4,Win32,59.99880002,6135e006383e6ea6c3d06a28,61364fe607d48d63535b1049,"[""comma""]",0,[0.2764000000059923],70,0,70,0,1
,,,,,,,611bbb6d3c2df7826cf6316a,,,,,,611bbb6d3c2df7826cf6316a,Mężczyzna,26,2021-09-06_19h29.45.950,rantool2,2021.1.4,Win32,59.99880002,6135e006383e6ea6c3d06a28,61364fe607d48d63535b1049,"[""comma""]",0,[0.2876000000089789],71,0,71,0,1
,,,,,,,611bbb6d3c2df7826cf6316a,,,,,,611bbb6d3c2df7826cf6316a,Mężczyzna,26,2021-09-06_19h29.45.950,rantool2,2021.1.4,Win32,59.99880002,6135e006383e6ea6c3d06a28,61364fe607d48d63535b1049,"[""comma""]",0,[0.3680999999940582],72,0,72,0,1
,,,,,,,611bbb6d3c2df7826cf6316a,,,,,,611bbb6d3c2df7826cf6316a,Mężczyzna,26,2021-09-06_19h29.45.950,rantool2,2021.1.4,Win32,59.99880002,6135e006383e6ea6c3d06a28,61364fe607d48d63535b1049,"[""comma""]",0,[0.5357000000029757],73,0,73,0,1
,,,,,,,611bbb6d3c2df7826cf6316a,,,,,,611bbb6d3c2df7826cf6316a,Mężczyzna,26,2021-09-06_19h29.45.950,rantool2,2021.1.4,Win32,59.99880002,6135e006383e6ea6c3d06a28,61364fe607d48d63535b1049,"[""comma""]",0,[0.36960000000897253],74,0,74,0,1
,,,,,,,611bbb6d3c2df7826cf6316a,,,,,,611bbb6d3c2df7826cf6316a,Mężczyzna,26,2021-09-06_19h29.45.950,rantool2,2021.1.4,Win32,59.99880002,6135e006383e6ea6c3d06a28,61364fe607d48d63535b1049,"[""comma""]",0,[0.9593000000119218],75,0,75,0,1
,,,,,,,611bbb6d3c2df7826cf6316a,,,,,,611bbb6d3c2df7826cf6316a,Mężczyzna,26,2021-09-06_19h29.45.950,rantool2,2021.1.4,Win32,59.99880002,6135e006383e6ea6c3d06a28,61364fe607d48d63535b1049,"[""comma"",""comma""]",0,"[0.24670000000298842,1.8829999999999814]",76,0,76,0,1
,,,,,,,611bbb6d3c2df7826cf6316a,,,,,,611bbb6d3c2df7826cf6316a,Mężczyzna,26,2021-09-06_19h29.45.950,rantool2,2021.1.4,Win32,59.99880002,6135e006383e6ea6c3d06a28,61364fe607d48d63535b1049,0,0,,77,0,77,0,1
,,,,,,,611bbb6d3c2df7826cf6316a,,,,,,611bbb6d3c2df7826cf6316a,Mężczyzna,26,2021-09-06_19h29.45.950,rantool2,2021.1.4,Win32,59.99880002,6135e006383e6ea6c3d06a28,61364fe607d48d63535b1049,"[""comma""]",0,[0.30140000000596956],78,0,78,0,1
,,,,,,,611bbb6d3c2df7826cf6316a,,,,,,611bbb6d3c2df7826cf6316a,Mężczyzna,26,2021-09-06_19h29.45.950,rantool2,2021.1.4,Win32,59.99880002,6135e006383e6ea6c3d06a28,61364fe607d48d63535b1049,"[""comma""]",0,[0.3236000000089234],79,0,79,0,1
,,,,,,,611bbb6d3c2df7826cf6316a,,,,,,611bbb6d3c2df7826cf6316a,Mężczyzna,26,2021-09-06_19h29.45.950,rantool2,2021.1.4,Win32,59.99880002,6135e006383e6ea6c3d06a28,61364fe607d48d63535b1049,"[""comma""]",0,[0.3072999999969852],80,0,80,0,1
,,,,,,,611bbb6d3c2df7826cf6316a,,,,,,611bbb6d3c2df7826cf6316a,Mężczyzna,26,2021-09-06_19h29.45.950,rantool2,2021.1.4,Win32,59.99880002,6135e006383e6ea6c3d06a28,61364fe607d48d63535b1049,"[""comma""]",0,[0.31880000001189046],81,0,81,0,1
,,,,,,,611bbb6d3c2df7826cf6316a,,,,,,611bbb6d3c2df7826cf6316a,Mężczyzna,26,2021-09-06_19h29.45.950,rantool2,2021.1.4,Win32,59.99880002,6135e006383e6ea6c3d06a28,61364fe607d48d63535b1049,"[""comma""]",0,[0.2869999999999777],82,0,82,0,1
,,,,,,,611bbb6d3c2df7826cf6316a,,,,,,611bbb6d3c2df7826cf6316a,Mężczyzna,26,2021-09-06_19h29.45.950,rantool2,2021.1.4,Win32,59.99880002,6135e006383e6ea6c3d06a28,61364fe607d48d63535b1049,"[""comma""]",0,[0.4053999999910616],83,0,83,0,1
,,,,,,,611bbb6d3c2df7826cf6316a,,,,,,611bbb6d3c2df7826cf6316a,Mężczyzna,26,2021-09-06_19h29.45.950,rantool2,2021.1.4,Win32,59.99880002,6135e006383e6ea6c3d06a28,61364fe607d48d63535b1049,"[""comma""]",0,[0.12179999999699476],84,0,84,0,1
,,,,,,,611bbb6d3c2df7826cf6316a,,,,,,611bbb6d3c2df7826cf6316a,Mężczyzna,26,2021-09-06_19h29.45.950,rantool2,2021.1.4,Win32,59.99880002,6135e006383e6ea6c3d06a28,61364fe607d48d63535b1049,"[""comma""]",0,[0.3137999999970589],85,0,85,0,1
,,,,,,,611bbb6d3c2df7826cf6316a,,,,,,611bbb6d3c2df7826cf6316a,Mężczyzna,26,2021-09-06_19h29.45.950,rantool2,2021.1.4,Win32,59.99880002,6135e006383e6ea6c3d06a28,61364fe607d48d63535b1049,"[""comma""]",0,[0.2847999999970625],86,0,86,0,1
,,,,,,,611bbb6d3c2df7826cf6316a,,,,,,611bbb6d3c2df7826cf6316a,Mężczyzna,26,2021-09-06_19h29.45.950,rantool2,2021.1.4,Win32,59.99880002,6135e006383e6ea6c3d06a28,61364fe607d48d63535b1049,"[""comma""]",0,[0.2855000000000132],87,0,87,0,1
,,,,,,,611bbb6d3c2df7826cf6316a,,,,,,611bbb6d3c2df7826cf6316a,Mężczyzna,26,2021-09-06_19h29.45.950,rantool2,2021.1.4,Win32,59.99880002,6135e006383e6ea6c3d06a28,61364fe607d48d63535b1049,"[""comma""]",0,[0.4422000000029698],88,0,88,0,1
,,,,,,,611bbb6d3c2df7826cf6316a,,,,,,611bbb6d3c2df7826cf6316a,Mężczyzna,26,2021-09-06_19h29.45.950,rantool2,2021.1.4,Win32,59.99880002,6135e006383e6ea6c3d06a28,61364fe607d48d63535b1049,"[""comma""]",0,[0.2542000000029816],89,0,89,0,1
,,,,,,,611bbb6d3c2df7826cf6316a,,,,,,611bbb6d3c2df7826cf6316a,Mężczyzna,26,2021-09-06_19h29.45.950,rantool2,2021.1.4,Win32,59.99880002,6135e006383e6ea6c3d06a28,61364fe607d48d63535b1049,"[""comma"",""comma""]",0,"[-0.016099999994025893,1.8279999999999745]",90,0,90,0,1
,,,,,,,611bbb6d3c2df7826cf6316a,,,,,,611bbb6d3c2df7826cf6316a,Mężczyzna,26,2021-09-06_19h29.45.950,rantool2,2021.1.4,Win32,59.99880002,6135e006383e6ea6c3d06a28,61364fe607d48d63535b1049,"[""comma""]",0,[1.871900000005951],91,0,91,0,1
,,,,,,,611bbb6d3c2df7826cf6316a,,,,,,611bbb6d3c2df7826cf6316a,Mężczyzna,26,2021-09-06_19h29.45.950,rantool2,2021.1.4,Win32,59.99880002,6135e006383e6ea6c3d06a28,61364fe607d48d63535b1049,"[""comma""]",0,[1.8675000000000068],92,0,92,0,1
,,,,,,,611bbb6d3c2df7826cf6316a,,,,,,611bbb6d3c2df7826cf6316a,Mężczyzna,26,2021-09-06_19h29.45.950,rantool2,2021.1.4,Win32,59.99880002,6135e006383e6ea6c3d06a28,61364fe607d48d63535b1049,"[""comma""]",0,[1.7216999999880613],93,0,93,0,1
,,,,,,,611bbb6d3c2df7826cf6316a,,,,,,611bbb6d3c2df7826cf6316a,Mężczyzna,26,2021-09-06_19h29.45.950,rantool2,2021.1.4,Win32,59.99880002,6135e006383e6ea6c3d06a28,61364fe607d48d63535b1049,"[""comma""]",0,[0.10139999999103111],94,0,94,0,1
,,,,,,,611bbb6d3c2df7826cf6316a,,,,,,611bbb6d3c2df7826cf6316a,Mężczyzna,26,2021-09-06_19h29.45.950,rantool2,2021.1.4,Win32,59.99880002,6135e006383e6ea6c3d06a28,61364fe607d48d63535b1049,"[""comma""]",0,[0.6167999999969993],95,0,95,0,1
,,,,,,,611bbb6d3c2df7826cf6316a,,,,,,611bbb6d3c2df7826cf6316a,Mężczyzna,26,2021-09-06_19h29.45.950,rantool2,2021.1.4,Win32,59.99880002,6135e006383e6ea6c3d06a28,61364fe607d48d63535b1049,"[""comma""]",0,[1.2875000000000227],96,0,96,0,1
,,,,,,,611bbb6d3c2df7826cf6316a,,,,,,611bbb6d3c2df7826cf6316a,Mężczyzna,26,2021-09-06_19h29.45.950,rantool2,2021.1.4,Win32,59.99880002,6135e006383e6ea6c3d06a28,61364fe607d48d63535b1049,0,0,,97,0,97,0,1
,,,,,,,611bbb6d3c2df7826cf6316a,,,,,,611bbb6d3c2df7826cf6316a,Mężczyzna,26,2021-09-06_19h29.45.950,rantool2,2021.1.4,Win32,59.99880002,6135e006383e6ea6c3d06a28,61364fe607d48d63535b1049,"[""comma""]",0,[1.684000000000026],98,0,98,0,1
,,,,,,,611bbb6d3c2df7826cf6316a,,,,,,611bbb6d3c2df7826cf6316a,Mężczyzna,26,2021-09-06_19h29.45.950,rantool2,2021.1.4,Win32,59.99880002,6135e006383e6ea6c3d06a28,61364fe607d48d63535b1049,0,0,,99,0,99,0,1
,,,,,,,611bbb6d3c2df7826cf6316a,,,,,,611bbb6d3c2df7826cf6316a,Mężczyzna,26,2021-09-06_19h29.45.950,rantool2,2021.1.4,Win32,59.99880002,6135e006383e6ea6c3d06a28,61364fe607d48d63535b1049,"[""comma""]",0,[0.08639999999104475],100,0,100,0,1
,,,,,,,611bbb6d3c2df7826cf6316a,,,,,,611bbb6d3c2df7826cf6316a,Mężczyzna,26,2021-09-06_19h29.45.950,rantool2,2021.1.4,Win32,59.99880002,6135e006383e6ea6c3d06a28,61364fe607d48d63535b1049,"[""comma""]",0,[0.4391999999880909],101,0,101,0,1
,,,,,,,611bbb6d3c2df7826cf6316a,,,,,,611bbb6d3c2df7826cf6316a,Mężczyzna,26,2021-09-06_19h29.45.950,rantool2,2021.1.4,Win32,59.99880002,6135e006383e6ea6c3d06a28,61364fe607d48d63535b1049,"[""comma""]",0,[0.4851000000089698],102,0,102,0,1
,,,,,,,611bbb6d3c2df7826cf6316a,,,,,,611bbb6d3c2df7826cf6316a,Mężczyzna,26,2021-09-06_19h29.45.950,rantool2,2021.1.4,Win32,59.99880002,6135e006383e6ea6c3d06a28,61364fe607d48d63535b1049,"[""comma""]",0,[0.29160000000894115],103,0,103,0,1
,,,,,,,611bbb6d3c2df7826cf6316a,,,,,,611bbb6d3c2df7826cf6316a,Mężczyzna,26,2021-09-06_19h29.45.950,rantool2,2021.1.4,Win32,59.99880002,6135e006383e6ea6c3d06a28,61364fe607d48d63535b1049,"[""comma""]",0,[0.5369999999999777],104,0,104,0,1
,,,,,,,611bbb6d3c2df7826cf6316a,,,,,,611bbb6d3c2df7826cf6316a,Mężczyzna,26,2021-09-06_19h29.45.950,rantool2,2021.1.4,Win32,59.99880002,6135e006383e6ea6c3d06a28,61364fe607d48d63535b1049,"[""comma""]",0,[0.5020000000000095],105,0,105,0,1
,,,,,,,611bbb6d3c2df7826cf6316a,,,,,,611bbb6d3c2df7826cf6316a,Mężczyzna,26,2021-09-06_19h29.45.950,rantool2,2021.1.4,Win32,59.99880002,6135e006383e6ea6c3d06a28,61364fe607d48d63535b1049,"[""comma""]",0,[1.3434000000059996],106,0,106,0,1
,,,,,,,611bbb6d3c2df7826cf6316a,,,,,,611bbb6d3c2df7826cf6316a,Mężczyzna,26,2021-09-06_19h29.45.950,rantool2,2021.1.4,Win32,59.99880002,6135e006383e6ea6c3d06a28,61364fe607d48d63535b1049,"[""comma""]",0,[0.12239999999104612],107,0,107,0,1
,,,,,,,611bbb6d3c2df7826cf6316a,,,,,,611bbb6d3c2df7826cf6316a,Mężczyzna,26,2021-09-06_19h29.45.950,rantool2,2021.1.4,Win32,59.99880002,6135e006383e6ea6c3d06a28,61364fe607d48d63535b1049,"[""comma""]",0,[0.34789999999105703],108,0,108,0,1
,,,,,,,611bbb6d3c2df7826cf6316a,,,,,,611bbb6d3c2df7826cf6316a,Mężczyzna,26,2021-09-06_19h29.45.950,rantool2,2021.1.4,Win32,59.99880002,6135e006383e6ea6c3d06a28,61364fe607d48d63535b1049,"[""comma""]",0,[0.02190000000598502],109,0,109,0,1
,,,,,,,611bbb6d3c2df7826cf6316a,,,,,,611bbb6d3c2df7826cf6316a,Mężczyzna,26,2021-09-06_19h29.45.950,rantool2,2021.1.4,Win32,59.99880002,6135e006383e6ea6c3d06a28,61364fe607d48d63535b1049,"[""comma""]",0,[0.3039999999999736],110,0,110,0,1
,,,,,,,611bbb6d3c2df7826cf6316a,,,,,,611bbb6d3c2df7826cf6316a,Mężczyzna,26,2021-09-06_19h29.45.950,rantool2,2021.1.4,Win32,59.99880002,6135e006383e6ea6c3d06a28,61364fe607d48d63535b1049,"[""comma""]",0,[0.3353999999910684],111,0,111,0,1
,,,,,,,611bbb6d3c2df7826cf6316a,,,,,,611bbb6d3c2df7826cf6316a,Mężczyzna,26,2021-09-06_19h29.45.950,rantool2,2021.1.4,Win32,59.99880002,6135e006383e6ea6c3d06a28,61364fe607d48d63535b1049,"[""comma"",""comma""]",0,"[-0.015600000008930692,0.5020999999940159]",112,0,112,0,1
,,,,,,,611bbb6d3c2df7826cf6316a,,,,,,611bbb6d3c2df7826cf6316a,Mężczyzna,26,2021-09-06_19h29.45.950,rantool2,2021.1.4,Win32,59.99880002,6135e006383e6ea6c3d06a28,61364fe607d48d63535b1049,"[""comma""]",0,[0.707600000008938],113,0,113,0,1
,,,,,,,611bbb6d3c2df7826cf6316a,,,,,,611bbb6d3c2df7826cf6316a,Mężczyzna,26,2021-09-06_19h29.45.950,rantool2,2021.1.4,Win32,59.99880002,6135e006383e6ea6c3d06a28,61364fe607d48d63535b1049,0,0,,114,0,114,0,1
,,,,,,,611bbb6d3c2df7826cf6316a,,,,,,611bbb6d3c2df7826cf6316a,Mężczyzna,26,2021-09-06_19h29.45.950,rantool2,2021.1.4,Win32,59.99880002,6135e006383e6ea6c3d06a28,61364fe607d48d63535b1049,"[""comma""]",0,[0.4915999999940368],115,0,115,0,1
,,,,,,,611bbb6d3c2df7826cf6316a,,,,,,611bbb6d3c2df7826cf6316a,Mężczyzna,26,2021-09-06_19h29.45.950,rantool2,2021.1.4,Win32,59.99880002,6135e006383e6ea6c3d06a28,61364fe607d48d63535b1049,"[""comma""]",0,[0.8610000000000468],116,0,116,0,1
,,,,,,,611bbb6d3c2df7826cf6316a,,,,,,611bbb6d3c2df7826cf6316a,Mężczyzna,26,2021-09-06_19h29.45.950,rantool2,2021.1.4,Win32,59.99880002,6135e006383e6ea6c3d06a28,61364fe607d48d63535b1049,"[""comma""]",0,[0.6194000000059532],117,0,117,0,1
,,,,,,,611bbb6d3c2df7826cf6316a,,,,,,611bbb6d3c2df7826cf6316a,Mężczyzna,26,2021-09-06_19h29.45.950,rantool2,2021.1.4,Win32,59.99880002,6135e006383e6ea6c3d06a28,61364fe607d48d63535b1049,"[""comma""]",0,[0.6260000000000332],118,0,118,0,1
,,,,,,,611bbb6d3c2df7826cf6316a,,,,,,611bbb6d3c2df7826cf6316a,Mężczyzna,26,2021-09-06_19h29.45.950,rantool2,2021.1.4,Win32,59.99880002,6135e006383e6ea6c3d06a28,61364fe607d48d63535b1049,"[""comma""]",0,[0.41940000000596456],119,0,119,0,1
