key_resp_5.keys,key_resp_5.corr,key_resp_5.rt,trials.thisRepN,trials.thisTrialN,trials.thisN,trials.thisIndex,trials.ran,id*,Płeć*,Wiek*,date,expName,psychopyVersion,OS,frameRate,id,STUDY_ID,SESSION_ID,key_resp_7.keys,key_resp_7.rt,trials_2.thisRepN,trials_2.thisTrialN,trials_2.thisN,trials_2.thisIndex,trials_2.ran,series_0,series_1,acss_0,acss_1,comparison
"[""comma""]",0,[1.581900000000374],0,0,0,0,1,602bd71f0c9b4a3976391c50,Mężczyzna,20,2021-07-13_21h58.29.154,rantool2,2021.1.4,Win32,59.91970759,602bd71f0c9b4a3976391c50,60d9d14f4a8a35a482e0d9bf,60edeffbcdb781f7ada5fba3,,,,,,,,,,,,
"[""period""]",0,[1.1777000000011242],1,0,1,0,1,602bd71f0c9b4a3976391c50,Mężczyzna,20,2021-07-13_21h58.29.154,rantool2,2021.1.4,Win32,59.91970759,602bd71f0c9b4a3976391c50,60d9d14f4a8a35a482e0d9bf,60edeffbcdb781f7ada5fba3,,,,,,,,,,,,
"[""period""]",0,[1.5599000000003684],2,0,2,0,1,602bd71f0c9b4a3976391c50,Mężczyzna,20,2021-07-13_21h58.29.154,rantool2,2021.1.4,Win32,59.91970759,602bd71f0c9b4a3976391c50,60d9d14f4a8a35a482e0d9bf,60edeffbcdb781f7ada5fba3,,,,,,,,,,,,
"[""period""]",0,[1.534900000000377],3,0,3,0,1,602bd71f0c9b4a3976391c50,Mężczyzna,20,2021-07-13_21h58.29.154,rantool2,2021.1.4,Win32,59.91970759,602bd71f0c9b4a3976391c50,60d9d14f4a8a35a482e0d9bf,60edeffbcdb781f7ada5fba3,,,,,,,,,,,,
"[""comma""]",0,[1.3512999999988722],4,0,4,0,1,602bd71f0c9b4a3976391c50,Mężczyzna,20,2021-07-13_21h58.29.154,rantool2,2021.1.4,Win32,59.91970759,602bd71f0c9b4a3976391c50,60d9d14f4a8a35a482e0d9bf,60edeffbcdb781f7ada5fba3,,,,,,,,,,,,
"[""period""]",0,[1.1247000000011127],5,0,5,0,1,602bd71f0c9b4a3976391c50,Mężczyzna,20,2021-07-13_21h58.29.154,rantool2,2021.1.4,Win32,59.91970759,602bd71f0c9b4a3976391c50,60d9d14f4a8a35a482e0d9bf,60edeffbcdb781f7ada5fba3,,,,,,,,,,,,
"[""comma""]",0,[0.2998999999985017],6,0,6,0,1,602bd71f0c9b4a3976391c50,Mężczyzna,20,2021-07-13_21h58.29.154,rantool2,2021.1.4,Win32,59.91970759,602bd71f0c9b4a3976391c50,60d9d14f4a8a35a482e0d9bf,60edeffbcdb781f7ada5fba3,,,,,,,,,,,,
"[""period""]",0,[0.1651999999992455],7,0,7,0,1,602bd71f0c9b4a3976391c50,Mężczyzna,20,2021-07-13_21h58.29.154,rantool2,2021.1.4,Win32,59.91970759,602bd71f0c9b4a3976391c50,60d9d14f4a8a35a482e0d9bf,60edeffbcdb781f7ada5fba3,,,,,,,,,,,,
"[""comma""]",0,[0.4124999999999943],8,0,8,0,1,602bd71f0c9b4a3976391c50,Mężczyzna,20,2021-07-13_21h58.29.154,rantool2,2021.1.4,Win32,59.91970759,602bd71f0c9b4a3976391c50,60d9d14f4a8a35a482e0d9bf,60edeffbcdb781f7ada5fba3,,,,,,,,,,,,
"[""period""]",0,[0.8775999999996174],9,0,9,0,1,602bd71f0c9b4a3976391c50,Mężczyzna,20,2021-07-13_21h58.29.154,rantool2,2021.1.4,Win32,59.91970759,602bd71f0c9b4a3976391c50,60d9d14f4a8a35a482e0d9bf,60edeffbcdb781f7ada5fba3,,,,,,,,,,,,
"[""comma""]",0,[1.0076999999992609],10,0,10,0,1,602bd71f0c9b4a3976391c50,Mężczyzna,20,2021-07-13_21h58.29.154,rantool2,2021.1.4,Win32,59.91970759,602bd71f0c9b4a3976391c50,60d9d14f4a8a35a482e0d9bf,60edeffbcdb781f7ada5fba3,,,,,,,,,,,,
"[""comma""]",0,[1.1189999999999998],11,0,11,0,1,602bd71f0c9b4a3976391c50,Mężczyzna,20,2021-07-13_21h58.29.154,rantool2,2021.1.4,Win32,59.91970759,602bd71f0c9b4a3976391c50,60d9d14f4a8a35a482e0d9bf,60edeffbcdb781f7ada5fba3,,,,,,,,,,,,
"[""comma""]",0,[1.0211999999992543],12,0,12,0,1,602bd71f0c9b4a3976391c50,Mężczyzna,20,2021-07-13_21h58.29.154,rantool2,2021.1.4,Win32,59.91970759,602bd71f0c9b4a3976391c50,60d9d14f4a8a35a482e0d9bf,60edeffbcdb781f7ada5fba3,,,,,,,,,,,,
"[""period""]",0,[0.7754999999999939],13,0,13,0,1,602bd71f0c9b4a3976391c50,Mężczyzna,20,2021-07-13_21h58.29.154,rantool2,2021.1.4,Win32,59.91970759,602bd71f0c9b4a3976391c50,60d9d14f4a8a35a482e0d9bf,60edeffbcdb781f7ada5fba3,,,,,,,,,,,,
"[""period""]",0,[1.0826999999992495],14,0,14,0,1,602bd71f0c9b4a3976391c50,Mężczyzna,20,2021-07-13_21h58.29.154,rantool2,2021.1.4,Win32,59.91970759,602bd71f0c9b4a3976391c50,60d9d14f4a8a35a482e0d9bf,60edeffbcdb781f7ada5fba3,,,,,,,,,,,,
"[""comma""]",0,[0.9001999999992591],15,0,15,0,1,602bd71f0c9b4a3976391c50,Mężczyzna,20,2021-07-13_21h58.29.154,rantool2,2021.1.4,Win32,59.91970759,602bd71f0c9b4a3976391c50,60d9d14f4a8a35a482e0d9bf,60edeffbcdb781f7ada5fba3,,,,,,,,,,,,
"[""period""]",0,[0.7025000000000006],16,0,16,0,1,602bd71f0c9b4a3976391c50,Mężczyzna,20,2021-07-13_21h58.29.154,rantool2,2021.1.4,Win32,59.91970759,602bd71f0c9b4a3976391c50,60d9d14f4a8a35a482e0d9bf,60edeffbcdb781f7ada5fba3,,,,,,,,,,,,
"[""period""]",0,[0.6706999999992576],17,0,17,0,1,602bd71f0c9b4a3976391c50,Mężczyzna,20,2021-07-13_21h58.29.154,rantool2,2021.1.4,Win32,59.91970759,602bd71f0c9b4a3976391c50,60d9d14f4a8a35a482e0d9bf,60edeffbcdb781f7ada5fba3,,,,,,,,,,,,
"[""comma""]",0,[0.871900000000366],18,0,18,0,1,602bd71f0c9b4a3976391c50,Mężczyzna,20,2021-07-13_21h58.29.154,rantool2,2021.1.4,Win32,59.91970759,602bd71f0c9b4a3976391c50,60d9d14f4a8a35a482e0d9bf,60edeffbcdb781f7ada5fba3,,,,,,,,,,,,
"[""comma""]",0,[0.9191000000014924],19,0,19,0,1,602bd71f0c9b4a3976391c50,Mężczyzna,20,2021-07-13_21h58.29.154,rantool2,2021.1.4,Win32,59.91970759,602bd71f0c9b4a3976391c50,60d9d14f4a8a35a482e0d9bf,60edeffbcdb781f7ada5fba3,,,,,,,,,,,,
"[""comma""]",0,[0.8291000000015032],20,0,20,0,1,602bd71f0c9b4a3976391c50,Mężczyzna,20,2021-07-13_21h58.29.154,rantool2,2021.1.4,Win32,59.91970759,602bd71f0c9b4a3976391c50,60d9d14f4a8a35a482e0d9bf,60edeffbcdb781f7ada5fba3,,,,,,,,,,,,
"[""period""]",0,[0.732300000000734],21,0,21,0,1,602bd71f0c9b4a3976391c50,Mężczyzna,20,2021-07-13_21h58.29.154,rantool2,2021.1.4,Win32,59.91970759,602bd71f0c9b4a3976391c50,60d9d14f4a8a35a482e0d9bf,60edeffbcdb781f7ada5fba3,,,,,,,,,,,,
"[""period""]",0,[0.9508000000007399],22,0,22,0,1,602bd71f0c9b4a3976391c50,Mężczyzna,20,2021-07-13_21h58.29.154,rantool2,2021.1.4,Win32,59.91970759,602bd71f0c9b4a3976391c50,60d9d14f4a8a35a482e0d9bf,60edeffbcdb781f7ada5fba3,,,,,,,,,,,,
"[""period""]",0,[0.8070000000000022],23,0,23,0,1,602bd71f0c9b4a3976391c50,Mężczyzna,20,2021-07-13_21h58.29.154,rantool2,2021.1.4,Win32,59.91970759,602bd71f0c9b4a3976391c50,60d9d14f4a8a35a482e0d9bf,60edeffbcdb781f7ada5fba3,,,,,,,,,,,,
"[""comma""]",0,[0.6372999999988878],24,0,24,0,1,602bd71f0c9b4a3976391c50,Mężczyzna,20,2021-07-13_21h58.29.154,rantool2,2021.1.4,Win32,59.91970759,602bd71f0c9b4a3976391c50,60d9d14f4a8a35a482e0d9bf,60edeffbcdb781f7ada5fba3,,,,,,,,,,,,
"[""period""]",0,[0.7265000000000015],25,0,25,0,1,602bd71f0c9b4a3976391c50,Mężczyzna,20,2021-07-13_21h58.29.154,rantool2,2021.1.4,Win32,59.91970759,602bd71f0c9b4a3976391c50,60d9d14f4a8a35a482e0d9bf,60edeffbcdb781f7ada5fba3,,,,,,,,,,,,
"[""comma""]",0,[1.0646999999992488],26,0,26,0,1,602bd71f0c9b4a3976391c50,Mężczyzna,20,2021-07-13_21h58.29.154,rantool2,2021.1.4,Win32,59.91970759,602bd71f0c9b4a3976391c50,60d9d14f4a8a35a482e0d9bf,60edeffbcdb781f7ada5fba3,,,,,,,,,,,,
"[""period""]",0,[0.9723000000007431],27,0,27,0,1,602bd71f0c9b4a3976391c50,Mężczyzna,20,2021-07-13_21h58.29.154,rantool2,2021.1.4,Win32,59.91970759,602bd71f0c9b4a3976391c50,60d9d14f4a8a35a482e0d9bf,60edeffbcdb781f7ada5fba3,,,,,,,,,,,,
"[""period""]",0,[0.9902999999988822],28,0,28,0,1,602bd71f0c9b4a3976391c50,Mężczyzna,20,2021-07-13_21h58.29.154,rantool2,2021.1.4,Win32,59.91970759,602bd71f0c9b4a3976391c50,60d9d14f4a8a35a482e0d9bf,60edeffbcdb781f7ada5fba3,,,,,,,,,,,,
"[""comma""]",0,[1.1225999999996361],29,0,29,0,1,602bd71f0c9b4a3976391c50,Mężczyzna,20,2021-07-13_21h58.29.154,rantool2,2021.1.4,Win32,59.91970759,602bd71f0c9b4a3976391c50,60d9d14f4a8a35a482e0d9bf,60edeffbcdb781f7ada5fba3,,,,,,,,,,,,
"[""comma""]",0,[1.0766999999992493],30,0,30,0,1,602bd71f0c9b4a3976391c50,Mężczyzna,20,2021-07-13_21h58.29.154,rantool2,2021.1.4,Win32,59.91970759,602bd71f0c9b4a3976391c50,60d9d14f4a8a35a482e0d9bf,60edeffbcdb781f7ada5fba3,,,,,,,,,,,,
"[""period""]",0,[1.018000000000015],31,0,31,0,1,602bd71f0c9b4a3976391c50,Mężczyzna,20,2021-07-13_21h58.29.154,rantool2,2021.1.4,Win32,59.91970759,602bd71f0c9b4a3976391c50,60d9d14f4a8a35a482e0d9bf,60edeffbcdb781f7ada5fba3,,,,,,,,,,,,
"[""period""]",0,[0.8360999999996181],32,0,32,0,1,602bd71f0c9b4a3976391c50,Mężczyzna,20,2021-07-13_21h58.29.154,rantool2,2021.1.4,Win32,59.91970759,602bd71f0c9b4a3976391c50,60d9d14f4a8a35a482e0d9bf,60edeffbcdb781f7ada5fba3,,,,,,,,,,,,
"[""comma""]",0,[0.9084999999999752],33,0,33,0,1,602bd71f0c9b4a3976391c50,Mężczyzna,20,2021-07-13_21h58.29.154,rantool2,2021.1.4,Win32,59.91970759,602bd71f0c9b4a3976391c50,60d9d14f4a8a35a482e0d9bf,60edeffbcdb781f7ada5fba3,,,,,,,,,,,,
"[""period""]",0,[0.8596999999992647],34,0,34,0,1,602bd71f0c9b4a3976391c50,Mężczyzna,20,2021-07-13_21h58.29.154,rantool2,2021.1.4,Win32,59.91970759,602bd71f0c9b4a3976391c50,60d9d14f4a8a35a482e0d9bf,60edeffbcdb781f7ada5fba3,,,,,,,,,,,,
"[""comma""]",0,[0.7869000000003723],35,0,35,0,1,602bd71f0c9b4a3976391c50,Mężczyzna,20,2021-07-13_21h58.29.154,rantool2,2021.1.4,Win32,59.91970759,602bd71f0c9b4a3976391c50,60d9d14f4a8a35a482e0d9bf,60edeffbcdb781f7ada5fba3,,,,,,,,,,,,
"[""period""]",0,[0.32520000000113214],36,0,36,0,1,602bd71f0c9b4a3976391c50,Mężczyzna,20,2021-07-13_21h58.29.154,rantool2,2021.1.4,Win32,59.91970759,602bd71f0c9b4a3976391c50,60d9d14f4a8a35a482e0d9bf,60edeffbcdb781f7ada5fba3,,,,,,,,,,,,
"[""comma""]",0,[0.3254000000003714],37,0,37,0,1,602bd71f0c9b4a3976391c50,Mężczyzna,20,2021-07-13_21h58.29.154,rantool2,2021.1.4,Win32,59.91970759,602bd71f0c9b4a3976391c50,60d9d14f4a8a35a482e0d9bf,60edeffbcdb781f7ada5fba3,,,,,,,,,,,,
"[""period""]",0,[0.3139000000003591],38,0,38,0,1,602bd71f0c9b4a3976391c50,Mężczyzna,20,2021-07-13_21h58.29.154,rantool2,2021.1.4,Win32,59.91970759,602bd71f0c9b4a3976391c50,60d9d14f4a8a35a482e0d9bf,60edeffbcdb781f7ada5fba3,,,,,,,,,,,,
"[""period""]",0,[0.27709999999962065],39,0,39,0,1,602bd71f0c9b4a3976391c50,Mężczyzna,20,2021-07-13_21h58.29.154,rantool2,2021.1.4,Win32,59.91970759,602bd71f0c9b4a3976391c50,60d9d14f4a8a35a482e0d9bf,60edeffbcdb781f7ada5fba3,,,,,,,,,,,,
"[""period""]",0,[0.6950000000000216],40,0,40,0,1,602bd71f0c9b4a3976391c50,Mężczyzna,20,2021-07-13_21h58.29.154,rantool2,2021.1.4,Win32,59.91970759,602bd71f0c9b4a3976391c50,60d9d14f4a8a35a482e0d9bf,60edeffbcdb781f7ada5fba3,,,,,,,,,,,,
"[""comma""]",0,[0.5763000000007423],41,0,41,0,1,602bd71f0c9b4a3976391c50,Mężczyzna,20,2021-07-13_21h58.29.154,rantool2,2021.1.4,Win32,59.91970759,602bd71f0c9b4a3976391c50,60d9d14f4a8a35a482e0d9bf,60edeffbcdb781f7ada5fba3,,,,,,,,,,,,
"[""period""]",0,[1.1596000000014897],42,0,42,0,1,602bd71f0c9b4a3976391c50,Mężczyzna,20,2021-07-13_21h58.29.154,rantool2,2021.1.4,Win32,59.91970759,602bd71f0c9b4a3976391c50,60d9d14f4a8a35a482e0d9bf,60edeffbcdb781f7ada5fba3,,,,,,,,,,,,
"[""period""]",0,[1.3517999999988888],43,0,43,0,1,602bd71f0c9b4a3976391c50,Mężczyzna,20,2021-07-13_21h58.29.154,rantool2,2021.1.4,Win32,59.91970759,602bd71f0c9b4a3976391c50,60d9d14f4a8a35a482e0d9bf,60edeffbcdb781f7ada5fba3,,,,,,,,,,,,
"[""comma""]",0,[1.3734000000003732],44,0,44,0,1,602bd71f0c9b4a3976391c50,Mężczyzna,20,2021-07-13_21h58.29.154,rantool2,2021.1.4,Win32,59.91970759,602bd71f0c9b4a3976391c50,60d9d14f4a8a35a482e0d9bf,60edeffbcdb781f7ada5fba3,,,,,,,,,,,,
"[""period""]",0,[1.1163999999984924],45,0,45,0,1,602bd71f0c9b4a3976391c50,Mężczyzna,20,2021-07-13_21h58.29.154,rantool2,2021.1.4,Win32,59.91970759,602bd71f0c9b4a3976391c50,60d9d14f4a8a35a482e0d9bf,60edeffbcdb781f7ada5fba3,,,,,,,,,,,,
"[""comma""]",0,[1.0524000000003753],46,0,46,0,1,602bd71f0c9b4a3976391c50,Mężczyzna,20,2021-07-13_21h58.29.154,rantool2,2021.1.4,Win32,59.91970759,602bd71f0c9b4a3976391c50,60d9d14f4a8a35a482e0d9bf,60edeffbcdb781f7ada5fba3,,,,,,,,,,,,
"[""comma""]",0,[1.0469000000003632],47,0,47,0,1,602bd71f0c9b4a3976391c50,Mężczyzna,20,2021-07-13_21h58.29.154,rantool2,2021.1.4,Win32,59.91970759,602bd71f0c9b4a3976391c50,60d9d14f4a8a35a482e0d9bf,60edeffbcdb781f7ada5fba3,,,,,,,,,,,,
"[""period""]",0,[1.0181999999992684],48,0,48,0,1,602bd71f0c9b4a3976391c50,Mężczyzna,20,2021-07-13_21h58.29.154,rantool2,2021.1.4,Win32,59.91970759,602bd71f0c9b4a3976391c50,60d9d14f4a8a35a482e0d9bf,60edeffbcdb781f7ada5fba3,,,,,,,,,,,,
"[""comma""]",0,[1.0035000000000025],49,0,49,0,1,602bd71f0c9b4a3976391c50,Mężczyzna,20,2021-07-13_21h58.29.154,rantool2,2021.1.4,Win32,59.91970759,602bd71f0c9b4a3976391c50,60d9d14f4a8a35a482e0d9bf,60edeffbcdb781f7ada5fba3,,,,,,,,,,,,
"[""comma""]",0,[0.9997000000010985],50,0,50,0,1,602bd71f0c9b4a3976391c50,Mężczyzna,20,2021-07-13_21h58.29.154,rantool2,2021.1.4,Win32,59.91970759,602bd71f0c9b4a3976391c50,60d9d14f4a8a35a482e0d9bf,60edeffbcdb781f7ada5fba3,,,,,,,,,,,,
"[""period""]",0,[1.0677000000011105],51,0,51,0,1,602bd71f0c9b4a3976391c50,Mężczyzna,20,2021-07-13_21h58.29.154,rantool2,2021.1.4,Win32,59.91970759,602bd71f0c9b4a3976391c50,60d9d14f4a8a35a482e0d9bf,60edeffbcdb781f7ada5fba3,,,,,,,,,,,,
"[""period""]",0,[1.0481999999992695],52,0,52,0,1,602bd71f0c9b4a3976391c50,Mężczyzna,20,2021-07-13_21h58.29.154,rantool2,2021.1.4,Win32,59.91970759,602bd71f0c9b4a3976391c50,60d9d14f4a8a35a482e0d9bf,60edeffbcdb781f7ada5fba3,,,,,,,,,,,,
"[""period""]",0,[1.006099999999634],53,0,53,0,1,602bd71f0c9b4a3976391c50,Mężczyzna,20,2021-07-13_21h58.29.154,rantool2,2021.1.4,Win32,59.91970759,602bd71f0c9b4a3976391c50,60d9d14f4a8a35a482e0d9bf,60edeffbcdb781f7ada5fba3,,,,,,,,,,,,
"[""comma""]",0,[1.0595999999996195],54,0,54,0,1,602bd71f0c9b4a3976391c50,Mężczyzna,20,2021-07-13_21h58.29.154,rantool2,2021.1.4,Win32,59.91970759,602bd71f0c9b4a3976391c50,60d9d14f4a8a35a482e0d9bf,60edeffbcdb781f7ada5fba3,,,,,,,,,,,,
"[""period""]",0,[0.8619000000003609],55,0,55,0,1,602bd71f0c9b4a3976391c50,Mężczyzna,20,2021-07-13_21h58.29.154,rantool2,2021.1.4,Win32,59.91970759,602bd71f0c9b4a3976391c50,60d9d14f4a8a35a482e0d9bf,60edeffbcdb781f7ada5fba3,,,,,,,,,,,,
"[""period""]",0,[0.9110999999996352],56,0,56,0,1,602bd71f0c9b4a3976391c50,Mężczyzna,20,2021-07-13_21h58.29.154,rantool2,2021.1.4,Win32,59.91970759,602bd71f0c9b4a3976391c50,60d9d14f4a8a35a482e0d9bf,60edeffbcdb781f7ada5fba3,,,,,,,,,,,,
"[""comma""]",0,[0.6934000000003664],57,0,57,0,1,602bd71f0c9b4a3976391c50,Mężczyzna,20,2021-07-13_21h58.29.154,rantool2,2021.1.4,Win32,59.91970759,602bd71f0c9b4a3976391c50,60d9d14f4a8a35a482e0d9bf,60edeffbcdb781f7ada5fba3,,,,,,,,,,,,
"[""period""]",0,[0.2788000000007571],58,0,58,0,1,602bd71f0c9b4a3976391c50,Mężczyzna,20,2021-07-13_21h58.29.154,rantool2,2021.1.4,Win32,59.91970759,602bd71f0c9b4a3976391c50,60d9d14f4a8a35a482e0d9bf,60edeffbcdb781f7ada5fba3,,,,,,,,,,,,
"[""comma""]",0,[0.36299999999999955],59,0,59,0,1,602bd71f0c9b4a3976391c50,Mężczyzna,20,2021-07-13_21h58.29.154,rantool2,2021.1.4,Win32,59.91970759,602bd71f0c9b4a3976391c50,60d9d14f4a8a35a482e0d9bf,60edeffbcdb781f7ada5fba3,,,,,,,,,,,,
"[""period""]",0,[1.0038000000007514],60,0,60,0,1,602bd71f0c9b4a3976391c50,Mężczyzna,20,2021-07-13_21h58.29.154,rantool2,2021.1.4,Win32,59.91970759,602bd71f0c9b4a3976391c50,60d9d14f4a8a35a482e0d9bf,60edeffbcdb781f7ada5fba3,,,,,,,,,,,,
"[""comma""]",0,[0.7801000000015108],61,0,61,0,1,602bd71f0c9b4a3976391c50,Mężczyzna,20,2021-07-13_21h58.29.154,rantool2,2021.1.4,Win32,59.91970759,602bd71f0c9b4a3976391c50,60d9d14f4a8a35a482e0d9bf,60edeffbcdb781f7ada5fba3,,,,,,,,,,,,
"[""comma""]",0,[0.678700000001129],62,0,62,0,1,602bd71f0c9b4a3976391c50,Mężczyzna,20,2021-07-13_21h58.29.154,rantool2,2021.1.4,Win32,59.91970759,602bd71f0c9b4a3976391c50,60d9d14f4a8a35a482e0d9bf,60edeffbcdb781f7ada5fba3,,,,,,,,,,,,
"[""comma""]",0,[0.8658000000007462],63,0,63,0,1,602bd71f0c9b4a3976391c50,Mężczyzna,20,2021-07-13_21h58.29.154,rantool2,2021.1.4,Win32,59.91970759,602bd71f0c9b4a3976391c50,60d9d14f4a8a35a482e0d9bf,60edeffbcdb781f7ada5fba3,,,,,,,,,,,,
"[""period""]",0,[0.6899999999999977],64,0,64,0,1,602bd71f0c9b4a3976391c50,Mężczyzna,20,2021-07-13_21h58.29.154,rantool2,2021.1.4,Win32,59.91970759,602bd71f0c9b4a3976391c50,60d9d14f4a8a35a482e0d9bf,60edeffbcdb781f7ada5fba3,,,,,,,,,,,,
"[""period""]",0,[0.3882999999988783],65,0,65,0,1,602bd71f0c9b4a3976391c50,Mężczyzna,20,2021-07-13_21h58.29.154,rantool2,2021.1.4,Win32,59.91970759,602bd71f0c9b4a3976391c50,60d9d14f4a8a35a482e0d9bf,60edeffbcdb781f7ada5fba3,,,,,,,,,,,,
"[""comma""]",0,[0.26959999999962747],66,0,66,0,1,602bd71f0c9b4a3976391c50,Mężczyzna,20,2021-07-13_21h58.29.154,rantool2,2021.1.4,Win32,59.91970759,602bd71f0c9b4a3976391c50,60d9d14f4a8a35a482e0d9bf,60edeffbcdb781f7ada5fba3,,,,,,,,,,,,
"[""comma""]",0,[0.46190000000035525],67,0,67,0,1,602bd71f0c9b4a3976391c50,Mężczyzna,20,2021-07-13_21h58.29.154,rantool2,2021.1.4,Win32,59.91970759,602bd71f0c9b4a3976391c50,60d9d14f4a8a35a482e0d9bf,60edeffbcdb781f7ada5fba3,,,,,,,,,,,,
"[""period""]",0,[0.5525000000000091],68,0,68,0,1,602bd71f0c9b4a3976391c50,Mężczyzna,20,2021-07-13_21h58.29.154,rantool2,2021.1.4,Win32,59.91970759,602bd71f0c9b4a3976391c50,60d9d14f4a8a35a482e0d9bf,60edeffbcdb781f7ada5fba3,,,,,,,,,,,,
"[""period""]",0,[0.5035000000000025],69,0,69,0,1,602bd71f0c9b4a3976391c50,Mężczyzna,20,2021-07-13_21h58.29.154,rantool2,2021.1.4,Win32,59.91970759,602bd71f0c9b4a3976391c50,60d9d14f4a8a35a482e0d9bf,60edeffbcdb781f7ada5fba3,,,,,,,,,,,,
"[""period""]",0,[0.5343000000007407],70,0,70,0,1,602bd71f0c9b4a3976391c50,Mężczyzna,20,2021-07-13_21h58.29.154,rantool2,2021.1.4,Win32,59.91970759,602bd71f0c9b4a3976391c50,60d9d14f4a8a35a482e0d9bf,60edeffbcdb781f7ada5fba3,,,,,,,,,,,,
"[""period""]",0,[0.4705999999996493],71,0,71,0,1,602bd71f0c9b4a3976391c50,Mężczyzna,20,2021-07-13_21h58.29.154,rantool2,2021.1.4,Win32,59.91970759,602bd71f0c9b4a3976391c50,60d9d14f4a8a35a482e0d9bf,60edeffbcdb781f7ada5fba3,,,,,,,,,,,,
"[""period""]",0,[0.28590000000039595],72,0,72,0,1,602bd71f0c9b4a3976391c50,Mężczyzna,20,2021-07-13_21h58.29.154,rantool2,2021.1.4,Win32,59.91970759,602bd71f0c9b4a3976391c50,60d9d14f4a8a35a482e0d9bf,60edeffbcdb781f7ada5fba3,,,,,,,,,,,,
"[""comma""]",0,[0.3541999999992811],73,0,73,0,1,602bd71f0c9b4a3976391c50,Mężczyzna,20,2021-07-13_21h58.29.154,rantool2,2021.1.4,Win32,59.91970759,602bd71f0c9b4a3976391c50,60d9d14f4a8a35a482e0d9bf,60edeffbcdb781f7ada5fba3,,,,,,,,,,,,
"[""comma""]",0,[0.26869999999925653],74,0,74,0,1,602bd71f0c9b4a3976391c50,Mężczyzna,20,2021-07-13_21h58.29.154,rantool2,2021.1.4,Win32,59.91970759,602bd71f0c9b4a3976391c50,60d9d14f4a8a35a482e0d9bf,60edeffbcdb781f7ada5fba3,,,,,,,,,,,,
"[""period""]",0,[0.46269999999927336],75,0,75,0,1,602bd71f0c9b4a3976391c50,Mężczyzna,20,2021-07-13_21h58.29.154,rantool2,2021.1.4,Win32,59.91970759,602bd71f0c9b4a3976391c50,60d9d14f4a8a35a482e0d9bf,60edeffbcdb781f7ada5fba3,,,,,,,,,,,,
"[""comma""]",0,[0.46409999999960405],76,0,76,0,1,602bd71f0c9b4a3976391c50,Mężczyzna,20,2021-07-13_21h58.29.154,rantool2,2021.1.4,Win32,59.91970759,602bd71f0c9b4a3976391c50,60d9d14f4a8a35a482e0d9bf,60edeffbcdb781f7ada5fba3,,,,,,,,,,,,
"[""comma""]",0,[0.5413000000007457],77,0,77,0,1,602bd71f0c9b4a3976391c50,Mężczyzna,20,2021-07-13_21h58.29.154,rantool2,2021.1.4,Win32,59.91970759,602bd71f0c9b4a3976391c50,60d9d14f4a8a35a482e0d9bf,60edeffbcdb781f7ada5fba3,,,,,,,,,,,,
"[""comma""]",0,[0.5734999999999957],78,0,78,0,1,602bd71f0c9b4a3976391c50,Mężczyzna,20,2021-07-13_21h58.29.154,rantool2,2021.1.4,Win32,59.91970759,602bd71f0c9b4a3976391c50,60d9d14f4a8a35a482e0d9bf,60edeffbcdb781f7ada5fba3,,,,,,,,,,,,
"[""comma""]",0,[0.4436999999992679],79,0,79,0,1,602bd71f0c9b4a3976391c50,Mężczyzna,20,2021-07-13_21h58.29.154,rantool2,2021.1.4,Win32,59.91970759,602bd71f0c9b4a3976391c50,60d9d14f4a8a35a482e0d9bf,60edeffbcdb781f7ada5fba3,,,,,,,,,,,,
"[""period""]",0,[0.3348000000007403],80,0,80,0,1,602bd71f0c9b4a3976391c50,Mężczyzna,20,2021-07-13_21h58.29.154,rantool2,2021.1.4,Win32,59.91970759,602bd71f0c9b4a3976391c50,60d9d14f4a8a35a482e0d9bf,60edeffbcdb781f7ada5fba3,,,,,,,,,,,,
"[""period""]",0,[0.26110000000147693],81,0,81,0,1,602bd71f0c9b4a3976391c50,Mężczyzna,20,2021-07-13_21h58.29.154,rantool2,2021.1.4,Win32,59.91970759,602bd71f0c9b4a3976391c50,60d9d14f4a8a35a482e0d9bf,60edeffbcdb781f7ada5fba3,,,,,,,,,,,,
"[""comma""]",0,[0.4052000000011162],82,0,82,0,1,602bd71f0c9b4a3976391c50,Mężczyzna,20,2021-07-13_21h58.29.154,rantool2,2021.1.4,Win32,59.91970759,602bd71f0c9b4a3976391c50,60d9d14f4a8a35a482e0d9bf,60edeffbcdb781f7ada5fba3,,,,,,,,,,,,
"[""comma""]",0,[0.4237000000011051],83,0,83,0,1,602bd71f0c9b4a3976391c50,Mężczyzna,20,2021-07-13_21h58.29.154,rantool2,2021.1.4,Win32,59.91970759,602bd71f0c9b4a3976391c50,60d9d14f4a8a35a482e0d9bf,60edeffbcdb781f7ada5fba3,,,,,,,,,,,,
"[""period""]",0,[0.3687999999988847],84,0,84,0,1,602bd71f0c9b4a3976391c50,Mężczyzna,20,2021-07-13_21h58.29.154,rantool2,2021.1.4,Win32,59.91970759,602bd71f0c9b4a3976391c50,60d9d14f4a8a35a482e0d9bf,60edeffbcdb781f7ada5fba3,,,,,,,,,,,,
"[""comma""]",0,[0.5355999999996186],85,0,85,0,1,602bd71f0c9b4a3976391c50,Mężczyzna,20,2021-07-13_21h58.29.154,rantool2,2021.1.4,Win32,59.91970759,602bd71f0c9b4a3976391c50,60d9d14f4a8a35a482e0d9bf,60edeffbcdb781f7ada5fba3,,,,,,,,,,,,
"[""period""]",0,[0.4594000000003575],86,0,86,0,1,602bd71f0c9b4a3976391c50,Mężczyzna,20,2021-07-13_21h58.29.154,rantool2,2021.1.4,Win32,59.91970759,602bd71f0c9b4a3976391c50,60d9d14f4a8a35a482e0d9bf,60edeffbcdb781f7ada5fba3,,,,,,,,,,,,
"[""comma""]",0,[0.8736999999992463],87,0,87,0,1,602bd71f0c9b4a3976391c50,Mężczyzna,20,2021-07-13_21h58.29.154,rantool2,2021.1.4,Win32,59.91970759,602bd71f0c9b4a3976391c50,60d9d14f4a8a35a482e0d9bf,60edeffbcdb781f7ada5fba3,,,,,,,,,,,,
"[""period""]",0,[0.5320999999996161],88,0,88,0,1,602bd71f0c9b4a3976391c50,Mężczyzna,20,2021-07-13_21h58.29.154,rantool2,2021.1.4,Win32,59.91970759,602bd71f0c9b4a3976391c50,60d9d14f4a8a35a482e0d9bf,60edeffbcdb781f7ada5fba3,,,,,,,,,,,,
"[""comma""]",0,[0.34169999999926404],89,0,89,0,1,602bd71f0c9b4a3976391c50,Mężczyzna,20,2021-07-13_21h58.29.154,rantool2,2021.1.4,Win32,59.91970759,602bd71f0c9b4a3976391c50,60d9d14f4a8a35a482e0d9bf,60edeffbcdb781f7ada5fba3,,,,,,,,,,,,
"[""comma""]",0,[0.2771999999992545],90,0,90,0,1,602bd71f0c9b4a3976391c50,Mężczyzna,20,2021-07-13_21h58.29.154,rantool2,2021.1.4,Win32,59.91970759,602bd71f0c9b4a3976391c50,60d9d14f4a8a35a482e0d9bf,60edeffbcdb781f7ada5fba3,,,,,,,,,,,,
"[""comma""]",0,[0.22669999999925494],91,0,91,0,1,602bd71f0c9b4a3976391c50,Mężczyzna,20,2021-07-13_21h58.29.154,rantool2,2021.1.4,Win32,59.91970759,602bd71f0c9b4a3976391c50,60d9d14f4a8a35a482e0d9bf,60edeffbcdb781f7ada5fba3,,,,,,,,,,,,
"[""period""]",0,[0.21180000000074983],92,0,92,0,1,602bd71f0c9b4a3976391c50,Mężczyzna,20,2021-07-13_21h58.29.154,rantool2,2021.1.4,Win32,59.91970759,602bd71f0c9b4a3976391c50,60d9d14f4a8a35a482e0d9bf,60edeffbcdb781f7ada5fba3,,,,,,,,,,,,
"[""period""]",0,[0.8759999999999764],93,0,93,0,1,602bd71f0c9b4a3976391c50,Mężczyzna,20,2021-07-13_21h58.29.154,rantool2,2021.1.4,Win32,59.91970759,602bd71f0c9b4a3976391c50,60d9d14f4a8a35a482e0d9bf,60edeffbcdb781f7ada5fba3,,,,,,,,,,,,
"[""period""]",0,[0.5094000000003689],94,0,94,0,1,602bd71f0c9b4a3976391c50,Mężczyzna,20,2021-07-13_21h58.29.154,rantool2,2021.1.4,Win32,59.91970759,602bd71f0c9b4a3976391c50,60d9d14f4a8a35a482e0d9bf,60edeffbcdb781f7ada5fba3,,,,,,,,,,,,
"[""comma""]",0,[0.41159999999959496],95,0,95,0,1,602bd71f0c9b4a3976391c50,Mężczyzna,20,2021-07-13_21h58.29.154,rantool2,2021.1.4,Win32,59.91970759,602bd71f0c9b4a3976391c50,60d9d14f4a8a35a482e0d9bf,60edeffbcdb781f7ada5fba3,,,,,,,,,,,,
"[""period""]",0,[0.31709999999958427],96,0,96,0,1,602bd71f0c9b4a3976391c50,Mężczyzna,20,2021-07-13_21h58.29.154,rantool2,2021.1.4,Win32,59.91970759,602bd71f0c9b4a3976391c50,60d9d14f4a8a35a482e0d9bf,60edeffbcdb781f7ada5fba3,,,,,,,,,,,,
"[""period""]",0,[0.27030000000075916],97,0,97,0,1,602bd71f0c9b4a3976391c50,Mężczyzna,20,2021-07-13_21h58.29.154,rantool2,2021.1.4,Win32,59.91970759,602bd71f0c9b4a3976391c50,60d9d14f4a8a35a482e0d9bf,60edeffbcdb781f7ada5fba3,,,,,,,,,,,,
"[""period""]",0,[0.27359999999964657],98,0,98,0,1,602bd71f0c9b4a3976391c50,Mężczyzna,20,2021-07-13_21h58.29.154,rantool2,2021.1.4,Win32,59.91970759,602bd71f0c9b4a3976391c50,60d9d14f4a8a35a482e0d9bf,60edeffbcdb781f7ada5fba3,,,,,,,,,,,,
"[""period""]",0,[0.28940000000039845],99,0,99,0,1,602bd71f0c9b4a3976391c50,Mężczyzna,20,2021-07-13_21h58.29.154,rantool2,2021.1.4,Win32,59.91970759,602bd71f0c9b4a3976391c50,60d9d14f4a8a35a482e0d9bf,60edeffbcdb781f7ada5fba3,,,,,,,,,,,,
"[""comma""]",0,[0.2867000000010762],100,0,100,0,1,602bd71f0c9b4a3976391c50,Mężczyzna,20,2021-07-13_21h58.29.154,rantool2,2021.1.4,Win32,59.91970759,602bd71f0c9b4a3976391c50,60d9d14f4a8a35a482e0d9bf,60edeffbcdb781f7ada5fba3,,,,,,,,,,,,
"[""comma""]",0,[0.4391999999992322],101,0,101,0,1,602bd71f0c9b4a3976391c50,Mężczyzna,20,2021-07-13_21h58.29.154,rantool2,2021.1.4,Win32,59.91970759,602bd71f0c9b4a3976391c50,60d9d14f4a8a35a482e0d9bf,60edeffbcdb781f7ada5fba3,,,,,,,,,,,,
"[""comma""]",0,[0.6684000000003607],102,0,102,0,1,602bd71f0c9b4a3976391c50,Mężczyzna,20,2021-07-13_21h58.29.154,rantool2,2021.1.4,Win32,59.91970759,602bd71f0c9b4a3976391c50,60d9d14f4a8a35a482e0d9bf,60edeffbcdb781f7ada5fba3,,,,,,,,,,,,
"[""comma""]",0,[0.45759999999961565],103,0,103,0,1,602bd71f0c9b4a3976391c50,Mężczyzna,20,2021-07-13_21h58.29.154,rantool2,2021.1.4,Win32,59.91970759,602bd71f0c9b4a3976391c50,60d9d14f4a8a35a482e0d9bf,60edeffbcdb781f7ada5fba3,,,,,,,,,,,,
"[""period""]",0,[0.15379999999885285],104,0,104,0,1,602bd71f0c9b4a3976391c50,Mężczyzna,20,2021-07-13_21h58.29.154,rantool2,2021.1.4,Win32,59.91970759,602bd71f0c9b4a3976391c50,60d9d14f4a8a35a482e0d9bf,60edeffbcdb781f7ada5fba3,,,,,,,,,,,,
"[""period""]",0,[0.3420999999996184],105,0,105,0,1,602bd71f0c9b4a3976391c50,Mężczyzna,20,2021-07-13_21h58.29.154,rantool2,2021.1.4,Win32,59.91970759,602bd71f0c9b4a3976391c50,60d9d14f4a8a35a482e0d9bf,60edeffbcdb781f7ada5fba3,,,,,,,,,,,,
"[""comma""]",0,[0.3803999999985308],106,0,106,0,1,602bd71f0c9b4a3976391c50,Mężczyzna,20,2021-07-13_21h58.29.154,rantool2,2021.1.4,Win32,59.91970759,602bd71f0c9b4a3976391c50,60d9d14f4a8a35a482e0d9bf,60edeffbcdb781f7ada5fba3,,,,,,,,,,,,
"[""period""]",0,[0.4348000000007346],107,0,107,0,1,602bd71f0c9b4a3976391c50,Mężczyzna,20,2021-07-13_21h58.29.154,rantool2,2021.1.4,Win32,59.91970759,602bd71f0c9b4a3976391c50,60d9d14f4a8a35a482e0d9bf,60edeffbcdb781f7ada5fba3,,,,,,,,,,,,
"[""comma""]",0,[0.32090000000039254],108,0,108,0,1,602bd71f0c9b4a3976391c50,Mężczyzna,20,2021-07-13_21h58.29.154,rantool2,2021.1.4,Win32,59.91970759,602bd71f0c9b4a3976391c50,60d9d14f4a8a35a482e0d9bf,60edeffbcdb781f7ada5fba3,,,,,,,,,,,,
"[""comma""]",0,[0.283900000000358],109,0,109,0,1,602bd71f0c9b4a3976391c50,Mężczyzna,20,2021-07-13_21h58.29.154,rantool2,2021.1.4,Win32,59.91970759,602bd71f0c9b4a3976391c50,60d9d14f4a8a35a482e0d9bf,60edeffbcdb781f7ada5fba3,,,,,,,,,,,,
"[""period""]",0,[0.39719999999925903],110,0,110,0,1,602bd71f0c9b4a3976391c50,Mężczyzna,20,2021-07-13_21h58.29.154,rantool2,2021.1.4,Win32,59.91970759,602bd71f0c9b4a3976391c50,60d9d14f4a8a35a482e0d9bf,60edeffbcdb781f7ada5fba3,,,,,,,,,,,,
"[""comma""]",0,[0.36540000000036343],111,0,111,0,1,602bd71f0c9b4a3976391c50,Mężczyzna,20,2021-07-13_21h58.29.154,rantool2,2021.1.4,Win32,59.91970759,602bd71f0c9b4a3976391c50,60d9d14f4a8a35a482e0d9bf,60edeffbcdb781f7ada5fba3,,,,,,,,,,,,
"[""comma""]",0,[0.33880000000073096],112,0,112,0,1,602bd71f0c9b4a3976391c50,Mężczyzna,20,2021-07-13_21h58.29.154,rantool2,2021.1.4,Win32,59.91970759,602bd71f0c9b4a3976391c50,60d9d14f4a8a35a482e0d9bf,60edeffbcdb781f7ada5fba3,,,,,,,,,,,,
"[""period""]",0,[0.2760999999996443],113,0,113,0,1,602bd71f0c9b4a3976391c50,Mężczyzna,20,2021-07-13_21h58.29.154,rantool2,2021.1.4,Win32,59.91970759,602bd71f0c9b4a3976391c50,60d9d14f4a8a35a482e0d9bf,60edeffbcdb781f7ada5fba3,,,,,,,,,,,,
"[""period""]",0,[0.3742000000011103],114,0,114,0,1,602bd71f0c9b4a3976391c50,Mężczyzna,20,2021-07-13_21h58.29.154,rantool2,2021.1.4,Win32,59.91970759,602bd71f0c9b4a3976391c50,60d9d14f4a8a35a482e0d9bf,60edeffbcdb781f7ada5fba3,,,,,,,,,,,,
"[""period""]",0,[0.44650000000001455],115,0,115,0,1,602bd71f0c9b4a3976391c50,Mężczyzna,20,2021-07-13_21h58.29.154,rantool2,2021.1.4,Win32,59.91970759,602bd71f0c9b4a3976391c50,60d9d14f4a8a35a482e0d9bf,60edeffbcdb781f7ada5fba3,,,,,,,,,,,,
"[""comma""]",0,[0.29590000000035843],116,0,116,0,1,602bd71f0c9b4a3976391c50,Mężczyzna,20,2021-07-13_21h58.29.154,rantool2,2021.1.4,Win32,59.91970759,602bd71f0c9b4a3976391c50,60d9d14f4a8a35a482e0d9bf,60edeffbcdb781f7ada5fba3,,,,,,,,,,,,
"[""comma""]",0,[0.40020000000112077],117,0,117,0,1,602bd71f0c9b4a3976391c50,Mężczyzna,20,2021-07-13_21h58.29.154,rantool2,2021.1.4,Win32,59.91970759,602bd71f0c9b4a3976391c50,60d9d14f4a8a35a482e0d9bf,60edeffbcdb781f7ada5fba3,,,,,,,,,,,,
"[""period""]",0,[0.3515000000000441],118,0,118,0,1,602bd71f0c9b4a3976391c50,Mężczyzna,20,2021-07-13_21h58.29.154,rantool2,2021.1.4,Win32,59.91970759,602bd71f0c9b4a3976391c50,60d9d14f4a8a35a482e0d9bf,60edeffbcdb781f7ada5fba3,,,,,,,,,,,,
"[""period""]",0,[0.4033000000007405],119,0,119,0,1,602bd71f0c9b4a3976391c50,Mężczyzna,20,2021-07-13_21h58.29.154,rantool2,2021.1.4,Win32,59.91970759,602bd71f0c9b4a3976391c50,60d9d14f4a8a35a482e0d9bf,60edeffbcdb781f7ada5fba3,,,,,,,,,,,,
,,,,,,,,602bd71f0c9b4a3976391c50,Mężczyzna,20,2021-07-13_21h58.29.154,rantool2,2021.1.4,Win32,59.91970759,602bd71f0c9b4a3976391c50,60d9d14f4a8a35a482e0d9bf,60edeffbcdb781f7ada5fba3,j,2.9482,0,0,0,25,1,ORROORO,ORROORR,21.79500819,22.61624387,series_1
,,,,,,,,602bd71f0c9b4a3976391c50,Mężczyzna,20,2021-07-13_21h58.29.154,rantool2,2021.1.4,Win32,59.91970759,602bd71f0c9b4a3976391c50,60d9d14f4a8a35a482e0d9bf,60edeffbcdb781f7ada5fba3,f,3.1775,0,1,1,38,1,ROORROO,ROORROR,21.79500819,21.36812781,series_0
,,,,,,,,602bd71f0c9b4a3976391c50,Mężczyzna,20,2021-07-13_21h58.29.154,rantool2,2021.1.4,Win32,59.91970759,602bd71f0c9b4a3976391c50,60d9d14f4a8a35a482e0d9bf,60edeffbcdb781f7ada5fba3,j,2.805,0,2,2,30,1,ORRRROO,ORRRROR,22.46748491,22.03072203,series_0
,,,,,,,,602bd71f0c9b4a3976391c50,Mężczyzna,20,2021-07-13_21h58.29.154,rantool2,2021.1.4,Win32,59.91970759,602bd71f0c9b4a3976391c50,60d9d14f4a8a35a482e0d9bf,60edeffbcdb781f7ada5fba3,f,3.1,0,3,3,36,1,ROOROOO,ROOROOR,21.07991943,20.9984461,series_0
,,,,,,,,602bd71f0c9b4a3976391c50,Mężczyzna,20,2021-07-13_21h58.29.154,rantool2,2021.1.4,Win32,59.91970759,602bd71f0c9b4a3976391c50,60d9d14f4a8a35a482e0d9bf,60edeffbcdb781f7ada5fba3,j,2.4257,0,4,4,32,1,ROOOOOO,ROOOOOR,19.92253567,21.27974287,series_1
,,,,,,,,602bd71f0c9b4a3976391c50,Mężczyzna,20,2021-07-13_21h58.29.154,rantool2,2021.1.4,Win32,59.91970759,602bd71f0c9b4a3976391c50,60d9d14f4a8a35a482e0d9bf,60edeffbcdb781f7ada5fba3,f,1.9956,0,5,5,16,1,OROOOOO,OROOOOR,20.43051175,21.17347734,series_1
,,,,,,,,602bd71f0c9b4a3976391c50,Mężczyzna,20,2021-07-13_21h58.29.154,rantool2,2021.1.4,Win32,59.91970759,602bd71f0c9b4a3976391c50,60d9d14f4a8a35a482e0d9bf,60edeffbcdb781f7ada5fba3,j,1.9243,0,6,6,61,1,RRRRORO,RRRRORR,21.81333602,21.17347734,series_0
,,,,,,,,602bd71f0c9b4a3976391c50,Mężczyzna,20,2021-07-13_21h58.29.154,rantool2,2021.1.4,Win32,59.91970759,602bd71f0c9b4a3976391c50,60d9d14f4a8a35a482e0d9bf,60edeffbcdb781f7ada5fba3,f,1.8349,0,7,7,27,1,ORRORRO,ORRORRR,21.55250791,22.2428857,series_1
,,,,,,,,602bd71f0c9b4a3976391c50,Mężczyzna,20,2021-07-13_21h58.29.154,rantool2,2021.1.4,Win32,59.91970759,602bd71f0c9b4a3976391c50,60d9d14f4a8a35a482e0d9bf,60edeffbcdb781f7ada5fba3,f,2.0994,0,8,8,60,1,RRRROOO,RRRROOR,22.10108823,22.15934078,series_1
,,,,,,,,602bd71f0c9b4a3976391c50,Mężczyzna,20,2021-07-13_21h58.29.154,rantool2,2021.1.4,Win32,59.91970759,602bd71f0c9b4a3976391c50,60d9d14f4a8a35a482e0d9bf,60edeffbcdb781f7ada5fba3,j,3.5206,0,9,9,43,1,RORORRO,RORORRR,20.71309134,21.07490964,series_1
,,,,,,,,602bd71f0c9b4a3976391c50,Mężczyzna,20,2021-07-13_21h58.29.154,rantool2,2021.1.4,Win32,59.91970759,602bd71f0c9b4a3976391c50,60d9d14f4a8a35a482e0d9bf,60edeffbcdb781f7ada5fba3,j,3.2573,0,10,10,51,1,RROORRO,RROORRR,21.89852628,22.02786418,series_1
,,,,,,,,602bd71f0c9b4a3976391c50,Mężczyzna,20,2021-07-13_21h58.29.154,rantool2,2021.1.4,Win32,59.91970759,602bd71f0c9b4a3976391c50,60d9d14f4a8a35a482e0d9bf,60edeffbcdb781f7ada5fba3,f,2.6453,0,11,11,34,1,ROOOROO,ROOOROR,21.03750787,21.24781509,series_1
,,,,,,,,602bd71f0c9b4a3976391c50,Mężczyzna,20,2021-07-13_21h58.29.154,rantool2,2021.1.4,Win32,59.91970759,602bd71f0c9b4a3976391c50,60d9d14f4a8a35a482e0d9bf,60edeffbcdb781f7ada5fba3,f,1.6682,0,12,12,33,1,ROOOORO,ROOOORR,20.83779602,22.03072203,series_1
,,,,,,,,602bd71f0c9b4a3976391c50,Mężczyzna,20,2021-07-13_21h58.29.154,rantool2,2021.1.4,Win32,59.91970759,602bd71f0c9b4a3976391c50,60d9d14f4a8a35a482e0d9bf,60edeffbcdb781f7ada5fba3,f,3.7484,0,13,13,53,1,RRORORO,RRORORR,20.71309134,21.90565814,series_1
,,,,,,,,602bd71f0c9b4a3976391c50,Mężczyzna,20,2021-07-13_21h58.29.154,rantool2,2021.1.4,Win32,59.91970759,602bd71f0c9b4a3976391c50,60d9d14f4a8a35a482e0d9bf,60edeffbcdb781f7ada5fba3,j,3.2596,0,14,14,18,1,OROOROO,OROOROR,20.84860893,21.22513037,series_1
,,,,,,,,602bd71f0c9b4a3976391c50,Mężczyzna,20,2021-07-13_21h58.29.154,rantool2,2021.1.4,Win32,59.91970759,602bd71f0c9b4a3976391c50,60d9d14f4a8a35a482e0d9bf,60edeffbcdb781f7ada5fba3,j,2.0245,0,15,15,54,1,RRORROO,RRORROR,21.55250791,20.9984461,series_0
,,,,,,,,602bd71f0c9b4a3976391c50,Mężczyzna,20,2021-07-13_21h58.29.154,rantool2,2021.1.4,Win32,59.91970759,602bd71f0c9b4a3976391c50,60d9d14f4a8a35a482e0d9bf,60edeffbcdb781f7ada5fba3,f,2.7648,0,16,16,49,1,RROOORO,RROOORR,21.76276513,22.53364006,series_1
,,,,,,,,602bd71f0c9b4a3976391c50,Mężczyzna,20,2021-07-13_21h58.29.154,rantool2,2021.1.4,Win32,59.91970759,602bd71f0c9b4a3976391c50,60d9d14f4a8a35a482e0d9bf,60edeffbcdb781f7ada5fba3,f,1.9685,0,17,17,2,1,OOOOROO,OOOOROR,20.43051175,21.02936224,series_1
,,,,,,,,602bd71f0c9b4a3976391c50,Mężczyzna,20,2021-07-13_21h58.29.154,rantool2,2021.1.4,Win32,59.91970759,602bd71f0c9b4a3976391c50,60d9d14f4a8a35a482e0d9bf,60edeffbcdb781f7ada5fba3,f,2.7209,0,18,18,46,1,RORRROO,RORRROR,22.00300695,21.24781509,series_0
,,,,,,,,602bd71f0c9b4a3976391c50,Mężczyzna,20,2021-07-13_21h58.29.154,rantool2,2021.1.4,Win32,59.91970759,602bd71f0c9b4a3976391c50,60d9d14f4a8a35a482e0d9bf,60edeffbcdb781f7ada5fba3,j,1.8857,0,19,19,62,1,RRRRROO,RRRRROR,22.16413392,21.27974287,series_0
,,,,,,,,602bd71f0c9b4a3976391c50,Mężczyzna,20,2021-07-13_21h58.29.154,rantool2,2021.1.4,Win32,59.91970759,602bd71f0c9b4a3976391c50,60d9d14f4a8a35a482e0d9bf,60edeffbcdb781f7ada5fba3,j,3.3306,0,20,20,57,1,RRROORO,RRROORR,21.82425538,22.07102821,series_1
,,,,,,,,602bd71f0c9b4a3976391c50,Mężczyzna,20,2021-07-13_21h58.29.154,rantool2,2021.1.4,Win32,59.91970759,602bd71f0c9b4a3976391c50,60d9d14f4a8a35a482e0d9bf,60edeffbcdb781f7ada5fba3,f,2.4103,0,21,21,28,1,ORRROOO,ORRROOR,22.24142883,22.53364006,series_1
,,,,,,,,602bd71f0c9b4a3976391c50,Mężczyzna,20,2021-07-13_21h58.29.154,rantool2,2021.1.4,Win32,59.91970759,602bd71f0c9b4a3976391c50,60d9d14f4a8a35a482e0d9bf,60edeffbcdb781f7ada5fba3,j,1.5866,0,22,22,31,1,ORRRRRO,ORRRRRR,22.16413392,20.74050628,series_0
,,,,,,,,602bd71f0c9b4a3976391c50,Mężczyzna,20,2021-07-13_21h58.29.154,rantool2,2021.1.4,Win32,59.91970759,602bd71f0c9b4a3976391c50,60d9d14f4a8a35a482e0d9bf,60edeffbcdb781f7ada5fba3,f,2.1686,0,23,23,0,1,OOOOOOO,OOOOOOR,18.52739004,19.62521613,series_1
,,,,,,,,602bd71f0c9b4a3976391c50,Mężczyzna,20,2021-07-13_21h58.29.154,rantool2,2021.1.4,Win32,59.91970759,602bd71f0c9b4a3976391c50,60d9d14f4a8a35a482e0d9bf,60edeffbcdb781f7ada5fba3,j,2.8246,0,24,24,55,1,RRORRRO,RRORRRR,21.56657303,21.21223021,series_0
,,,,,,,,602bd71f0c9b4a3976391c50,Mężczyzna,20,2021-07-13_21h58.29.154,rantool2,2021.1.4,Win32,59.91970759,602bd71f0c9b4a3976391c50,60d9d14f4a8a35a482e0d9bf,60edeffbcdb781f7ada5fba3,f,3.47,0,25,25,29,1,ORRRORO,ORRRORR,22.00300695,22.12173012,series_1
,,,,,,,,602bd71f0c9b4a3976391c50,Mężczyzna,20,2021-07-13_21h58.29.154,rantool2,2021.1.4,Win32,59.91970759,602bd71f0c9b4a3976391c50,60d9d14f4a8a35a482e0d9bf,60edeffbcdb781f7ada5fba3,j,1.4352,0,26,26,8,1,OOROOOO,OOROOOR,19.91402015,20.89823192,series_1
,,,,,,,,602bd71f0c9b4a3976391c50,Mężczyzna,20,2021-07-13_21h58.29.154,rantool2,2021.1.4,Win32,59.91970759,602bd71f0c9b4a3976391c50,60d9d14f4a8a35a482e0d9bf,60edeffbcdb781f7ada5fba3,f,2.7462,0,27,27,11,1,OORORRO,OORORRR,22.18365867,22.6797523,series_1
,,,,,,,,602bd71f0c9b4a3976391c50,Mężczyzna,20,2021-07-13_21h58.29.154,rantool2,2021.1.4,Win32,59.91970759,602bd71f0c9b4a3976391c50,60d9d14f4a8a35a482e0d9bf,60edeffbcdb781f7ada5fba3,j,2.3763,0,28,28,45,1,RORRORO,RORRORR,20.78182524,21.22513037,series_1
,,,,,,,,602bd71f0c9b4a3976391c50,Mężczyzna,20,2021-07-13_21h58.29.154,rantool2,2021.1.4,Win32,59.91970759,602bd71f0c9b4a3976391c50,60d9d14f4a8a35a482e0d9bf,60edeffbcdb781f7ada5fba3,f,3.4197,0,29,29,59,1,RRRORRO,RRRORRR,21.56657303,20.89823192,series_0
,,,,,,,,602bd71f0c9b4a3976391c50,Mężczyzna,20,2021-07-13_21h58.29.154,rantool2,2021.1.4,Win32,59.91970759,602bd71f0c9b4a3976391c50,60d9d14f4a8a35a482e0d9bf,60edeffbcdb781f7ada5fba3,j,1.8062,0,30,30,39,1,ROORRRO,ROORRRR,21.82425538,21.38562617,series_0
,,,,,,,,602bd71f0c9b4a3976391c50,Mężczyzna,20,2021-07-13_21h58.29.154,rantool2,2021.1.4,Win32,59.91970759,602bd71f0c9b4a3976391c50,60d9d14f4a8a35a482e0d9bf,60edeffbcdb781f7ada5fba3,j,3.0203,0,31,31,58,1,RRROROO,RRROROR,22.1285618,21.37121559,series_0
,,,,,,,,602bd71f0c9b4a3976391c50,Mężczyzna,20,2021-07-13_21h58.29.154,rantool2,2021.1.4,Win32,59.91970759,602bd71f0c9b4a3976391c50,60d9d14f4a8a35a482e0d9bf,60edeffbcdb781f7ada5fba3,f,2.7206,0,32,32,7,1,OOORRRO,OOORRRR,21.6194508,21.899017,series_1
,,,,,,,,602bd71f0c9b4a3976391c50,Mężczyzna,20,2021-07-13_21h58.29.154,rantool2,2021.1.4,Win32,59.91970759,602bd71f0c9b4a3976391c50,60d9d14f4a8a35a482e0d9bf,60edeffbcdb781f7ada5fba3,f,1.5912,0,33,33,4,1,OOOROOO,OOOROOR,19.91402015,21.21223021,series_1
,,,,,,,,602bd71f0c9b4a3976391c50,Mężczyzna,20,2021-07-13_21h58.29.154,rantool2,2021.1.4,Win32,59.91970759,602bd71f0c9b4a3976391c50,60d9d14f4a8a35a482e0d9bf,60edeffbcdb781f7ada5fba3,f,1.8584,0,34,34,3,1,OOOORRO,OOOORRR,20.90986523,21.74922619,series_1
,,,,,,,,602bd71f0c9b4a3976391c50,Mężczyzna,20,2021-07-13_21h58.29.154,rantool2,2021.1.4,Win32,59.91970759,602bd71f0c9b4a3976391c50,60d9d14f4a8a35a482e0d9bf,60edeffbcdb781f7ada5fba3,j,4.1369,0,35,35,13,1,OORRORO,OORRORR,21.66733484,22.11181017,series_1
,,,,,,,,602bd71f0c9b4a3976391c50,Mężczyzna,20,2021-07-13_21h58.29.154,rantool2,2021.1.4,Win32,59.91970759,602bd71f0c9b4a3976391c50,60d9d14f4a8a35a482e0d9bf,60edeffbcdb781f7ada5fba3,f,2.427,0,36,36,19,1,OROORRO,OROORRR,21.73568164,22.11181017,series_1
,,,,,,,,602bd71f0c9b4a3976391c50,Mężczyzna,20,2021-07-13_21h58.29.154,rantool2,2021.1.4,Win32,59.91970759,602bd71f0c9b4a3976391c50,60d9d14f4a8a35a482e0d9bf,60edeffbcdb781f7ada5fba3,f,1.8517,0,37,37,40,1,ROROOOO,ROROOOR,20.87963819,21.37121559,series_1
,,,,,,,,602bd71f0c9b4a3976391c50,Mężczyzna,20,2021-07-13_21h58.29.154,rantool2,2021.1.4,Win32,59.91970759,602bd71f0c9b4a3976391c50,60d9d14f4a8a35a482e0d9bf,60edeffbcdb781f7ada5fba3,j,2.0783,0,38,38,23,1,ORORRRO,ORORRRR,22.1285618,21.9921709,series_0
,,,,,,,,602bd71f0c9b4a3976391c50,Mężczyzna,20,2021-07-13_21h58.29.154,rantool2,2021.1.4,Win32,59.91970759,602bd71f0c9b4a3976391c50,60d9d14f4a8a35a482e0d9bf,60edeffbcdb781f7ada5fba3,j,2.6301,0,39,39,41,1,ROROORO,ROROORR,20.42602454,21.71443381,series_1
,,,,,,,,602bd71f0c9b4a3976391c50,Mężczyzna,20,2021-07-13_21h58.29.154,rantool2,2021.1.4,Win32,59.91970759,602bd71f0c9b4a3976391c50,60d9d14f4a8a35a482e0d9bf,60edeffbcdb781f7ada5fba3,j,2.4769,0,40,40,35,1,ROOORRO,ROOORRR,21.76276513,22.16977179,series_1
,,,,,,,,602bd71f0c9b4a3976391c50,Mężczyzna,20,2021-07-13_21h58.29.154,rantool2,2021.1.4,Win32,59.91970759,602bd71f0c9b4a3976391c50,60d9d14f4a8a35a482e0d9bf,60edeffbcdb781f7ada5fba3,f,3.0437,0,41,41,52,1,RROROOO,RROROOR,22.18365867,22.11097995,series_0
,,,,,,,,602bd71f0c9b4a3976391c50,Mężczyzna,20,2021-07-13_21h58.29.154,rantool2,2021.1.4,Win32,59.91970759,602bd71f0c9b4a3976391c50,60d9d14f4a8a35a482e0d9bf,60edeffbcdb781f7ada5fba3,j,1.9485,0,42,42,10,1,OOROROO,OOROROR,21.31236711,21.07490964,series_0
,,,,,,,,602bd71f0c9b4a3976391c50,Mężczyzna,20,2021-07-13_21h58.29.154,rantool2,2021.1.4,Win32,59.91970759,602bd71f0c9b4a3976391c50,60d9d14f4a8a35a482e0d9bf,60edeffbcdb781f7ada5fba3,f,2.0559,0,43,43,24,1,ORROOOO,ORROOOR,21.12383932,22.07102821,series_1
,,,,,,,,602bd71f0c9b4a3976391c50,Mężczyzna,20,2021-07-13_21h58.29.154,rantool2,2021.1.4,Win32,59.91970759,602bd71f0c9b4a3976391c50,60d9d14f4a8a35a482e0d9bf,60edeffbcdb781f7ada5fba3,f,2.3609,0,44,44,1,1,OOOOORO,OOOOORR,19.92253567,20.74050628,series_1
,,,,,,,,602bd71f0c9b4a3976391c50,Mężczyzna,20,2021-07-13_21h58.29.154,rantool2,2021.1.4,Win32,59.91970759,602bd71f0c9b4a3976391c50,60d9d14f4a8a35a482e0d9bf,60edeffbcdb781f7ada5fba3,f,2.6815,0,45,45,14,1,OORRROO,OORRROR,22.24142883,22.16977179,series_0
,,,,,,,,602bd71f0c9b4a3976391c50,Mężczyzna,20,2021-07-13_21h58.29.154,rantool2,2021.1.4,Win32,59.91970759,602bd71f0c9b4a3976391c50,60d9d14f4a8a35a482e0d9bf,60edeffbcdb781f7ada5fba3,j,1.9942,0,46,46,48,1,RROOOOO,RROOOOR,20.90986523,22.15934078,series_1
,,,,,,,,602bd71f0c9b4a3976391c50,Mężczyzna,20,2021-07-13_21h58.29.154,rantool2,2021.1.4,Win32,59.91970759,602bd71f0c9b4a3976391c50,60d9d14f4a8a35a482e0d9bf,60edeffbcdb781f7ada5fba3,f,1.8861,0,47,47,20,1,OROROOO,OROROOR,21.31236711,21.90565814,series_1
,,,,,,,,602bd71f0c9b4a3976391c50,Mężczyzna,20,2021-07-13_21h58.29.154,rantool2,2021.1.4,Win32,59.91970759,602bd71f0c9b4a3976391c50,60d9d14f4a8a35a482e0d9bf,60edeffbcdb781f7ada5fba3,j,1.9396,0,48,48,42,1,ROROROO,ROROROR,20.39515459,19.8361834,series_0
,,,,,,,,602bd71f0c9b4a3976391c50,Mężczyzna,20,2021-07-13_21h58.29.154,rantool2,2021.1.4,Win32,59.91970759,602bd71f0c9b4a3976391c50,60d9d14f4a8a35a482e0d9bf,60edeffbcdb781f7ada5fba3,f,1.9812,0,49,49,56,1,RRROOOO,RRROOOR,21.6194508,22.31681875,series_1
,,,,,,,,602bd71f0c9b4a3976391c50,Mężczyzna,20,2021-07-13_21h58.29.154,rantool2,2021.1.4,Win32,59.91970759,602bd71f0c9b4a3976391c50,60d9d14f4a8a35a482e0d9bf,60edeffbcdb781f7ada5fba3,f,2.6138,0,50,50,5,1,OOORORO,OOORORR,20.87963819,21.9921709,series_1
,,,,,,,,602bd71f0c9b4a3976391c50,Mężczyzna,20,2021-07-13_21h58.29.154,rantool2,2021.1.4,Win32,59.91970759,602bd71f0c9b4a3976391c50,60d9d14f4a8a35a482e0d9bf,60edeffbcdb781f7ada5fba3,j,2.2457,0,51,51,9,1,OOROORO,OOROORR,21.07991943,22.2428857,series_1
,,,,,,,,602bd71f0c9b4a3976391c50,Mężczyzna,20,2021-07-13_21h58.29.154,rantool2,2021.1.4,Win32,59.91970759,602bd71f0c9b4a3976391c50,60d9d14f4a8a35a482e0d9bf,60edeffbcdb781f7ada5fba3,f,2.7374,0,52,52,37,1,ROORORO,ROORORR,20.42602454,21.57657071,series_1
,,,,,,,,602bd71f0c9b4a3976391c50,Mężczyzna,20,2021-07-13_21h58.29.154,rantool2,2021.1.4,Win32,59.91970759,602bd71f0c9b4a3976391c50,60d9d14f4a8a35a482e0d9bf,60edeffbcdb781f7ada5fba3,j,1.5848,0,53,53,17,1,OROOORO,OROOORR,21.03750787,22.12173012,series_1
,,,,,,,,602bd71f0c9b4a3976391c50,Mężczyzna,20,2021-07-13_21h58.29.154,rantool2,2021.1.4,Win32,59.91970759,602bd71f0c9b4a3976391c50,60d9d14f4a8a35a482e0d9bf,60edeffbcdb781f7ada5fba3,j,2.748,0,54,54,26,1,ORROROO,ORROROR,22.02732763,21.71443381,series_0
,,,,,,,,602bd71f0c9b4a3976391c50,Mężczyzna,20,2021-07-13_21h58.29.154,rantool2,2021.1.4,Win32,59.91970759,602bd71f0c9b4a3976391c50,60d9d14f4a8a35a482e0d9bf,60edeffbcdb781f7ada5fba3,f,1.77,0,55,55,15,1,OORRRRO,OORRRRR,22.10108823,21.74922619,series_0
,,,,,,,,602bd71f0c9b4a3976391c50,Mężczyzna,20,2021-07-13_21h58.29.154,rantool2,2021.1.4,Win32,59.91970759,602bd71f0c9b4a3976391c50,60d9d14f4a8a35a482e0d9bf,60edeffbcdb781f7ada5fba3,j,3.4363,0,56,56,21,1,ORORORO,ORORORR,20.39515459,22.06781359,series_1
,,,,,,,,602bd71f0c9b4a3976391c50,Mężczyzna,20,2021-07-13_21h58.29.154,rantool2,2021.1.4,Win32,59.91970759,602bd71f0c9b4a3976391c50,60d9d14f4a8a35a482e0d9bf,60edeffbcdb781f7ada5fba3,f,4.5223,0,57,57,22,1,ORORROO,ORORROR,22.02732763,21.57657071,series_0
,,,,,,,,602bd71f0c9b4a3976391c50,Mężczyzna,20,2021-07-13_21h58.29.154,rantool2,2021.1.4,Win32,59.91970759,602bd71f0c9b4a3976391c50,60d9d14f4a8a35a482e0d9bf,60edeffbcdb781f7ada5fba3,j,2.8819,0,58,58,63,1,RRRRRRO,RRRRRRR,21.35278725,19.62521613,series_0
,,,,,,,,602bd71f0c9b4a3976391c50,Mężczyzna,20,2021-07-13_21h58.29.154,rantool2,2021.1.4,Win32,59.91970759,602bd71f0c9b4a3976391c50,60d9d14f4a8a35a482e0d9bf,60edeffbcdb781f7ada5fba3,f,2.4857,0,59,59,50,1,RROOROO,RROOROR,21.73568164,22.02566557,series_1
,,,,,,,,602bd71f0c9b4a3976391c50,Mężczyzna,20,2021-07-13_21h58.29.154,rantool2,2021.1.4,Win32,59.91970759,602bd71f0c9b4a3976391c50,60d9d14f4a8a35a482e0d9bf,60edeffbcdb781f7ada5fba3,j,1.8552,0,60,60,44,1,RORROOO,RORROOR,21.66733484,22.02566557,series_1
,,,,,,,,602bd71f0c9b4a3976391c50,Mężczyzna,20,2021-07-13_21h58.29.154,rantool2,2021.1.4,Win32,59.91970759,602bd71f0c9b4a3976391c50,60d9d14f4a8a35a482e0d9bf,60edeffbcdb781f7ada5fba3,f,2.3777,0,61,61,12,1,OORROOO,OORROOR,21.30250474,22.02786418,series_1
,,,,,,,,602bd71f0c9b4a3976391c50,Mężczyzna,20,2021-07-13_21h58.29.154,rantool2,2021.1.4,Win32,59.91970759,602bd71f0c9b4a3976391c50,60d9d14f4a8a35a482e0d9bf,60edeffbcdb781f7ada5fba3,j,1.6687,0,62,62,47,1,RORRRRO,RORRRRR,21.81333602,21.02936224,series_0
,,,,,,,,602bd71f0c9b4a3976391c50,Mężczyzna,20,2021-07-13_21h58.29.154,rantool2,2021.1.4,Win32,59.91970759,602bd71f0c9b4a3976391c50,60d9d14f4a8a35a482e0d9bf,60edeffbcdb781f7ada5fba3,f,2.561,0,63,63,6,1,OOORROO,OOORROR,21.12383932,21.38562617,series_1
