key_resp_7.keys,key_resp_7.rt,trials_2.thisRepN,trials_2.thisTrialN,trials_2.thisN,trials_2.thisIndex,trials_2.ran,id,series_0,series_1,acss_0,acss_1,comparison,id*,Płeć*,Wiek*,date,expName,psychopyVersion,OS,frameRate,STUDY_ID,SESSION_ID,key_resp_5.keys,key_resp_5.corr,key_resp_5.rt,trials.thisRepN,trials.thisTrialN,trials.thisN,trials.thisIndex,trials.ran
f,1.762,0,0,0,28,1,6131f7010e926c9103558040,ORRROOO,ORRROOR,22.24142883,22.53364006,series_1,6131f7010e926c9103558040,Mężczyzna,23,2021-09-06_19h18.46.604,rantool2,2021.1.4,Win32,71.999424,6135e006383e6ea6c3d06a28,61364d3e092b5f02a9b8f88e,,,,,,,,
f,1.7703,0,1,1,10,1,6131f7010e926c9103558040,OOROROO,OOROROR,21.31236711,21.07490964,series_0,6131f7010e926c9103558040,Mężczyzna,23,2021-09-06_19h18.46.604,rantool2,2021.1.4,Win32,71.999424,6135e006383e6ea6c3d06a28,61364d3e092b5f02a9b8f88e,,,,,,,,
f,2.4323,0,2,2,9,1,6131f7010e926c9103558040,OOROORO,OOROORR,21.07991943,22.2428857,series_1,6131f7010e926c9103558040,Mężczyzna,23,2021-09-06_19h18.46.604,rantool2,2021.1.4,Win32,71.999424,6135e006383e6ea6c3d06a28,61364d3e092b5f02a9b8f88e,,,,,,,,
j,1.4992,0,3,3,33,1,6131f7010e926c9103558040,ROOOORO,ROOOORR,20.83779602,22.03072203,series_1,6131f7010e926c9103558040,Mężczyzna,23,2021-09-06_19h18.46.604,rantool2,2021.1.4,Win32,71.999424,6135e006383e6ea6c3d06a28,61364d3e092b5f02a9b8f88e,,,,,,,,
f,2.4105,0,4,4,39,1,6131f7010e926c9103558040,ROORRRO,ROORRRR,21.82425538,21.38562617,series_0,6131f7010e926c9103558040,Mężczyzna,23,2021-09-06_19h18.46.604,rantool2,2021.1.4,Win32,71.999424,6135e006383e6ea6c3d06a28,61364d3e092b5f02a9b8f88e,,,,,,,,
f,1.902,0,5,5,38,1,6131f7010e926c9103558040,ROORROO,ROORROR,21.79500819,21.36812781,series_0,6131f7010e926c9103558040,Mężczyzna,23,2021-09-06_19h18.46.604,rantool2,2021.1.4,Win32,71.999424,6135e006383e6ea6c3d06a28,61364d3e092b5f02a9b8f88e,,,,,,,,
j,1.5089,0,6,6,20,1,6131f7010e926c9103558040,OROROOO,OROROOR,21.31236711,21.90565814,series_1,6131f7010e926c9103558040,Mężczyzna,23,2021-09-06_19h18.46.604,rantool2,2021.1.4,Win32,71.999424,6135e006383e6ea6c3d06a28,61364d3e092b5f02a9b8f88e,,,,,,,,
j,1.8566,0,7,7,62,1,6131f7010e926c9103558040,RRRRROO,RRRRROR,22.16413392,21.27974287,series_0,6131f7010e926c9103558040,Mężczyzna,23,2021-09-06_19h18.46.604,rantool2,2021.1.4,Win32,71.999424,6135e006383e6ea6c3d06a28,61364d3e092b5f02a9b8f88e,,,,,,,,
j,2.1776,0,8,8,42,1,6131f7010e926c9103558040,ROROROO,ROROROR,20.39515459,19.8361834,series_0,6131f7010e926c9103558040,Mężczyzna,23,2021-09-06_19h18.46.604,rantool2,2021.1.4,Win32,71.999424,6135e006383e6ea6c3d06a28,61364d3e092b5f02a9b8f88e,,,,,,,,
f,2.2157,0,9,9,11,1,6131f7010e926c9103558040,OORORRO,OORORRR,22.18365867,22.6797523,series_1,6131f7010e926c9103558040,Mężczyzna,23,2021-09-06_19h18.46.604,rantool2,2021.1.4,Win32,71.999424,6135e006383e6ea6c3d06a28,61364d3e092b5f02a9b8f88e,,,,,,,,
j,1.7472,0,10,10,27,1,6131f7010e926c9103558040,ORRORRO,ORRORRR,21.55250791,22.2428857,series_1,6131f7010e926c9103558040,Mężczyzna,23,2021-09-06_19h18.46.604,rantool2,2021.1.4,Win32,71.999424,6135e006383e6ea6c3d06a28,61364d3e092b5f02a9b8f88e,,,,,,,,
f,2.0447,0,11,11,50,1,6131f7010e926c9103558040,RROOROO,RROOROR,21.73568164,22.02566557,series_1,6131f7010e926c9103558040,Mężczyzna,23,2021-09-06_19h18.46.604,rantool2,2021.1.4,Win32,71.999424,6135e006383e6ea6c3d06a28,61364d3e092b5f02a9b8f88e,,,,,,,,
j,2.2768,0,12,12,22,1,6131f7010e926c9103558040,ORORROO,ORORROR,22.02732763,21.57657071,series_0,6131f7010e926c9103558040,Mężczyzna,23,2021-09-06_19h18.46.604,rantool2,2021.1.4,Win32,71.999424,6135e006383e6ea6c3d06a28,61364d3e092b5f02a9b8f88e,,,,,,,,
f,1.5824,0,13,13,6,1,6131f7010e926c9103558040,OOORROO,OOORROR,21.12383932,21.38562617,series_1,6131f7010e926c9103558040,Mężczyzna,23,2021-09-06_19h18.46.604,rantool2,2021.1.4,Win32,71.999424,6135e006383e6ea6c3d06a28,61364d3e092b5f02a9b8f88e,,,,,,,,
j,1.8298,0,14,14,58,1,6131f7010e926c9103558040,RRROROO,RRROROR,22.1285618,21.37121559,series_0,6131f7010e926c9103558040,Mężczyzna,23,2021-09-06_19h18.46.604,rantool2,2021.1.4,Win32,71.999424,6135e006383e6ea6c3d06a28,61364d3e092b5f02a9b8f88e,,,,,,,,
j,2.2515,0,15,15,54,1,6131f7010e926c9103558040,RRORROO,RRORROR,21.55250791,20.9984461,series_0,6131f7010e926c9103558040,Mężczyzna,23,2021-09-06_19h18.46.604,rantool2,2021.1.4,Win32,71.999424,6135e006383e6ea6c3d06a28,61364d3e092b5f02a9b8f88e,,,,,,,,
f,1.9967,0,16,16,36,1,6131f7010e926c9103558040,ROOROOO,ROOROOR,21.07991943,20.9984461,series_0,6131f7010e926c9103558040,Mężczyzna,23,2021-09-06_19h18.46.604,rantool2,2021.1.4,Win32,71.999424,6135e006383e6ea6c3d06a28,61364d3e092b5f02a9b8f88e,,,,,,,,
f,2.2626,0,17,17,18,1,6131f7010e926c9103558040,OROOROO,OROOROR,20.84860893,21.22513037,series_1,6131f7010e926c9103558040,Mężczyzna,23,2021-09-06_19h18.46.604,rantool2,2021.1.4,Win32,71.999424,6135e006383e6ea6c3d06a28,61364d3e092b5f02a9b8f88e,,,,,,,,
j,1.8396,0,18,18,46,1,6131f7010e926c9103558040,RORRROO,RORRROR,22.00300695,21.24781509,series_0,6131f7010e926c9103558040,Mężczyzna,23,2021-09-06_19h18.46.604,rantool2,2021.1.4,Win32,71.999424,6135e006383e6ea6c3d06a28,61364d3e092b5f02a9b8f88e,,,,,,,,
f,1.4516,0,19,19,32,1,6131f7010e926c9103558040,ROOOOOO,ROOOOOR,19.92253567,21.27974287,series_1,6131f7010e926c9103558040,Mężczyzna,23,2021-09-06_19h18.46.604,rantool2,2021.1.4,Win32,71.999424,6135e006383e6ea6c3d06a28,61364d3e092b5f02a9b8f88e,,,,,,,,
j,1.8514,0,20,20,47,1,6131f7010e926c9103558040,RORRRRO,RORRRRR,21.81333602,21.02936224,series_0,6131f7010e926c9103558040,Mężczyzna,23,2021-09-06_19h18.46.604,rantool2,2021.1.4,Win32,71.999424,6135e006383e6ea6c3d06a28,61364d3e092b5f02a9b8f88e,,,,,,,,
f,1.9904,0,21,21,51,1,6131f7010e926c9103558040,RROORRO,RROORRR,21.89852628,22.02786418,series_1,6131f7010e926c9103558040,Mężczyzna,23,2021-09-06_19h18.46.604,rantool2,2021.1.4,Win32,71.999424,6135e006383e6ea6c3d06a28,61364d3e092b5f02a9b8f88e,,,,,,,,
j,4.0704,0,22,22,12,1,6131f7010e926c9103558040,OORROOO,OORROOR,21.30250474,22.02786418,series_1,6131f7010e926c9103558040,Mężczyzna,23,2021-09-06_19h18.46.604,rantool2,2021.1.4,Win32,71.999424,6135e006383e6ea6c3d06a28,61364d3e092b5f02a9b8f88e,,,,,,,,
f,2.5254,0,23,23,19,1,6131f7010e926c9103558040,OROORRO,OROORRR,21.73568164,22.11181017,series_1,6131f7010e926c9103558040,Mężczyzna,23,2021-09-06_19h18.46.604,rantool2,2021.1.4,Win32,71.999424,6135e006383e6ea6c3d06a28,61364d3e092b5f02a9b8f88e,,,,,,,,
f,3.0128,0,24,24,1,1,6131f7010e926c9103558040,OOOOORO,OOOOORR,19.92253567,20.74050628,series_1,6131f7010e926c9103558040,Mężczyzna,23,2021-09-06_19h18.46.604,rantool2,2021.1.4,Win32,71.999424,6135e006383e6ea6c3d06a28,61364d3e092b5f02a9b8f88e,,,,,,,,
f,1.976,0,25,25,37,1,6131f7010e926c9103558040,ROORORO,ROORORR,20.42602454,21.57657071,series_1,6131f7010e926c9103558040,Mężczyzna,23,2021-09-06_19h18.46.604,rantool2,2021.1.4,Win32,71.999424,6135e006383e6ea6c3d06a28,61364d3e092b5f02a9b8f88e,,,,,,,,
f,2.6958,0,26,26,17,1,6131f7010e926c9103558040,OROOORO,OROOORR,21.03750787,22.12173012,series_1,6131f7010e926c9103558040,Mężczyzna,23,2021-09-06_19h18.46.604,rantool2,2021.1.4,Win32,71.999424,6135e006383e6ea6c3d06a28,61364d3e092b5f02a9b8f88e,,,,,,,,
f,1.8757,0,27,27,49,1,6131f7010e926c9103558040,RROOORO,RROOORR,21.76276513,22.53364006,series_1,6131f7010e926c9103558040,Mężczyzna,23,2021-09-06_19h18.46.604,rantool2,2021.1.4,Win32,71.999424,6135e006383e6ea6c3d06a28,61364d3e092b5f02a9b8f88e,,,,,,,,
j,1.3293,0,28,28,23,1,6131f7010e926c9103558040,ORORRRO,ORORRRR,22.1285618,21.9921709,series_0,6131f7010e926c9103558040,Mężczyzna,23,2021-09-06_19h18.46.604,rantool2,2021.1.4,Win32,71.999424,6135e006383e6ea6c3d06a28,61364d3e092b5f02a9b8f88e,,,,,,,,
f,2.6783,0,29,29,16,1,6131f7010e926c9103558040,OROOOOO,OROOOOR,20.43051175,21.17347734,series_1,6131f7010e926c9103558040,Mężczyzna,23,2021-09-06_19h18.46.604,rantool2,2021.1.4,Win32,71.999424,6135e006383e6ea6c3d06a28,61364d3e092b5f02a9b8f88e,,,,,,,,
f,1.9235,0,30,30,5,1,6131f7010e926c9103558040,OOORORO,OOORORR,20.87963819,21.9921709,series_1,6131f7010e926c9103558040,Mężczyzna,23,2021-09-06_19h18.46.604,rantool2,2021.1.4,Win32,71.999424,6135e006383e6ea6c3d06a28,61364d3e092b5f02a9b8f88e,,,,,,,,
j,1.8199,0,31,31,30,1,6131f7010e926c9103558040,ORRRROO,ORRRROR,22.46748491,22.03072203,series_0,6131f7010e926c9103558040,Mężczyzna,23,2021-09-06_19h18.46.604,rantool2,2021.1.4,Win32,71.999424,6135e006383e6ea6c3d06a28,61364d3e092b5f02a9b8f88e,,,,,,,,
j,1.8378,0,32,32,15,1,6131f7010e926c9103558040,OORRRRO,OORRRRR,22.10108823,21.74922619,series_0,6131f7010e926c9103558040,Mężczyzna,23,2021-09-06_19h18.46.604,rantool2,2021.1.4,Win32,71.999424,6135e006383e6ea6c3d06a28,61364d3e092b5f02a9b8f88e,,,,,,,,
f,2.6518,0,33,33,35,1,6131f7010e926c9103558040,ROOORRO,ROOORRR,21.76276513,22.16977179,series_1,6131f7010e926c9103558040,Mężczyzna,23,2021-09-06_19h18.46.604,rantool2,2021.1.4,Win32,71.999424,6135e006383e6ea6c3d06a28,61364d3e092b5f02a9b8f88e,,,,,,,,
j,1.4364,0,34,34,8,1,6131f7010e926c9103558040,OOROOOO,OOROOOR,19.91402015,20.89823192,series_1,6131f7010e926c9103558040,Mężczyzna,23,2021-09-06_19h18.46.604,rantool2,2021.1.4,Win32,71.999424,6135e006383e6ea6c3d06a28,61364d3e092b5f02a9b8f88e,,,,,,,,
f,1.7252,0,35,35,40,1,6131f7010e926c9103558040,ROROOOO,ROROOOR,20.87963819,21.37121559,series_1,6131f7010e926c9103558040,Mężczyzna,23,2021-09-06_19h18.46.604,rantool2,2021.1.4,Win32,71.999424,6135e006383e6ea6c3d06a28,61364d3e092b5f02a9b8f88e,,,,,,,,
j,1.2077,0,36,36,0,1,6131f7010e926c9103558040,OOOOOOO,OOOOOOR,18.52739004,19.62521613,series_1,6131f7010e926c9103558040,Mężczyzna,23,2021-09-06_19h18.46.604,rantool2,2021.1.4,Win32,71.999424,6135e006383e6ea6c3d06a28,61364d3e092b5f02a9b8f88e,,,,,,,,
f,1.5429,0,37,37,34,1,6131f7010e926c9103558040,ROOOROO,ROOOROR,21.03750787,21.24781509,series_1,6131f7010e926c9103558040,Mężczyzna,23,2021-09-06_19h18.46.604,rantool2,2021.1.4,Win32,71.999424,6135e006383e6ea6c3d06a28,61364d3e092b5f02a9b8f88e,,,,,,,,
j,1.5066,0,38,38,29,1,6131f7010e926c9103558040,ORRRORO,ORRRORR,22.00300695,22.12173012,series_1,6131f7010e926c9103558040,Mężczyzna,23,2021-09-06_19h18.46.604,rantool2,2021.1.4,Win32,71.999424,6135e006383e6ea6c3d06a28,61364d3e092b5f02a9b8f88e,,,,,,,,
f,1.3324,0,39,39,43,1,6131f7010e926c9103558040,RORORRO,RORORRR,20.71309134,21.07490964,series_1,6131f7010e926c9103558040,Mężczyzna,23,2021-09-06_19h18.46.604,rantool2,2021.1.4,Win32,71.999424,6135e006383e6ea6c3d06a28,61364d3e092b5f02a9b8f88e,,,,,,,,
j,1.3339,0,40,40,56,1,6131f7010e926c9103558040,RRROOOO,RRROOOR,21.6194508,22.31681875,series_1,6131f7010e926c9103558040,Mężczyzna,23,2021-09-06_19h18.46.604,rantool2,2021.1.4,Win32,71.999424,6135e006383e6ea6c3d06a28,61364d3e092b5f02a9b8f88e,,,,,,,,
f,1.6943,0,41,41,25,1,6131f7010e926c9103558040,ORROORO,ORROORR,21.79500819,22.61624387,series_1,6131f7010e926c9103558040,Mężczyzna,23,2021-09-06_19h18.46.604,rantool2,2021.1.4,Win32,71.999424,6135e006383e6ea6c3d06a28,61364d3e092b5f02a9b8f88e,,,,,,,,
j,1.4644,0,42,42,13,1,6131f7010e926c9103558040,OORRORO,OORRORR,21.66733484,22.11181017,series_1,6131f7010e926c9103558040,Mężczyzna,23,2021-09-06_19h18.46.604,rantool2,2021.1.4,Win32,71.999424,6135e006383e6ea6c3d06a28,61364d3e092b5f02a9b8f88e,,,,,,,,
j,1.5109,0,43,43,60,1,6131f7010e926c9103558040,RRRROOO,RRRROOR,22.10108823,22.15934078,series_1,6131f7010e926c9103558040,Mężczyzna,23,2021-09-06_19h18.46.604,rantool2,2021.1.4,Win32,71.999424,6135e006383e6ea6c3d06a28,61364d3e092b5f02a9b8f88e,,,,,,,,
j,2.1792,0,44,44,7,1,6131f7010e926c9103558040,OOORRRO,OOORRRR,21.6194508,21.899017,series_1,6131f7010e926c9103558040,Mężczyzna,23,2021-09-06_19h18.46.604,rantool2,2021.1.4,Win32,71.999424,6135e006383e6ea6c3d06a28,61364d3e092b5f02a9b8f88e,,,,,,,,
f,1.3951,0,45,45,59,1,6131f7010e926c9103558040,RRRORRO,RRRORRR,21.56657303,20.89823192,series_0,6131f7010e926c9103558040,Mężczyzna,23,2021-09-06_19h18.46.604,rantool2,2021.1.4,Win32,71.999424,6135e006383e6ea6c3d06a28,61364d3e092b5f02a9b8f88e,,,,,,,,
j,1.5426,0,46,46,4,1,6131f7010e926c9103558040,OOOROOO,OOOROOR,19.91402015,21.21223021,series_1,6131f7010e926c9103558040,Mężczyzna,23,2021-09-06_19h18.46.604,rantool2,2021.1.4,Win32,71.999424,6135e006383e6ea6c3d06a28,61364d3e092b5f02a9b8f88e,,,,,,,,
f,1.5085,0,47,47,63,1,6131f7010e926c9103558040,RRRRRRO,RRRRRRR,21.35278725,19.62521613,series_0,6131f7010e926c9103558040,Mężczyzna,23,2021-09-06_19h18.46.604,rantool2,2021.1.4,Win32,71.999424,6135e006383e6ea6c3d06a28,61364d3e092b5f02a9b8f88e,,,,,,,,
j,1.2474,0,48,48,53,1,6131f7010e926c9103558040,RRORORO,RRORORR,20.71309134,21.90565814,series_1,6131f7010e926c9103558040,Mężczyzna,23,2021-09-06_19h18.46.604,rantool2,2021.1.4,Win32,71.999424,6135e006383e6ea6c3d06a28,61364d3e092b5f02a9b8f88e,,,,,,,,
j,1.1706,0,49,49,26,1,6131f7010e926c9103558040,ORROROO,ORROROR,22.02732763,21.71443381,series_0,6131f7010e926c9103558040,Mężczyzna,23,2021-09-06_19h18.46.604,rantool2,2021.1.4,Win32,71.999424,6135e006383e6ea6c3d06a28,61364d3e092b5f02a9b8f88e,,,,,,,,
j,1.472,0,50,50,41,1,6131f7010e926c9103558040,ROROORO,ROROORR,20.42602454,21.71443381,series_1,6131f7010e926c9103558040,Mężczyzna,23,2021-09-06_19h18.46.604,rantool2,2021.1.4,Win32,71.999424,6135e006383e6ea6c3d06a28,61364d3e092b5f02a9b8f88e,,,,,,,,
j,1.1875,0,51,51,14,1,6131f7010e926c9103558040,OORRROO,OORRROR,22.24142883,22.16977179,series_0,6131f7010e926c9103558040,Mężczyzna,23,2021-09-06_19h18.46.604,rantool2,2021.1.4,Win32,71.999424,6135e006383e6ea6c3d06a28,61364d3e092b5f02a9b8f88e,,,,,,,,
j,1.8886,0,52,52,52,1,6131f7010e926c9103558040,RROROOO,RROROOR,22.18365867,22.11097995,series_0,6131f7010e926c9103558040,Mężczyzna,23,2021-09-06_19h18.46.604,rantool2,2021.1.4,Win32,71.999424,6135e006383e6ea6c3d06a28,61364d3e092b5f02a9b8f88e,,,,,,,,
f,2.3916,0,53,53,57,1,6131f7010e926c9103558040,RRROORO,RRROORR,21.82425538,22.07102821,series_1,6131f7010e926c9103558040,Mężczyzna,23,2021-09-06_19h18.46.604,rantool2,2021.1.4,Win32,71.999424,6135e006383e6ea6c3d06a28,61364d3e092b5f02a9b8f88e,,,,,,,,
j,1.0742,0,54,54,61,1,6131f7010e926c9103558040,RRRRORO,RRRRORR,21.81333602,21.17347734,series_0,6131f7010e926c9103558040,Mężczyzna,23,2021-09-06_19h18.46.604,rantool2,2021.1.4,Win32,71.999424,6135e006383e6ea6c3d06a28,61364d3e092b5f02a9b8f88e,,,,,,,,
f,1.1692,0,55,55,31,1,6131f7010e926c9103558040,ORRRRRO,ORRRRRR,22.16413392,20.74050628,series_0,6131f7010e926c9103558040,Mężczyzna,23,2021-09-06_19h18.46.604,rantool2,2021.1.4,Win32,71.999424,6135e006383e6ea6c3d06a28,61364d3e092b5f02a9b8f88e,,,,,,,,
j,1.1685,0,56,56,55,1,6131f7010e926c9103558040,RRORRRO,RRORRRR,21.56657303,21.21223021,series_0,6131f7010e926c9103558040,Mężczyzna,23,2021-09-06_19h18.46.604,rantool2,2021.1.4,Win32,71.999424,6135e006383e6ea6c3d06a28,61364d3e092b5f02a9b8f88e,,,,,,,,
j,1.3932,0,57,57,3,1,6131f7010e926c9103558040,OOOORRO,OOOORRR,20.90986523,21.74922619,series_1,6131f7010e926c9103558040,Mężczyzna,23,2021-09-06_19h18.46.604,rantool2,2021.1.4,Win32,71.999424,6135e006383e6ea6c3d06a28,61364d3e092b5f02a9b8f88e,,,,,,,,
j,1.3163,0,58,58,2,1,6131f7010e926c9103558040,OOOOROO,OOOOROR,20.43051175,21.02936224,series_1,6131f7010e926c9103558040,Mężczyzna,23,2021-09-06_19h18.46.604,rantool2,2021.1.4,Win32,71.999424,6135e006383e6ea6c3d06a28,61364d3e092b5f02a9b8f88e,,,,,,,,
f,1.8351,0,59,59,45,1,6131f7010e926c9103558040,RORRORO,RORRORR,20.78182524,21.22513037,series_1,6131f7010e926c9103558040,Mężczyzna,23,2021-09-06_19h18.46.604,rantool2,2021.1.4,Win32,71.999424,6135e006383e6ea6c3d06a28,61364d3e092b5f02a9b8f88e,,,,,,,,
f,1.639,0,60,60,44,1,6131f7010e926c9103558040,RORROOO,RORROOR,21.66733484,22.02566557,series_1,6131f7010e926c9103558040,Mężczyzna,23,2021-09-06_19h18.46.604,rantool2,2021.1.4,Win32,71.999424,6135e006383e6ea6c3d06a28,61364d3e092b5f02a9b8f88e,,,,,,,,
f,2.4371,0,61,61,24,1,6131f7010e926c9103558040,ORROOOO,ORROOOR,21.12383932,22.07102821,series_1,6131f7010e926c9103558040,Mężczyzna,23,2021-09-06_19h18.46.604,rantool2,2021.1.4,Win32,71.999424,6135e006383e6ea6c3d06a28,61364d3e092b5f02a9b8f88e,,,,,,,,
j,2.0502,0,62,62,21,1,6131f7010e926c9103558040,ORORORO,ORORORR,20.39515459,22.06781359,series_1,6131f7010e926c9103558040,Mężczyzna,23,2021-09-06_19h18.46.604,rantool2,2021.1.4,Win32,71.999424,6135e006383e6ea6c3d06a28,61364d3e092b5f02a9b8f88e,,,,,,,,
f,2.0056,0,63,63,48,1,6131f7010e926c9103558040,RROOOOO,RROOOOR,20.90986523,22.15934078,series_1,6131f7010e926c9103558040,Mężczyzna,23,2021-09-06_19h18.46.604,rantool2,2021.1.4,Win32,71.999424,6135e006383e6ea6c3d06a28,61364d3e092b5f02a9b8f88e,,,,,,,,
,,,,,,,6131f7010e926c9103558040,,,,,,6131f7010e926c9103558040,Mężczyzna,23,2021-09-06_19h18.46.604,rantool2,2021.1.4,Win32,71.999424,6135e006383e6ea6c3d06a28,61364d3e092b5f02a9b8f88e,"[""comma""]",0,[0.7536000000015122],0,0,0,0,1
,,,,,,,6131f7010e926c9103558040,,,,,,6131f7010e926c9103558040,Mężczyzna,23,2021-09-06_19h18.46.604,rantool2,2021.1.4,Win32,71.999424,6135e006383e6ea6c3d06a28,61364d3e092b5f02a9b8f88e,"[""comma"",""comma""]",0,"[0.3739999999999952,0.8208000000044819]",1,0,1,0,1
,,,,,,,6131f7010e926c9103558040,,,,,,6131f7010e926c9103558040,Mężczyzna,23,2021-09-06_19h18.46.604,rantool2,2021.1.4,Win32,71.999424,6135e006383e6ea6c3d06a28,61364d3e092b5f02a9b8f88e,"[""period""]",0,[0.3224999999999909],2,0,2,0,1
,,,,,,,6131f7010e926c9103558040,,,,,,6131f7010e926c9103558040,Mężczyzna,23,2021-09-06_19h18.46.604,rantool2,2021.1.4,Win32,71.999424,6135e006383e6ea6c3d06a28,61364d3e092b5f02a9b8f88e,"[""comma""]",0,[0.4662000000029707],3,0,3,0,1
,,,,,,,6131f7010e926c9103558040,,,,,,6131f7010e926c9103558040,Mężczyzna,23,2021-09-06_19h18.46.604,rantool2,2021.1.4,Win32,71.999424,6135e006383e6ea6c3d06a28,61364d3e092b5f02a9b8f88e,"[""comma""]",0,[0.43410000000147875],4,0,4,0,1
,,,,,,,6131f7010e926c9103558040,,,,,,6131f7010e926c9103558040,Mężczyzna,23,2021-09-06_19h18.46.604,rantool2,2021.1.4,Win32,71.999424,6135e006383e6ea6c3d06a28,61364d3e092b5f02a9b8f88e,"[""period""]",0,[0.2752999999970598],5,0,5,0,1
,,,,,,,6131f7010e926c9103558040,,,,,,6131f7010e926c9103558040,Mężczyzna,23,2021-09-06_19h18.46.604,rantool2,2021.1.4,Win32,71.999424,6135e006383e6ea6c3d06a28,61364d3e092b5f02a9b8f88e,"[""period""]",0,[0.24779999999702795],6,0,6,0,1
,,,,,,,6131f7010e926c9103558040,,,,,,6131f7010e926c9103558040,Mężczyzna,23,2021-09-06_19h18.46.604,rantool2,2021.1.4,Win32,71.999424,6135e006383e6ea6c3d06a28,61364d3e092b5f02a9b8f88e,"[""comma""]",0,[0.2681999999955451],7,0,7,0,1
,,,,,,,6131f7010e926c9103558040,,,,,,6131f7010e926c9103558040,Mężczyzna,23,2021-09-06_19h18.46.604,rantool2,2021.1.4,Win32,71.999424,6135e006383e6ea6c3d06a28,61364d3e092b5f02a9b8f88e,"[""period""]",0,[0.08579999999705024],8,0,8,0,1
,,,,,,,6131f7010e926c9103558040,,,,,,6131f7010e926c9103558040,Mężczyzna,23,2021-09-06_19h18.46.604,rantool2,2021.1.4,Win32,71.999424,6135e006383e6ea6c3d06a28,61364d3e092b5f02a9b8f88e,"[""period""]",0,[0.26010000000144373],9,0,9,0,1
,,,,,,,6131f7010e926c9103558040,,,,,,6131f7010e926c9103558040,Mężczyzna,23,2021-09-06_19h18.46.604,rantool2,2021.1.4,Win32,71.999424,6135e006383e6ea6c3d06a28,61364d3e092b5f02a9b8f88e,"[""comma""]",0,[0.25369999999554693],10,0,10,0,1
,,,,,,,6131f7010e926c9103558040,,,,,,6131f7010e926c9103558040,Mężczyzna,23,2021-09-06_19h18.46.604,rantool2,2021.1.4,Win32,71.999424,6135e006383e6ea6c3d06a28,61364d3e092b5f02a9b8f88e,"[""comma""]",0,[0.24560000000144555],11,0,11,0,1
,,,,,,,6131f7010e926c9103558040,,,,,,6131f7010e926c9103558040,Mężczyzna,23,2021-09-06_19h18.46.604,rantool2,2021.1.4,Win32,71.999424,6135e006383e6ea6c3d06a28,61364d3e092b5f02a9b8f88e,"[""period""]",0,[0.25829999999700703],12,0,12,0,1
,,,,,,,6131f7010e926c9103558040,,,,,,6131f7010e926c9103558040,Mężczyzna,23,2021-09-06_19h18.46.604,rantool2,2021.1.4,Win32,71.999424,6135e006383e6ea6c3d06a28,61364d3e092b5f02a9b8f88e,"[""comma"",""period""]",0,"[0.2489999999999668,1.9779999999999518]",13,0,13,0,1
,,,,,,,6131f7010e926c9103558040,,,,,,6131f7010e926c9103558040,Mężczyzna,23,2021-09-06_19h18.46.604,rantool2,2021.1.4,Win32,71.999424,6135e006383e6ea6c3d06a28,61364d3e092b5f02a9b8f88e,"[""period""]",0,[0.6555000000000177],14,0,14,0,1
,,,,,,,6131f7010e926c9103558040,,,,,,6131f7010e926c9103558040,Mężczyzna,23,2021-09-06_19h18.46.604,rantool2,2021.1.4,Win32,71.999424,6135e006383e6ea6c3d06a28,61364d3e092b5f02a9b8f88e,"[""comma""]",0,[0.38580000000445125],15,0,15,0,1
,,,,,,,6131f7010e926c9103558040,,,,,,6131f7010e926c9103558040,Mężczyzna,23,2021-09-06_19h18.46.604,rantool2,2021.1.4,Win32,71.999424,6135e006383e6ea6c3d06a28,61364d3e092b5f02a9b8f88e,"[""period""]",0,[0.3079999999999927],16,0,16,0,1
,,,,,,,6131f7010e926c9103558040,,,,,,6131f7010e926c9103558040,Mężczyzna,23,2021-09-06_19h18.46.604,rantool2,2021.1.4,Win32,71.999424,6135e006383e6ea6c3d06a28,61364d3e092b5f02a9b8f88e,"[""period""]",0,[0.32039999999852853],17,0,17,0,1
,,,,,,,6131f7010e926c9103558040,,,,,,6131f7010e926c9103558040,Mężczyzna,23,2021-09-06_19h18.46.604,rantool2,2021.1.4,Win32,71.999424,6135e006383e6ea6c3d06a28,61364d3e092b5f02a9b8f88e,"[""period"",""period""]",0,"[0.14660000000151285,0.8885000000000218]",18,0,18,0,1
,,,,,,,6131f7010e926c9103558040,,,,,,6131f7010e926c9103558040,Mężczyzna,23,2021-09-06_19h18.46.604,rantool2,2021.1.4,Win32,71.999424,6135e006383e6ea6c3d06a28,61364d3e092b5f02a9b8f88e,"[""comma"",""comma""]",0,"[0.44179999999698794,0.8326000000014915]",19,0,19,0,1
,,,,,,,6131f7010e926c9103558040,,,,,,6131f7010e926c9103558040,Mężczyzna,23,2021-09-06_19h18.46.604,rantool2,2021.1.4,Win32,71.999424,6135e006383e6ea6c3d06a28,61364d3e092b5f02a9b8f88e,"[""comma""]",0,[0.44489999999854035],20,0,20,0,1
,,,,,,,6131f7010e926c9103558040,,,,,,6131f7010e926c9103558040,Mężczyzna,23,2021-09-06_19h18.46.604,rantool2,2021.1.4,Win32,71.999424,6135e006383e6ea6c3d06a28,61364d3e092b5f02a9b8f88e,"[""period""]",0,[0.5700999999940564],21,0,21,0,1
,,,,,,,6131f7010e926c9103558040,,,,,,6131f7010e926c9103558040,Mężczyzna,23,2021-09-06_19h18.46.604,rantool2,2021.1.4,Win32,71.999424,6135e006383e6ea6c3d06a28,61364d3e092b5f02a9b8f88e,"[""comma""]",0,[0.31909999999402316],22,0,22,0,1
,,,,,,,6131f7010e926c9103558040,,,,,,6131f7010e926c9103558040,Mężczyzna,23,2021-09-06_19h18.46.604,rantool2,2021.1.4,Win32,71.999424,6135e006383e6ea6c3d06a28,61364d3e092b5f02a9b8f88e,"[""period""]",0,[0.23710000000147602],23,0,23,0,1
,,,,,,,6131f7010e926c9103558040,,,,,,6131f7010e926c9103558040,Mężczyzna,23,2021-09-06_19h18.46.604,rantool2,2021.1.4,Win32,71.999424,6135e006383e6ea6c3d06a28,61364d3e092b5f02a9b8f88e,"[""comma""]",0,[0.10430000000445716],24,0,24,0,1
,,,,,,,6131f7010e926c9103558040,,,,,,6131f7010e926c9103558040,Mężczyzna,23,2021-09-06_19h18.46.604,rantool2,2021.1.4,Win32,71.999424,6135e006383e6ea6c3d06a28,61364d3e092b5f02a9b8f88e,"[""comma"",""comma""]",0,"[0.006399999998507155,0.5926999999955456]",25,0,25,0,1
,,,,,,,6131f7010e926c9103558040,,,,,,6131f7010e926c9103558040,Mężczyzna,23,2021-09-06_19h18.46.604,rantool2,2021.1.4,Win32,71.999424,6135e006383e6ea6c3d06a28,61364d3e092b5f02a9b8f88e,"[""period""]",0,[0.2958000000044194],26,0,26,0,1
,,,,,,,6131f7010e926c9103558040,,,,,,6131f7010e926c9103558040,Mężczyzna,23,2021-09-06_19h18.46.604,rantool2,2021.1.4,Win32,71.999424,6135e006383e6ea6c3d06a28,61364d3e092b5f02a9b8f88e,"[""period""]",0,[0.23589999999853717],27,0,27,0,1
,,,,,,,6131f7010e926c9103558040,,,,,,6131f7010e926c9103558040,Mężczyzna,23,2021-09-06_19h18.46.604,rantool2,2021.1.4,Win32,71.999424,6135e006383e6ea6c3d06a28,61364d3e092b5f02a9b8f88e,"[""period""]",0,[0.26900000000000546],28,0,28,0,1
,,,,,,,6131f7010e926c9103558040,,,,,,6131f7010e926c9103558040,Mężczyzna,23,2021-09-06_19h18.46.604,rantool2,2021.1.4,Win32,71.999424,6135e006383e6ea6c3d06a28,61364d3e092b5f02a9b8f88e,"[""comma""]",0,[0.33939999999847714],29,0,29,0,1
,,,,,,,6131f7010e926c9103558040,,,,,,6131f7010e926c9103558040,Mężczyzna,23,2021-09-06_19h18.46.604,rantool2,2021.1.4,Win32,71.999424,6135e006383e6ea6c3d06a28,61364d3e092b5f02a9b8f88e,"[""period""]",0,[0.258100000001491],30,0,30,0,1
,,,,,,,6131f7010e926c9103558040,,,,,,6131f7010e926c9103558040,Mężczyzna,23,2021-09-06_19h18.46.604,rantool2,2021.1.4,Win32,71.999424,6135e006383e6ea6c3d06a28,61364d3e092b5f02a9b8f88e,"[""comma""]",0,[0.2969999999999686],31,0,31,0,1
,,,,,,,6131f7010e926c9103558040,,,,,,6131f7010e926c9103558040,Mężczyzna,23,2021-09-06_19h18.46.604,rantool2,2021.1.4,Win32,71.999424,6135e006383e6ea6c3d06a28,61364d3e092b5f02a9b8f88e,"[""comma""]",0,[0.34409999999405727],32,0,32,0,1
,,,,,,,6131f7010e926c9103558040,,,,,,6131f7010e926c9103558040,Mężczyzna,23,2021-09-06_19h18.46.604,rantool2,2021.1.4,Win32,71.999424,6135e006383e6ea6c3d06a28,61364d3e092b5f02a9b8f88e,"[""comma""]",0,[0.2812999999970316],33,0,33,0,1
,,,,,,,6131f7010e926c9103558040,,,,,,6131f7010e926c9103558040,Mężczyzna,23,2021-09-06_19h18.46.604,rantool2,2021.1.4,Win32,71.999424,6135e006383e6ea6c3d06a28,61364d3e092b5f02a9b8f88e,"[""comma""]",0,[0.22180000000446398],34,0,34,0,1
,,,,,,,6131f7010e926c9103558040,,,,,,6131f7010e926c9103558040,Mężczyzna,23,2021-09-06_19h18.46.604,rantool2,2021.1.4,Win32,71.999424,6135e006383e6ea6c3d06a28,61364d3e092b5f02a9b8f88e,"[""period""]",0,[0.278600000001461],35,0,35,0,1
,,,,,,,6131f7010e926c9103558040,,,,,,6131f7010e926c9103558040,Mężczyzna,23,2021-09-06_19h18.46.604,rantool2,2021.1.4,Win32,71.999424,6135e006383e6ea6c3d06a28,61364d3e092b5f02a9b8f88e,"[""comma""]",0,[0.9758000000044831],36,0,36,0,1
,,,,,,,6131f7010e926c9103558040,,,,,,6131f7010e926c9103558040,Mężczyzna,23,2021-09-06_19h18.46.604,rantool2,2021.1.4,Win32,71.999424,6135e006383e6ea6c3d06a28,61364d3e092b5f02a9b8f88e,"[""period""]",0,[0.39329999999699794],37,0,37,0,1
,,,,,,,6131f7010e926c9103558040,,,,,,6131f7010e926c9103558040,Mężczyzna,23,2021-09-06_19h18.46.604,rantool2,2021.1.4,Win32,71.999424,6135e006383e6ea6c3d06a28,61364d3e092b5f02a9b8f88e,"[""period""]",0,[0.4019999999999868],38,0,38,0,1
,,,,,,,6131f7010e926c9103558040,,,,,,6131f7010e926c9103558040,Mężczyzna,23,2021-09-06_19h18.46.604,rantool2,2021.1.4,Win32,71.999424,6135e006383e6ea6c3d06a28,61364d3e092b5f02a9b8f88e,"[""comma""]",0,[0.23429999999706297],39,0,39,0,1
,,,,,,,6131f7010e926c9103558040,,,,,,6131f7010e926c9103558040,Mężczyzna,23,2021-09-06_19h18.46.604,rantool2,2021.1.4,Win32,71.999424,6135e006383e6ea6c3d06a28,61364d3e092b5f02a9b8f88e,"[""period""]",0,[0.25200000000000955],40,0,40,0,1
,,,,,,,6131f7010e926c9103558040,,,,,,6131f7010e926c9103558040,Mężczyzna,23,2021-09-06_19h18.46.604,rantool2,2021.1.4,Win32,71.999424,6135e006383e6ea6c3d06a28,61364d3e092b5f02a9b8f88e,"[""period""]",0,[0.27180000000447535],41,0,41,0,1
,,,,,,,6131f7010e926c9103558040,,,,,,6131f7010e926c9103558040,Mężczyzna,23,2021-09-06_19h18.46.604,rantool2,2021.1.4,Win32,71.999424,6135e006383e6ea6c3d06a28,61364d3e092b5f02a9b8f88e,"[""comma""]",0,[0.28489999999851534],42,0,42,0,1
,,,,,,,6131f7010e926c9103558040,,,,,,6131f7010e926c9103558040,Mężczyzna,23,2021-09-06_19h18.46.604,rantool2,2021.1.4,Win32,71.999424,6135e006383e6ea6c3d06a28,61364d3e092b5f02a9b8f88e,"[""period""]",0,[0.4107000000029757],43,0,43,0,1
,,,,,,,6131f7010e926c9103558040,,,,,,6131f7010e926c9103558040,Mężczyzna,23,2021-09-06_19h18.46.604,rantool2,2021.1.4,Win32,71.999424,6135e006383e6ea6c3d06a28,61364d3e092b5f02a9b8f88e,"[""comma""]",0,[0.27060000000147966],44,0,44,0,1
,,,,,,,6131f7010e926c9103558040,,,,,,6131f7010e926c9103558040,Mężczyzna,23,2021-09-06_19h18.46.604,rantool2,2021.1.4,Win32,71.999424,6135e006383e6ea6c3d06a28,61364d3e092b5f02a9b8f88e,"[""comma""]",0,[0.340900000005945],45,0,45,0,1
,,,,,,,6131f7010e926c9103558040,,,,,,6131f7010e926c9103558040,Mężczyzna,23,2021-09-06_19h18.46.604,rantool2,2021.1.4,Win32,71.999424,6135e006383e6ea6c3d06a28,61364d3e092b5f02a9b8f88e,"[""period""]",0,[0.5185000000000173],46,0,46,0,1
,,,,,,,6131f7010e926c9103558040,,,,,,6131f7010e926c9103558040,Mężczyzna,23,2021-09-06_19h18.46.604,rantool2,2021.1.4,Win32,71.999424,6135e006383e6ea6c3d06a28,61364d3e092b5f02a9b8f88e,"[""comma""]",0,[0.2999000000059482],47,0,47,0,1
,,,,,,,6131f7010e926c9103558040,,,,,,6131f7010e926c9103558040,Mężczyzna,23,2021-09-06_19h18.46.604,rantool2,2021.1.4,Win32,71.999424,6135e006383e6ea6c3d06a28,61364d3e092b5f02a9b8f88e,"[""period""]",0,[0.28649999999998954],48,0,48,0,1
,,,,,,,6131f7010e926c9103558040,,,,,,6131f7010e926c9103558040,Mężczyzna,23,2021-09-06_19h18.46.604,rantool2,2021.1.4,Win32,71.999424,6135e006383e6ea6c3d06a28,61364d3e092b5f02a9b8f88e,"[""period""]",0,[0.29370000000295704],49,0,49,0,1
,,,,,,,6131f7010e926c9103558040,,,,,,6131f7010e926c9103558040,Mężczyzna,23,2021-09-06_19h18.46.604,rantool2,2021.1.4,Win32,71.999424,6135e006383e6ea6c3d06a28,61364d3e092b5f02a9b8f88e,"[""period""]",0,[0.3573000000044999],50,0,50,0,1
,,,,,,,6131f7010e926c9103558040,,,,,,6131f7010e926c9103558040,Mężczyzna,23,2021-09-06_19h18.46.604,rantool2,2021.1.4,Win32,71.999424,6135e006383e6ea6c3d06a28,61364d3e092b5f02a9b8f88e,"[""comma""]",0,[0.424600000001476],51,0,51,0,1
,,,,,,,6131f7010e926c9103558040,,,,,,6131f7010e926c9103558040,Mężczyzna,23,2021-09-06_19h18.46.604,rantool2,2021.1.4,Win32,71.999424,6135e006383e6ea6c3d06a28,61364d3e092b5f02a9b8f88e,"[""comma""]",0,[0.33150000000000546],52,0,52,0,1
,,,,,,,6131f7010e926c9103558040,,,,,,6131f7010e926c9103558040,Mężczyzna,23,2021-09-06_19h18.46.604,rantool2,2021.1.4,Win32,71.999424,6135e006383e6ea6c3d06a28,61364d3e092b5f02a9b8f88e,"[""period""]",0,[0.32889999999849806],53,0,53,0,1
,,,,,,,6131f7010e926c9103558040,,,,,,6131f7010e926c9103558040,Mężczyzna,23,2021-09-06_19h18.46.604,rantool2,2021.1.4,Win32,71.999424,6135e006383e6ea6c3d06a28,61364d3e092b5f02a9b8f88e,"[""comma""]",0,[0.3227999999970166],54,0,54,0,1
,,,,,,,6131f7010e926c9103558040,,,,,,6131f7010e926c9103558040,Mężczyzna,23,2021-09-06_19h18.46.604,rantool2,2021.1.4,Win32,71.999424,6135e006383e6ea6c3d06a28,61364d3e092b5f02a9b8f88e,"[""period""]",0,[0.30720000000297887],55,0,55,0,1
,,,,,,,6131f7010e926c9103558040,,,,,,6131f7010e926c9103558040,Mężczyzna,23,2021-09-06_19h18.46.604,rantool2,2021.1.4,Win32,71.999424,6135e006383e6ea6c3d06a28,61364d3e092b5f02a9b8f88e,"[""period""]",0,[0.2319999999999709],56,0,56,0,1
,,,,,,,6131f7010e926c9103558040,,,,,,6131f7010e926c9103558040,Mężczyzna,23,2021-09-06_19h18.46.604,rantool2,2021.1.4,Win32,71.999424,6135e006383e6ea6c3d06a28,61364d3e092b5f02a9b8f88e,"[""period""]",0,[0.23950000000002092],57,0,57,0,1
,,,,,,,6131f7010e926c9103558040,,,,,,6131f7010e926c9103558040,Mężczyzna,23,2021-09-06_19h18.46.604,rantool2,2021.1.4,Win32,71.999424,6135e006383e6ea6c3d06a28,61364d3e092b5f02a9b8f88e,"[""period""]",0,[0.1462999999970407],58,0,58,0,1
,,,,,,,6131f7010e926c9103558040,,,,,,6131f7010e926c9103558040,Mężczyzna,23,2021-09-06_19h18.46.604,rantool2,2021.1.4,Win32,71.999424,6135e006383e6ea6c3d06a28,61364d3e092b5f02a9b8f88e,"[""comma""]",0,[0.25480000000447944],59,0,59,0,1
,,,,,,,6131f7010e926c9103558040,,,,,,6131f7010e926c9103558040,Mężczyzna,23,2021-09-06_19h18.46.604,rantool2,2021.1.4,Win32,71.999424,6135e006383e6ea6c3d06a28,61364d3e092b5f02a9b8f88e,"[""comma""]",0,[0.20880000000448717],60,0,60,0,1
,,,,,,,6131f7010e926c9103558040,,,,,,6131f7010e926c9103558040,Mężczyzna,23,2021-09-06_19h18.46.604,rantool2,2021.1.4,Win32,71.999424,6135e006383e6ea6c3d06a28,61364d3e092b5f02a9b8f88e,"[""period""]",0,[0.4011999999955833],61,0,61,0,1
,,,,,,,6131f7010e926c9103558040,,,,,,6131f7010e926c9103558040,Mężczyzna,23,2021-09-06_19h18.46.604,rantool2,2021.1.4,Win32,71.999424,6135e006383e6ea6c3d06a28,61364d3e092b5f02a9b8f88e,"[""comma""]",0,[0.30240000000600276],62,0,62,0,1
,,,,,,,6131f7010e926c9103558040,,,,,,6131f7010e926c9103558040,Mężczyzna,23,2021-09-06_19h18.46.604,rantool2,2021.1.4,Win32,71.999424,6135e006383e6ea6c3d06a28,61364d3e092b5f02a9b8f88e,"[""comma""]",0,[0.2386000000014974],63,0,63,0,1
,,,,,,,6131f7010e926c9103558040,,,,,,6131f7010e926c9103558040,Mężczyzna,23,2021-09-06_19h18.46.604,rantool2,2021.1.4,Win32,71.999424,6135e006383e6ea6c3d06a28,61364d3e092b5f02a9b8f88e,"[""period""]",0,[0.1970999999940659],64,0,64,0,1
,,,,,,,6131f7010e926c9103558040,,,,,,6131f7010e926c9103558040,Mężczyzna,23,2021-09-06_19h18.46.604,rantool2,2021.1.4,Win32,71.999424,6135e006383e6ea6c3d06a28,61364d3e092b5f02a9b8f88e,"[""comma""]",0,[0.34689999999852716],65,0,65,0,1
,,,,,,,6131f7010e926c9103558040,,,,,,6131f7010e926c9103558040,Mężczyzna,23,2021-09-06_19h18.46.604,rantool2,2021.1.4,Win32,71.999424,6135e006383e6ea6c3d06a28,61364d3e092b5f02a9b8f88e,"[""period""]",0,[0.3952999999970075],66,0,66,0,1
,,,,,,,6131f7010e926c9103558040,,,,,,6131f7010e926c9103558040,Mężczyzna,23,2021-09-06_19h18.46.604,rantool2,2021.1.4,Win32,71.999424,6135e006383e6ea6c3d06a28,61364d3e092b5f02a9b8f88e,"[""period""]",0,[0.26789999999851943],67,0,67,0,1
,,,,,,,6131f7010e926c9103558040,,,,,,6131f7010e926c9103558040,Mężczyzna,23,2021-09-06_19h18.46.604,rantool2,2021.1.4,Win32,71.999424,6135e006383e6ea6c3d06a28,61364d3e092b5f02a9b8f88e,"[""comma""]",0,[0.43689999999850215],68,0,68,0,1
,,,,,,,6131f7010e926c9103558040,,,,,,6131f7010e926c9103558040,Mężczyzna,23,2021-09-06_19h18.46.604,rantool2,2021.1.4,Win32,71.999424,6135e006383e6ea6c3d06a28,61364d3e092b5f02a9b8f88e,"[""period""]",0,[0.4362999999970043],69,0,69,0,1
,,,,,,,6131f7010e926c9103558040,,,,,,6131f7010e926c9103558040,Mężczyzna,23,2021-09-06_19h18.46.604,rantool2,2021.1.4,Win32,71.999424,6135e006383e6ea6c3d06a28,61364d3e092b5f02a9b8f88e,"[""comma""]",0,[0.29669999999549646],70,0,70,0,1
,,,,,,,6131f7010e926c9103558040,,,,,,6131f7010e926c9103558040,Mężczyzna,23,2021-09-06_19h18.46.604,rantool2,2021.1.4,Win32,71.999424,6135e006383e6ea6c3d06a28,61364d3e092b5f02a9b8f88e,"[""period""]",0,[0.41120000000296386],71,0,71,0,1
,,,,,,,6131f7010e926c9103558040,,,,,,6131f7010e926c9103558040,Mężczyzna,23,2021-09-06_19h18.46.604,rantool2,2021.1.4,Win32,71.999424,6135e006383e6ea6c3d06a28,61364d3e092b5f02a9b8f88e,"[""comma""]",0,[0.5264999999999986],72,0,72,0,1
,,,,,,,6131f7010e926c9103558040,,,,,,6131f7010e926c9103558040,Mężczyzna,23,2021-09-06_19h18.46.604,rantool2,2021.1.4,Win32,71.999424,6135e006383e6ea6c3d06a28,61364d3e092b5f02a9b8f88e,"[""comma""]",0,[0.3352000000029989],73,0,73,0,1
,,,,,,,6131f7010e926c9103558040,,,,,,6131f7010e926c9103558040,Mężczyzna,23,2021-09-06_19h18.46.604,rantool2,2021.1.4,Win32,71.999424,6135e006383e6ea6c3d06a28,61364d3e092b5f02a9b8f88e,"[""period"",""period""]",0,"[0.07279999999701658,0.6003999999985581]",74,0,74,0,1
,,,,,,,6131f7010e926c9103558040,,,,,,6131f7010e926c9103558040,Mężczyzna,23,2021-09-06_19h18.46.604,rantool2,2021.1.4,Win32,71.999424,6135e006383e6ea6c3d06a28,61364d3e092b5f02a9b8f88e,"[""period""]",0,[0.46599999999995134],75,0,75,0,1
,,,,,,,6131f7010e926c9103558040,,,,,,6131f7010e926c9103558040,Mężczyzna,23,2021-09-06_19h18.46.604,rantool2,2021.1.4,Win32,71.999424,6135e006383e6ea6c3d06a28,61364d3e092b5f02a9b8f88e,"[""comma""]",0,[0.35149999999998727],76,0,76,0,1
,,,,,,,6131f7010e926c9103558040,,,,,,6131f7010e926c9103558040,Mężczyzna,23,2021-09-06_19h18.46.604,rantool2,2021.1.4,Win32,71.999424,6135e006383e6ea6c3d06a28,61364d3e092b5f02a9b8f88e,"[""comma""]",0,[0.07450000000000045],77,0,77,0,1
,,,,,,,6131f7010e926c9103558040,,,,,,6131f7010e926c9103558040,Mężczyzna,23,2021-09-06_19h18.46.604,rantool2,2021.1.4,Win32,71.999424,6135e006383e6ea6c3d06a28,61364d3e092b5f02a9b8f88e,"[""period""]",0,[0.12749999999999773],78,0,78,0,1
,,,,,,,6131f7010e926c9103558040,,,,,,6131f7010e926c9103558040,Mężczyzna,23,2021-09-06_19h18.46.604,rantool2,2021.1.4,Win32,71.999424,6135e006383e6ea6c3d06a28,61364d3e092b5f02a9b8f88e,"[""comma""]",0,[0.27460000000149876],79,0,79,0,1
,,,,,,,6131f7010e926c9103558040,,,,,,6131f7010e926c9103558040,Mężczyzna,23,2021-09-06_19h18.46.604,rantool2,2021.1.4,Win32,71.999424,6135e006383e6ea6c3d06a28,61364d3e092b5f02a9b8f88e,"[""period""]",0,[0.24189999999850897],80,0,80,0,1
,,,,,,,6131f7010e926c9103558040,,,,,,6131f7010e926c9103558040,Mężczyzna,23,2021-09-06_19h18.46.604,rantool2,2021.1.4,Win32,71.999424,6135e006383e6ea6c3d06a28,61364d3e092b5f02a9b8f88e,"[""comma""]",0,[0.26010000000144373],81,0,81,0,1
,,,,,,,6131f7010e926c9103558040,,,,,,6131f7010e926c9103558040,Mężczyzna,23,2021-09-06_19h18.46.604,rantool2,2021.1.4,Win32,71.999424,6135e006383e6ea6c3d06a28,61364d3e092b5f02a9b8f88e,"[""period""]",0,[0.14939999999847942],82,0,82,0,1
,,,,,,,6131f7010e926c9103558040,,,,,,6131f7010e926c9103558040,Mężczyzna,23,2021-09-06_19h18.46.604,rantool2,2021.1.4,Win32,71.999424,6135e006383e6ea6c3d06a28,61364d3e092b5f02a9b8f88e,"[""comma""]",0,[0.2941000000014924],83,0,83,0,1
,,,,,,,6131f7010e926c9103558040,,,,,,6131f7010e926c9103558040,Mężczyzna,23,2021-09-06_19h18.46.604,rantool2,2021.1.4,Win32,71.999424,6135e006383e6ea6c3d06a28,61364d3e092b5f02a9b8f88e,"[""period""]",0,[0.117999999999995],84,0,84,0,1
,,,,,,,6131f7010e926c9103558040,,,,,,6131f7010e926c9103558040,Mężczyzna,23,2021-09-06_19h18.46.604,rantool2,2021.1.4,Win32,71.999424,6135e006383e6ea6c3d06a28,61364d3e092b5f02a9b8f88e,"[""period""]",0,[0.22360000000151103],85,0,85,0,1
,,,,,,,6131f7010e926c9103558040,,,,,,6131f7010e926c9103558040,Mężczyzna,23,2021-09-06_19h18.46.604,rantool2,2021.1.4,Win32,71.999424,6135e006383e6ea6c3d06a28,61364d3e092b5f02a9b8f88e,"[""period""]",0,[0.26350000000002183],86,0,86,0,1
,,,,,,,6131f7010e926c9103558040,,,,,,6131f7010e926c9103558040,Mężczyzna,23,2021-09-06_19h18.46.604,rantool2,2021.1.4,Win32,71.999424,6135e006383e6ea6c3d06a28,61364d3e092b5f02a9b8f88e,"[""comma""]",0,[0.2823999999985176],87,0,87,0,1
,,,,,,,6131f7010e926c9103558040,,,,,,6131f7010e926c9103558040,Mężczyzna,23,2021-09-06_19h18.46.604,rantool2,2021.1.4,Win32,71.999424,6135e006383e6ea6c3d06a28,61364d3e092b5f02a9b8f88e,"[""comma""]",0,[0.34250000000002956],88,0,88,0,1
,,,,,,,6131f7010e926c9103558040,,,,,,6131f7010e926c9103558040,Mężczyzna,23,2021-09-06_19h18.46.604,rantool2,2021.1.4,Win32,71.999424,6135e006383e6ea6c3d06a28,61364d3e092b5f02a9b8f88e,"[""comma""]",0,[0.21489999999852216],89,0,89,0,1
,,,,,,,6131f7010e926c9103558040,,,,,,6131f7010e926c9103558040,Mężczyzna,23,2021-09-06_19h18.46.604,rantool2,2021.1.4,Win32,71.999424,6135e006383e6ea6c3d06a28,61364d3e092b5f02a9b8f88e,"[""period""]",0,[0.3308999999985076],90,0,90,0,1
,,,,,,,6131f7010e926c9103558040,,,,,,6131f7010e926c9103558040,Mężczyzna,23,2021-09-06_19h18.46.604,rantool2,2021.1.4,Win32,71.999424,6135e006383e6ea6c3d06a28,61364d3e092b5f02a9b8f88e,"[""period""]",0,[0.410799999996982],91,0,91,0,1
,,,,,,,6131f7010e926c9103558040,,,,,,6131f7010e926c9103558040,Mężczyzna,23,2021-09-06_19h18.46.604,rantool2,2021.1.4,Win32,71.999424,6135e006383e6ea6c3d06a28,61364d3e092b5f02a9b8f88e,"[""comma""]",0,[0.3979000000059614],92,0,92,0,1
,,,,,,,6131f7010e926c9103558040,,,,,,6131f7010e926c9103558040,Mężczyzna,23,2021-09-06_19h18.46.604,rantool2,2021.1.4,Win32,71.999424,6135e006383e6ea6c3d06a28,61364d3e092b5f02a9b8f88e,"[""comma""]",0,[0.34739999999851534],93,0,93,0,1
,,,,,,,6131f7010e926c9103558040,,,,,,6131f7010e926c9103558040,Mężczyzna,23,2021-09-06_19h18.46.604,rantool2,2021.1.4,Win32,71.999424,6135e006383e6ea6c3d06a28,61364d3e092b5f02a9b8f88e,"[""period""]",0,[0.36910000000153786],94,0,94,0,1
,,,,,,,6131f7010e926c9103558040,,,,,,6131f7010e926c9103558040,Mężczyzna,23,2021-09-06_19h18.46.604,rantool2,2021.1.4,Win32,71.999424,6135e006383e6ea6c3d06a28,61364d3e092b5f02a9b8f88e,"[""comma""]",0,[0.2612000000029866],95,0,95,0,1
,,,,,,,6131f7010e926c9103558040,,,,,,6131f7010e926c9103558040,Mężczyzna,23,2021-09-06_19h18.46.604,rantool2,2021.1.4,Win32,71.999424,6135e006383e6ea6c3d06a28,61364d3e092b5f02a9b8f88e,"[""comma""]",0,[0.26669999999552374],96,0,96,0,1
,,,,,,,6131f7010e926c9103558040,,,,,,6131f7010e926c9103558040,Mężczyzna,23,2021-09-06_19h18.46.604,rantool2,2021.1.4,Win32,71.999424,6135e006383e6ea6c3d06a28,61364d3e092b5f02a9b8f88e,"[""period""]",0,[0.3677999999970325],97,0,97,0,1
,,,,,,,6131f7010e926c9103558040,,,,,,6131f7010e926c9103558040,Mężczyzna,23,2021-09-06_19h18.46.604,rantool2,2021.1.4,Win32,71.999424,6135e006383e6ea6c3d06a28,61364d3e092b5f02a9b8f88e,"[""comma""]",0,[0.3752999999970257],98,0,98,0,1
,,,,,,,6131f7010e926c9103558040,,,,,,6131f7010e926c9103558040,Mężczyzna,23,2021-09-06_19h18.46.604,rantool2,2021.1.4,Win32,71.999424,6135e006383e6ea6c3d06a28,61364d3e092b5f02a9b8f88e,"[""period""]",0,[0.2131999999955383],99,0,99,0,1
,,,,,,,6131f7010e926c9103558040,,,,,,6131f7010e926c9103558040,Mężczyzna,23,2021-09-06_19h18.46.604,rantool2,2021.1.4,Win32,71.999424,6135e006383e6ea6c3d06a28,61364d3e092b5f02a9b8f88e,"[""comma"",""comma""]",0,"[0.055499999999995,0.9232000000029643]",100,0,100,0,1
,,,,,,,6131f7010e926c9103558040,,,,,,6131f7010e926c9103558040,Mężczyzna,23,2021-09-06_19h18.46.604,rantool2,2021.1.4,Win32,71.999424,6135e006383e6ea6c3d06a28,61364d3e092b5f02a9b8f88e,"[""comma""]",0,[0.3647000000029834],101,0,101,0,1
,,,,,,,6131f7010e926c9103558040,,,,,,6131f7010e926c9103558040,Mężczyzna,23,2021-09-06_19h18.46.604,rantool2,2021.1.4,Win32,71.999424,6135e006383e6ea6c3d06a28,61364d3e092b5f02a9b8f88e,"[""comma""]",0,[0.3589000000059741],102,0,102,0,1
,,,,,,,6131f7010e926c9103558040,,,,,,6131f7010e926c9103558040,Mężczyzna,23,2021-09-06_19h18.46.604,rantool2,2021.1.4,Win32,71.999424,6135e006383e6ea6c3d06a28,61364d3e092b5f02a9b8f88e,"[""comma""]",0,[0.44460000000145783],103,0,103,0,1
,,,,,,,6131f7010e926c9103558040,,,,,,6131f7010e926c9103558040,Mężczyzna,23,2021-09-06_19h18.46.604,rantool2,2021.1.4,Win32,71.999424,6135e006383e6ea6c3d06a28,61364d3e092b5f02a9b8f88e,"[""period""]",0,[0.37999999999999545],104,0,104,0,1
,,,,,,,6131f7010e926c9103558040,,,,,,6131f7010e926c9103558040,Mężczyzna,23,2021-09-06_19h18.46.604,rantool2,2021.1.4,Win32,71.999424,6135e006383e6ea6c3d06a28,61364d3e092b5f02a9b8f88e,"[""period""]",0,[0.49379999999700885],105,0,105,0,1
,,,,,,,6131f7010e926c9103558040,,,,,,6131f7010e926c9103558040,Mężczyzna,23,2021-09-06_19h18.46.604,rantool2,2021.1.4,Win32,71.999424,6135e006383e6ea6c3d06a28,61364d3e092b5f02a9b8f88e,"[""comma""]",0,[0.35390000000597865],106,0,106,0,1
,,,,,,,6131f7010e926c9103558040,,,,,,6131f7010e926c9103558040,Mężczyzna,23,2021-09-06_19h18.46.604,rantool2,2021.1.4,Win32,71.999424,6135e006383e6ea6c3d06a28,61364d3e092b5f02a9b8f88e,"[""period""]",0,[0.36250000000001137],107,0,107,0,1
,,,,,,,6131f7010e926c9103558040,,,,,,6131f7010e926c9103558040,Mężczyzna,23,2021-09-06_19h18.46.604,rantool2,2021.1.4,Win32,71.999424,6135e006383e6ea6c3d06a28,61364d3e092b5f02a9b8f88e,"[""period""]",0,[0.2612999999970498],108,0,108,0,1
,,,,,,,6131f7010e926c9103558040,,,,,,6131f7010e926c9103558040,Mężczyzna,23,2021-09-06_19h18.46.604,rantool2,2021.1.4,Win32,71.999424,6135e006383e6ea6c3d06a28,61364d3e092b5f02a9b8f88e,"[""period""]",0,[0.2883999999984894],109,0,109,0,1
,,,,,,,6131f7010e926c9103558040,,,,,,6131f7010e926c9103558040,Mężczyzna,23,2021-09-06_19h18.46.604,rantool2,2021.1.4,Win32,71.999424,6135e006383e6ea6c3d06a28,61364d3e092b5f02a9b8f88e,"[""period"",""period""]",0,"[0.3463000000044758,0.8273000000044703]",110,0,110,0,1
,,,,,,,6131f7010e926c9103558040,,,,,,6131f7010e926c9103558040,Mężczyzna,23,2021-09-06_19h18.46.604,rantool2,2021.1.4,Win32,71.999424,6135e006383e6ea6c3d06a28,61364d3e092b5f02a9b8f88e,"[""period""]",0,[0.28209999999404545],111,0,111,0,1
,,,,,,,6131f7010e926c9103558040,,,,,,6131f7010e926c9103558040,Mężczyzna,23,2021-09-06_19h18.46.604,rantool2,2021.1.4,Win32,71.999424,6135e006383e6ea6c3d06a28,61364d3e092b5f02a9b8f88e,"[""comma""]",0,[0.3412000000029707],112,0,112,0,1
,,,,,,,6131f7010e926c9103558040,,,,,,6131f7010e926c9103558040,Mężczyzna,23,2021-09-06_19h18.46.604,rantool2,2021.1.4,Win32,71.999424,6135e006383e6ea6c3d06a28,61364d3e092b5f02a9b8f88e,"[""period""]",0,[0.38980000000447035],113,0,113,0,1
,,,,,,,6131f7010e926c9103558040,,,,,,6131f7010e926c9103558040,Mężczyzna,23,2021-09-06_19h18.46.604,rantool2,2021.1.4,Win32,71.999424,6135e006383e6ea6c3d06a28,61364d3e092b5f02a9b8f88e,"[""comma""]",0,[0.26900000000000546],114,0,114,0,1
,,,,,,,6131f7010e926c9103558040,,,,,,6131f7010e926c9103558040,Mężczyzna,23,2021-09-06_19h18.46.604,rantool2,2021.1.4,Win32,71.999424,6135e006383e6ea6c3d06a28,61364d3e092b5f02a9b8f88e,"[""period""]",0,[0.27600000000001046],115,0,115,0,1
,,,,,,,6131f7010e926c9103558040,,,,,,6131f7010e926c9103558040,Mężczyzna,23,2021-09-06_19h18.46.604,rantool2,2021.1.4,Win32,71.999424,6135e006383e6ea6c3d06a28,61364d3e092b5f02a9b8f88e,"[""period""]",0,[0.3066999999955442],116,0,116,0,1
,,,,,,,6131f7010e926c9103558040,,,,,,6131f7010e926c9103558040,Mężczyzna,23,2021-09-06_19h18.46.604,rantool2,2021.1.4,Win32,71.999424,6135e006383e6ea6c3d06a28,61364d3e092b5f02a9b8f88e,"[""comma""]",0,[0.24970000000297432],117,0,117,0,1
,,,,,,,6131f7010e926c9103558040,,,,,,6131f7010e926c9103558040,Mężczyzna,23,2021-09-06_19h18.46.604,rantool2,2021.1.4,Win32,71.999424,6135e006383e6ea6c3d06a28,61364d3e092b5f02a9b8f88e,"[""comma""]",0,[0.2552000000030148],118,0,118,0,1
,,,,,,,6131f7010e926c9103558040,,,,,,6131f7010e926c9103558040,Mężczyzna,23,2021-09-06_19h18.46.604,rantool2,2021.1.4,Win32,71.999424,6135e006383e6ea6c3d06a28,61364d3e092b5f02a9b8f88e,"[""comma""]",0,[0.27489999999852444],119,0,119,0,1
