key_resp_5.keys,key_resp_5.corr,key_resp_5.rt,trials.thisRepN,trials.thisTrialN,trials.thisN,trials.thisIndex,trials.ran,id*,Płeć*,Wiek*,date,expName,psychopyVersion,OS,frameRate,id,STUDY_ID,SESSION_ID,key_resp_7.keys,key_resp_7.rt,trials_2.thisRepN,trials_2.thisTrialN,trials_2.thisN,trials_2.thisIndex,trials_2.ran,series_0,series_1,acss_0,acss_1,comparison
"[""comma""]",0,[1.1606949999695644],0,0,0,0,1,60e9af25803b556d62efa3ca,Mężczyzna,20,2021-07-13_21h53.29.038,rantool2,2021.1.4,Win32,60.36095853,60e9af25803b556d62efa3ca,60d9d14f4a8a35a482e0d9bf,60edef07b6c2df3626e7beed,,,,,,,,,,,,
"[""comma""]",0,[0.41754000005312264],1,0,1,0,1,60e9af25803b556d62efa3ca,Mężczyzna,20,2021-07-13_21h53.29.038,rantool2,2021.1.4,Win32,60.36095853,60e9af25803b556d62efa3ca,60d9d14f4a8a35a482e0d9bf,60edef07b6c2df3626e7beed,,,,,,,,,,,,
"[""period""]",0,[0.2851850000442937],2,0,2,0,1,60e9af25803b556d62efa3ca,Mężczyzna,20,2021-07-13_21h53.29.038,rantool2,2021.1.4,Win32,60.36095853,60e9af25803b556d62efa3ca,60d9d14f4a8a35a482e0d9bf,60edef07b6c2df3626e7beed,,,,,,,,,,,,
"[""comma""]",0,[0.2507800000021234],3,0,3,0,1,60e9af25803b556d62efa3ca,Mężczyzna,20,2021-07-13_21h53.29.038,rantool2,2021.1.4,Win32,60.36095853,60e9af25803b556d62efa3ca,60d9d14f4a8a35a482e0d9bf,60edef07b6c2df3626e7beed,,,,,,,,,,,,
"[""comma""]",0,[0.21892499993555248],4,0,4,0,1,60e9af25803b556d62efa3ca,Mężczyzna,20,2021-07-13_21h53.29.038,rantool2,2021.1.4,Win32,60.36095853,60e9af25803b556d62efa3ca,60d9d14f4a8a35a482e0d9bf,60edef07b6c2df3626e7beed,,,,,,,,,,,,
"[""period""]",0,[0.25051499996334314],5,0,5,0,1,60e9af25803b556d62efa3ca,Mężczyzna,20,2021-07-13_21h53.29.038,rantool2,2021.1.4,Win32,60.36095853,60e9af25803b556d62efa3ca,60d9d14f4a8a35a482e0d9bf,60edef07b6c2df3626e7beed,,,,,,,,,,,,
"[""period""]",0,[0.26728000002913177],6,0,6,0,1,60e9af25803b556d62efa3ca,Mężczyzna,20,2021-07-13_21h53.29.038,rantool2,2021.1.4,Win32,60.36095853,60e9af25803b556d62efa3ca,60d9d14f4a8a35a482e0d9bf,60edef07b6c2df3626e7beed,,,,,,,,,,,,
"[""comma"",""period""]",0,"[0.06779500003904104,1.9004350000759587]",7,0,7,0,1,60e9af25803b556d62efa3ca,Mężczyzna,20,2021-07-13_21h53.29.038,rantool2,2021.1.4,Win32,60.36095853,60e9af25803b556d62efa3ca,60d9d14f4a8a35a482e0d9bf,60edef07b6c2df3626e7beed,,,,,,,,,,,,
0,0,,8,0,8,0,1,60e9af25803b556d62efa3ca,Mężczyzna,20,2021-07-13_21h53.29.038,rantool2,2021.1.4,Win32,60.36095853,60e9af25803b556d62efa3ca,60d9d14f4a8a35a482e0d9bf,60edef07b6c2df3626e7beed,,,,,,,,,,,,
"[""comma""]",0,[0.18395500001497567],9,0,9,0,1,60e9af25803b556d62efa3ca,Mężczyzna,20,2021-07-13_21h53.29.038,rantool2,2021.1.4,Win32,60.36095853,60e9af25803b556d62efa3ca,60d9d14f4a8a35a482e0d9bf,60edef07b6c2df3626e7beed,,,,,,,,,,,,
"[""period""]",0,[0.36690500006079674],10,0,10,0,1,60e9af25803b556d62efa3ca,Mężczyzna,20,2021-07-13_21h53.29.038,rantool2,2021.1.4,Win32,60.36095853,60e9af25803b556d62efa3ca,60d9d14f4a8a35a482e0d9bf,60edef07b6c2df3626e7beed,,,,,,,,,,,,
"[""period""]",0,[0.22434499999508262],11,0,11,0,1,60e9af25803b556d62efa3ca,Mężczyzna,20,2021-07-13_21h53.29.038,rantool2,2021.1.4,Win32,60.36095853,60e9af25803b556d62efa3ca,60d9d14f4a8a35a482e0d9bf,60edef07b6c2df3626e7beed,,,,,,,,,,,,
"[""period""]",0,[0.23910999996587634],12,0,12,0,1,60e9af25803b556d62efa3ca,Mężczyzna,20,2021-07-13_21h53.29.038,rantool2,2021.1.4,Win32,60.36095853,60e9af25803b556d62efa3ca,60d9d14f4a8a35a482e0d9bf,60edef07b6c2df3626e7beed,,,,,,,,,,,,
"[""comma""]",0,[0.1170949999941513],13,0,13,0,1,60e9af25803b556d62efa3ca,Mężczyzna,20,2021-07-13_21h53.29.038,rantool2,2021.1.4,Win32,60.36095853,60e9af25803b556d62efa3ca,60d9d14f4a8a35a482e0d9bf,60edef07b6c2df3626e7beed,,,,,,,,,,,,
"[""period""]",0,[0.23418500006664544],14,0,14,0,1,60e9af25803b556d62efa3ca,Mężczyzna,20,2021-07-13_21h53.29.038,rantool2,2021.1.4,Win32,60.36095853,60e9af25803b556d62efa3ca,60d9d14f4a8a35a482e0d9bf,60edef07b6c2df3626e7beed,,,,,,,,,,,,
"[""comma""]",0,[0.3003550000721589],15,0,15,0,1,60e9af25803b556d62efa3ca,Mężczyzna,20,2021-07-13_21h53.29.038,rantool2,2021.1.4,Win32,60.36095853,60e9af25803b556d62efa3ca,60d9d14f4a8a35a482e0d9bf,60edef07b6c2df3626e7beed,,,,,,,,,,,,
"[""period""]",0,[0.2841150000458583],16,0,16,0,1,60e9af25803b556d62efa3ca,Mężczyzna,20,2021-07-13_21h53.29.038,rantool2,2021.1.4,Win32,60.36095853,60e9af25803b556d62efa3ca,60d9d14f4a8a35a482e0d9bf,60edef07b6c2df3626e7beed,,,,,,,,,,,,
"[""period""]",0,[0.25761500000953674],17,0,17,0,1,60e9af25803b556d62efa3ca,Mężczyzna,20,2021-07-13_21h53.29.038,rantool2,2021.1.4,Win32,60.36095853,60e9af25803b556d62efa3ca,60d9d14f4a8a35a482e0d9bf,60edef07b6c2df3626e7beed,,,,,,,,,,,,
"[""comma""]",0,[0.15271000005304813],18,0,18,0,1,60e9af25803b556d62efa3ca,Mężczyzna,20,2021-07-13_21h53.29.038,rantool2,2021.1.4,Win32,60.36095853,60e9af25803b556d62efa3ca,60d9d14f4a8a35a482e0d9bf,60edef07b6c2df3626e7beed,,,,,,,,,,,,
"[""comma"",""period""]",0,"[0.23487000004388392,1.9340599999995902]",19,0,19,0,1,60e9af25803b556d62efa3ca,Mężczyzna,20,2021-07-13_21h53.29.038,rantool2,2021.1.4,Win32,60.36095853,60e9af25803b556d62efa3ca,60d9d14f4a8a35a482e0d9bf,60edef07b6c2df3626e7beed,,,,,,,,,,,,
"[""comma""]",0,[1.8100800000829622],20,0,20,0,1,60e9af25803b556d62efa3ca,Mężczyzna,20,2021-07-13_21h53.29.038,rantool2,2021.1.4,Win32,60.36095853,60e9af25803b556d62efa3ca,60d9d14f4a8a35a482e0d9bf,60edef07b6c2df3626e7beed,,,,,,,,,,,,
0,0,,21,0,21,0,1,60e9af25803b556d62efa3ca,Mężczyzna,20,2021-07-13_21h53.29.038,rantool2,2021.1.4,Win32,60.36095853,60e9af25803b556d62efa3ca,60d9d14f4a8a35a482e0d9bf,60edef07b6c2df3626e7beed,,,,,,,,,,,,
"[""comma""]",0,[0.26732999994419515],22,0,22,0,1,60e9af25803b556d62efa3ca,Mężczyzna,20,2021-07-13_21h53.29.038,rantool2,2021.1.4,Win32,60.36095853,60e9af25803b556d62efa3ca,60d9d14f4a8a35a482e0d9bf,60edef07b6c2df3626e7beed,,,,,,,,,,,,
"[""comma""]",0,[0.2748549999669194],23,0,23,0,1,60e9af25803b556d62efa3ca,Mężczyzna,20,2021-07-13_21h53.29.038,rantool2,2021.1.4,Win32,60.36095853,60e9af25803b556d62efa3ca,60d9d14f4a8a35a482e0d9bf,60edef07b6c2df3626e7beed,,,,,,,,,,,,
"[""period""]",0,[0.23966000007931143],24,0,24,0,1,60e9af25803b556d62efa3ca,Mężczyzna,20,2021-07-13_21h53.29.038,rantool2,2021.1.4,Win32,60.36095853,60e9af25803b556d62efa3ca,60d9d14f4a8a35a482e0d9bf,60edef07b6c2df3626e7beed,,,,,,,,,,,,
"[""comma""]",0,[0.23403499997220933],25,0,25,0,1,60e9af25803b556d62efa3ca,Mężczyzna,20,2021-07-13_21h53.29.038,rantool2,2021.1.4,Win32,60.36095853,60e9af25803b556d62efa3ca,60d9d14f4a8a35a482e0d9bf,60edef07b6c2df3626e7beed,,,,,,,,,,,,
"[""period""]",0,[0.2341650000307709],26,0,26,0,1,60e9af25803b556d62efa3ca,Mężczyzna,20,2021-07-13_21h53.29.038,rantool2,2021.1.4,Win32,60.36095853,60e9af25803b556d62efa3ca,60d9d14f4a8a35a482e0d9bf,60edef07b6c2df3626e7beed,,,,,,,,,,,,
"[""comma""]",0,[0.23405999992974102],27,0,27,0,1,60e9af25803b556d62efa3ca,Mężczyzna,20,2021-07-13_21h53.29.038,rantool2,2021.1.4,Win32,60.36095853,60e9af25803b556d62efa3ca,60d9d14f4a8a35a482e0d9bf,60edef07b6c2df3626e7beed,,,,,,,,,,,,
"[""period""]",0,[0.3008200000040233],28,0,28,0,1,60e9af25803b556d62efa3ca,Mężczyzna,20,2021-07-13_21h53.29.038,rantool2,2021.1.4,Win32,60.36095853,60e9af25803b556d62efa3ca,60d9d14f4a8a35a482e0d9bf,60edef07b6c2df3626e7beed,,,,,,,,,,,,
"[""period""]",0,[0.4512399999657646],29,0,29,0,1,60e9af25803b556d62efa3ca,Mężczyzna,20,2021-07-13_21h53.29.038,rantool2,2021.1.4,Win32,60.36095853,60e9af25803b556d62efa3ca,60d9d14f4a8a35a482e0d9bf,60edef07b6c2df3626e7beed,,,,,,,,,,,,
"[""comma""]",0,[0.2673750000540167],30,0,30,0,1,60e9af25803b556d62efa3ca,Mężczyzna,20,2021-07-13_21h53.29.038,rantool2,2021.1.4,Win32,60.36095853,60e9af25803b556d62efa3ca,60d9d14f4a8a35a482e0d9bf,60edef07b6c2df3626e7beed,,,,,,,,,,,,
"[""period""]",0,[0.2841049999697134],31,0,31,0,1,60e9af25803b556d62efa3ca,Mężczyzna,20,2021-07-13_21h53.29.038,rantool2,2021.1.4,Win32,60.36095853,60e9af25803b556d62efa3ca,60d9d14f4a8a35a482e0d9bf,60edef07b6c2df3626e7beed,,,,,,,,,,,,
"[""comma""]",0,[0.23384999996051192],32,0,32,0,1,60e9af25803b556d62efa3ca,Mężczyzna,20,2021-07-13_21h53.29.038,rantool2,2021.1.4,Win32,60.36095853,60e9af25803b556d62efa3ca,60d9d14f4a8a35a482e0d9bf,60edef07b6c2df3626e7beed,,,,,,,,,,,,
"[""comma""]",0,[0.2343599998857826],33,0,33,0,1,60e9af25803b556d62efa3ca,Mężczyzna,20,2021-07-13_21h53.29.038,rantool2,2021.1.4,Win32,60.36095853,60e9af25803b556d62efa3ca,60d9d14f4a8a35a482e0d9bf,60edef07b6c2df3626e7beed,,,,,,,,,,,,
"[""comma""]",0,[0.30170000006910414],34,0,34,0,1,60e9af25803b556d62efa3ca,Mężczyzna,20,2021-07-13_21h53.29.038,rantool2,2021.1.4,Win32,60.36095853,60e9af25803b556d62efa3ca,60d9d14f4a8a35a482e0d9bf,60edef07b6c2df3626e7beed,,,,,,,,,,,,
"[""comma""]",0,[0.28354999993462116],35,0,35,0,1,60e9af25803b556d62efa3ca,Mężczyzna,20,2021-07-13_21h53.29.038,rantool2,2021.1.4,Win32,60.36095853,60e9af25803b556d62efa3ca,60d9d14f4a8a35a482e0d9bf,60edef07b6c2df3626e7beed,,,,,,,,,,,,
"[""period""]",0,[0.23358999995980412],36,0,36,0,1,60e9af25803b556d62efa3ca,Mężczyzna,20,2021-07-13_21h53.29.038,rantool2,2021.1.4,Win32,60.36095853,60e9af25803b556d62efa3ca,60d9d14f4a8a35a482e0d9bf,60edef07b6c2df3626e7beed,,,,,,,,,,,,
"[""comma""]",0,[0.20056000002659857],37,0,37,0,1,60e9af25803b556d62efa3ca,Mężczyzna,20,2021-07-13_21h53.29.038,rantool2,2021.1.4,Win32,60.36095853,60e9af25803b556d62efa3ca,60d9d14f4a8a35a482e0d9bf,60edef07b6c2df3626e7beed,,,,,,,,,,,,
"[""comma""]",0,[0.2085750000551343],38,0,38,0,1,60e9af25803b556d62efa3ca,Mężczyzna,20,2021-07-13_21h53.29.038,rantool2,2021.1.4,Win32,60.36095853,60e9af25803b556d62efa3ca,60d9d14f4a8a35a482e0d9bf,60edef07b6c2df3626e7beed,,,,,,,,,,,,
"[""period""]",0,[0.26915499998722225],39,0,39,0,1,60e9af25803b556d62efa3ca,Mężczyzna,20,2021-07-13_21h53.29.038,rantool2,2021.1.4,Win32,60.36095853,60e9af25803b556d62efa3ca,60d9d14f4a8a35a482e0d9bf,60edef07b6c2df3626e7beed,,,,,,,,,,,,
"[""period""]",0,[0.24250000005122274],40,0,40,0,1,60e9af25803b556d62efa3ca,Mężczyzna,20,2021-07-13_21h53.29.038,rantool2,2021.1.4,Win32,60.36095853,60e9af25803b556d62efa3ca,60d9d14f4a8a35a482e0d9bf,60edef07b6c2df3626e7beed,,,,,,,,,,,,
"[""period""]",0,[0.2552249999716878],41,0,41,0,1,60e9af25803b556d62efa3ca,Mężczyzna,20,2021-07-13_21h53.29.038,rantool2,2021.1.4,Win32,60.36095853,60e9af25803b556d62efa3ca,60d9d14f4a8a35a482e0d9bf,60edef07b6c2df3626e7beed,,,,,,,,,,,,
"[""comma""]",0,[0.26201000006403774],42,0,42,0,1,60e9af25803b556d62efa3ca,Mężczyzna,20,2021-07-13_21h53.29.038,rantool2,2021.1.4,Win32,60.36095853,60e9af25803b556d62efa3ca,60d9d14f4a8a35a482e0d9bf,60edef07b6c2df3626e7beed,,,,,,,,,,,,
"[""period""]",0,[0.23519499995745718],43,0,43,0,1,60e9af25803b556d62efa3ca,Mężczyzna,20,2021-07-13_21h53.29.038,rantool2,2021.1.4,Win32,60.36095853,60e9af25803b556d62efa3ca,60d9d14f4a8a35a482e0d9bf,60edef07b6c2df3626e7beed,,,,,,,,,,,,
"[""comma""]",0,[0.26944500009994954],44,0,44,0,1,60e9af25803b556d62efa3ca,Mężczyzna,20,2021-07-13_21h53.29.038,rantool2,2021.1.4,Win32,60.36095853,60e9af25803b556d62efa3ca,60d9d14f4a8a35a482e0d9bf,60edef07b6c2df3626e7beed,,,,,,,,,,,,
"[""comma""]",0,[0.300929999910295],45,0,45,0,1,60e9af25803b556d62efa3ca,Mężczyzna,20,2021-07-13_21h53.29.038,rantool2,2021.1.4,Win32,60.36095853,60e9af25803b556d62efa3ca,60d9d14f4a8a35a482e0d9bf,60edef07b6c2df3626e7beed,,,,,,,,,,,,
"[""period""]",0,[0.2620149999856949],46,0,46,0,1,60e9af25803b556d62efa3ca,Mężczyzna,20,2021-07-13_21h53.29.038,rantool2,2021.1.4,Win32,60.36095853,60e9af25803b556d62efa3ca,60d9d14f4a8a35a482e0d9bf,60edef07b6c2df3626e7beed,,,,,,,,,,,,
"[""comma""]",0,[0.2673400000203401],47,0,47,0,1,60e9af25803b556d62efa3ca,Mężczyzna,20,2021-07-13_21h53.29.038,rantool2,2021.1.4,Win32,60.36095853,60e9af25803b556d62efa3ca,60d9d14f4a8a35a482e0d9bf,60edef07b6c2df3626e7beed,,,,,,,,,,,,
"[""period""]",0,[0.26749500003643334],48,0,48,0,1,60e9af25803b556d62efa3ca,Mężczyzna,20,2021-07-13_21h53.29.038,rantool2,2021.1.4,Win32,60.36095853,60e9af25803b556d62efa3ca,60d9d14f4a8a35a482e0d9bf,60edef07b6c2df3626e7beed,,,,,,,,,,,,
"[""period""]",0,[0.250789999961853],49,0,49,0,1,60e9af25803b556d62efa3ca,Mężczyzna,20,2021-07-13_21h53.29.038,rantool2,2021.1.4,Win32,60.36095853,60e9af25803b556d62efa3ca,60d9d14f4a8a35a482e0d9bf,60edef07b6c2df3626e7beed,,,,,,,,,,,,
"[""period""]",0,[0.28310500003863126],50,0,50,0,1,60e9af25803b556d62efa3ca,Mężczyzna,20,2021-07-13_21h53.29.038,rantool2,2021.1.4,Win32,60.36095853,60e9af25803b556d62efa3ca,60d9d14f4a8a35a482e0d9bf,60edef07b6c2df3626e7beed,,,,,,,,,,,,
"[""comma""]",0,[0.25059000006876886],51,0,51,0,1,60e9af25803b556d62efa3ca,Mężczyzna,20,2021-07-13_21h53.29.038,rantool2,2021.1.4,Win32,60.36095853,60e9af25803b556d62efa3ca,60d9d14f4a8a35a482e0d9bf,60edef07b6c2df3626e7beed,,,,,,,,,,,,
"[""comma""]",0,[0.22745500004384667],52,0,52,0,1,60e9af25803b556d62efa3ca,Mężczyzna,20,2021-07-13_21h53.29.038,rantool2,2021.1.4,Win32,60.36095853,60e9af25803b556d62efa3ca,60d9d14f4a8a35a482e0d9bf,60edef07b6c2df3626e7beed,,,,,,,,,,,,
"[""period""]",0,[0.24110000010114163],53,0,53,0,1,60e9af25803b556d62efa3ca,Mężczyzna,20,2021-07-13_21h53.29.038,rantool2,2021.1.4,Win32,60.36095853,60e9af25803b556d62efa3ca,60d9d14f4a8a35a482e0d9bf,60edef07b6c2df3626e7beed,,,,,,,,,,,,
"[""period""]",0,[0.15639000001829118],54,0,54,0,1,60e9af25803b556d62efa3ca,Mężczyzna,20,2021-07-13_21h53.29.038,rantool2,2021.1.4,Win32,60.36095853,60e9af25803b556d62efa3ca,60d9d14f4a8a35a482e0d9bf,60edef07b6c2df3626e7beed,,,,,,,,,,,,
"[""comma""]",0,[0.267325000022538],55,0,55,0,1,60e9af25803b556d62efa3ca,Mężczyzna,20,2021-07-13_21h53.29.038,rantool2,2021.1.4,Win32,60.36095853,60e9af25803b556d62efa3ca,60d9d14f4a8a35a482e0d9bf,60edef07b6c2df3626e7beed,,,,,,,,,,,,
"[""period""]",0,[0.2509149999823421],56,0,56,0,1,60e9af25803b556d62efa3ca,Mężczyzna,20,2021-07-13_21h53.29.038,rantool2,2021.1.4,Win32,60.36095853,60e9af25803b556d62efa3ca,60d9d14f4a8a35a482e0d9bf,60edef07b6c2df3626e7beed,,,,,,,,,,,,
"[""comma""]",0,[0.38376499991863966],57,0,57,0,1,60e9af25803b556d62efa3ca,Mężczyzna,20,2021-07-13_21h53.29.038,rantool2,2021.1.4,Win32,60.36095853,60e9af25803b556d62efa3ca,60d9d14f4a8a35a482e0d9bf,60edef07b6c2df3626e7beed,,,,,,,,,,,,
"[""comma""]",0,[0.39916999998968095],58,0,58,0,1,60e9af25803b556d62efa3ca,Mężczyzna,20,2021-07-13_21h53.29.038,rantool2,2021.1.4,Win32,60.36095853,60e9af25803b556d62efa3ca,60d9d14f4a8a35a482e0d9bf,60edef07b6c2df3626e7beed,,,,,,,,,,,,
"[""period""]",0,[0.23390999995172024],59,0,59,0,1,60e9af25803b556d62efa3ca,Mężczyzna,20,2021-07-13_21h53.29.038,rantool2,2021.1.4,Win32,60.36095853,60e9af25803b556d62efa3ca,60d9d14f4a8a35a482e0d9bf,60edef07b6c2df3626e7beed,,,,,,,,,,,,
"[""comma""]",0,[0.08422499999869615],60,0,60,0,1,60e9af25803b556d62efa3ca,Mężczyzna,20,2021-07-13_21h53.29.038,rantool2,2021.1.4,Win32,60.36095853,60e9af25803b556d62efa3ca,60d9d14f4a8a35a482e0d9bf,60edef07b6c2df3626e7beed,,,,,,,,,,,,
"[""comma""]",0,[0.0046950000105425715],61,0,61,0,1,60e9af25803b556d62efa3ca,Mężczyzna,20,2021-07-13_21h53.29.038,rantool2,2021.1.4,Win32,60.36095853,60e9af25803b556d62efa3ca,60d9d14f4a8a35a482e0d9bf,60edef07b6c2df3626e7beed,,,,,,,,,,,,
"[""period""]",0,[0.25744000007398427],62,0,62,0,1,60e9af25803b556d62efa3ca,Mężczyzna,20,2021-07-13_21h53.29.038,rantool2,2021.1.4,Win32,60.36095853,60e9af25803b556d62efa3ca,60d9d14f4a8a35a482e0d9bf,60edef07b6c2df3626e7beed,,,,,,,,,,,,
"[""comma""]",0,[0.11775999993551522],63,0,63,0,1,60e9af25803b556d62efa3ca,Mężczyzna,20,2021-07-13_21h53.29.038,rantool2,2021.1.4,Win32,60.36095853,60e9af25803b556d62efa3ca,60d9d14f4a8a35a482e0d9bf,60edef07b6c2df3626e7beed,,,,,,,,,,,,
"[""period""]",0,[0.19127000006847084],64,0,64,0,1,60e9af25803b556d62efa3ca,Mężczyzna,20,2021-07-13_21h53.29.038,rantool2,2021.1.4,Win32,60.36095853,60e9af25803b556d62efa3ca,60d9d14f4a8a35a482e0d9bf,60edef07b6c2df3626e7beed,,,,,,,,,,,,
"[""period""]",0,[0.2843150000553578],65,0,65,0,1,60e9af25803b556d62efa3ca,Mężczyzna,20,2021-07-13_21h53.29.038,rantool2,2021.1.4,Win32,60.36095853,60e9af25803b556d62efa3ca,60d9d14f4a8a35a482e0d9bf,60edef07b6c2df3626e7beed,,,,,,,,,,,,
"[""period""]",0,[0.22341500001493841],66,0,66,0,1,60e9af25803b556d62efa3ca,Mężczyzna,20,2021-07-13_21h53.29.038,rantool2,2021.1.4,Win32,60.36095853,60e9af25803b556d62efa3ca,60d9d14f4a8a35a482e0d9bf,60edef07b6c2df3626e7beed,,,,,,,,,,,,
"[""comma""]",0,[0.2836599999573082],67,0,67,0,1,60e9af25803b556d62efa3ca,Mężczyzna,20,2021-07-13_21h53.29.038,rantool2,2021.1.4,Win32,60.36095853,60e9af25803b556d62efa3ca,60d9d14f4a8a35a482e0d9bf,60edef07b6c2df3626e7beed,,,,,,,,,,,,
"[""comma""]",0,[0.21817000000737607],68,0,68,0,1,60e9af25803b556d62efa3ca,Mężczyzna,20,2021-07-13_21h53.29.038,rantool2,2021.1.4,Win32,60.36095853,60e9af25803b556d62efa3ca,60d9d14f4a8a35a482e0d9bf,60edef07b6c2df3626e7beed,,,,,,,,,,,,
"[""period""]",0,[0.20171499997377396],69,0,69,0,1,60e9af25803b556d62efa3ca,Mężczyzna,20,2021-07-13_21h53.29.038,rantool2,2021.1.4,Win32,60.36095853,60e9af25803b556d62efa3ca,60d9d14f4a8a35a482e0d9bf,60edef07b6c2df3626e7beed,,,,,,,,,,,,
"[""period""]",0,[0.017419999931007624],70,0,70,0,1,60e9af25803b556d62efa3ca,Mężczyzna,20,2021-07-13_21h53.29.038,rantool2,2021.1.4,Win32,60.36095853,60e9af25803b556d62efa3ca,60d9d14f4a8a35a482e0d9bf,60edef07b6c2df3626e7beed,,,,,,,,,,,,
"[""comma""]",0,[0.30039500002749264],71,0,71,0,1,60e9af25803b556d62efa3ca,Mężczyzna,20,2021-07-13_21h53.29.038,rantool2,2021.1.4,Win32,60.36095853,60e9af25803b556d62efa3ca,60d9d14f4a8a35a482e0d9bf,60edef07b6c2df3626e7beed,,,,,,,,,,,,
"[""comma""]",0,[0.39864999998826534],72,0,72,0,1,60e9af25803b556d62efa3ca,Mężczyzna,20,2021-07-13_21h53.29.038,rantool2,2021.1.4,Win32,60.36095853,60e9af25803b556d62efa3ca,60d9d14f4a8a35a482e0d9bf,60edef07b6c2df3626e7beed,,,,,,,,,,,,
"[""period""]",0,[0.30027999996673316],73,0,73,0,1,60e9af25803b556d62efa3ca,Mężczyzna,20,2021-07-13_21h53.29.038,rantool2,2021.1.4,Win32,60.36095853,60e9af25803b556d62efa3ca,60d9d14f4a8a35a482e0d9bf,60edef07b6c2df3626e7beed,,,,,,,,,,,,
"[""comma""]",0,[0.30101499997545034],74,0,74,0,1,60e9af25803b556d62efa3ca,Mężczyzna,20,2021-07-13_21h53.29.038,rantool2,2021.1.4,Win32,60.36095853,60e9af25803b556d62efa3ca,60d9d14f4a8a35a482e0d9bf,60edef07b6c2df3626e7beed,,,,,,,,,,,,
"[""comma""]",0,[0.25953999999910593],75,0,75,0,1,60e9af25803b556d62efa3ca,Mężczyzna,20,2021-07-13_21h53.29.038,rantool2,2021.1.4,Win32,60.36095853,60e9af25803b556d62efa3ca,60d9d14f4a8a35a482e0d9bf,60edef07b6c2df3626e7beed,,,,,,,,,,,,
"[""period""]",0,[0.2614450000692159],76,0,76,0,1,60e9af25803b556d62efa3ca,Mężczyzna,20,2021-07-13_21h53.29.038,rantool2,2021.1.4,Win32,60.36095853,60e9af25803b556d62efa3ca,60d9d14f4a8a35a482e0d9bf,60edef07b6c2df3626e7beed,,,,,,,,,,,,
"[""comma""]",0,[0.2844050000421703],77,0,77,0,1,60e9af25803b556d62efa3ca,Mężczyzna,20,2021-07-13_21h53.29.038,rantool2,2021.1.4,Win32,60.36095853,60e9af25803b556d62efa3ca,60d9d14f4a8a35a482e0d9bf,60edef07b6c2df3626e7beed,,,,,,,,,,,,
"[""period""]",0,[0.30079999996814877],78,0,78,0,1,60e9af25803b556d62efa3ca,Mężczyzna,20,2021-07-13_21h53.29.038,rantool2,2021.1.4,Win32,60.36095853,60e9af25803b556d62efa3ca,60d9d14f4a8a35a482e0d9bf,60edef07b6c2df3626e7beed,,,,,,,,,,,,
"[""comma""]",0,[0.30143500003032386],79,0,79,0,1,60e9af25803b556d62efa3ca,Mężczyzna,20,2021-07-13_21h53.29.038,rantool2,2021.1.4,Win32,60.36095853,60e9af25803b556d62efa3ca,60d9d14f4a8a35a482e0d9bf,60edef07b6c2df3626e7beed,,,,,,,,,,,,
"[""period""]",0,[0.24279499996919185],80,0,80,0,1,60e9af25803b556d62efa3ca,Mężczyzna,20,2021-07-13_21h53.29.038,rantool2,2021.1.4,Win32,60.36095853,60e9af25803b556d62efa3ca,60d9d14f4a8a35a482e0d9bf,60edef07b6c2df3626e7beed,,,,,,,,,,,,
"[""comma""]",0,[0.250484999967739],81,0,81,0,1,60e9af25803b556d62efa3ca,Mężczyzna,20,2021-07-13_21h53.29.038,rantool2,2021.1.4,Win32,60.36095853,60e9af25803b556d62efa3ca,60d9d14f4a8a35a482e0d9bf,60edef07b6c2df3626e7beed,,,,,,,,,,,,
"[""comma""]",0,[0.2675599999492988],82,0,82,0,1,60e9af25803b556d62efa3ca,Mężczyzna,20,2021-07-13_21h53.29.038,rantool2,2021.1.4,Win32,60.36095853,60e9af25803b556d62efa3ca,60d9d14f4a8a35a482e0d9bf,60edef07b6c2df3626e7beed,,,,,,,,,,,,
"[""period""]",0,[0.23427000001538545],83,0,83,0,1,60e9af25803b556d62efa3ca,Mężczyzna,20,2021-07-13_21h53.29.038,rantool2,2021.1.4,Win32,60.36095853,60e9af25803b556d62efa3ca,60d9d14f4a8a35a482e0d9bf,60edef07b6c2df3626e7beed,,,,,,,,,,,,
"[""comma""]",0,[0.2876499999547377],84,0,84,0,1,60e9af25803b556d62efa3ca,Mężczyzna,20,2021-07-13_21h53.29.038,rantool2,2021.1.4,Win32,60.36095853,60e9af25803b556d62efa3ca,60d9d14f4a8a35a482e0d9bf,60edef07b6c2df3626e7beed,,,,,,,,,,,,
"[""period""]",0,[0.3226550000254065],85,0,85,0,1,60e9af25803b556d62efa3ca,Mężczyzna,20,2021-07-13_21h53.29.038,rantool2,2021.1.4,Win32,60.36095853,60e9af25803b556d62efa3ca,60d9d14f4a8a35a482e0d9bf,60edef07b6c2df3626e7beed,,,,,,,,,,,,
"[""period""]",0,[0.2995299999602139],86,0,86,0,1,60e9af25803b556d62efa3ca,Mężczyzna,20,2021-07-13_21h53.29.038,rantool2,2021.1.4,Win32,60.36095853,60e9af25803b556d62efa3ca,60d9d14f4a8a35a482e0d9bf,60edef07b6c2df3626e7beed,,,,,,,,,,,,
"[""period""]",0,[0.2847599999513477],87,0,87,0,1,60e9af25803b556d62efa3ca,Mężczyzna,20,2021-07-13_21h53.29.038,rantool2,2021.1.4,Win32,60.36095853,60e9af25803b556d62efa3ca,60d9d14f4a8a35a482e0d9bf,60edef07b6c2df3626e7beed,,,,,,,,,,,,
"[""comma""]",0,[0.25667000003159046],88,0,88,0,1,60e9af25803b556d62efa3ca,Mężczyzna,20,2021-07-13_21h53.29.038,rantool2,2021.1.4,Win32,60.36095853,60e9af25803b556d62efa3ca,60d9d14f4a8a35a482e0d9bf,60edef07b6c2df3626e7beed,,,,,,,,,,,,
"[""comma""]",0,[0.20063500001560897],89,0,89,0,1,60e9af25803b556d62efa3ca,Mężczyzna,20,2021-07-13_21h53.29.038,rantool2,2021.1.4,Win32,60.36095853,60e9af25803b556d62efa3ca,60d9d14f4a8a35a482e0d9bf,60edef07b6c2df3626e7beed,,,,,,,,,,,,
"[""period""]",0,[0.23389500007033348],90,0,90,0,1,60e9af25803b556d62efa3ca,Mężczyzna,20,2021-07-13_21h53.29.038,rantool2,2021.1.4,Win32,60.36095853,60e9af25803b556d62efa3ca,60d9d14f4a8a35a482e0d9bf,60edef07b6c2df3626e7beed,,,,,,,,,,,,
"[""comma""]",0,[0.26757000002544373],91,0,91,0,1,60e9af25803b556d62efa3ca,Mężczyzna,20,2021-07-13_21h53.29.038,rantool2,2021.1.4,Win32,60.36095853,60e9af25803b556d62efa3ca,60d9d14f4a8a35a482e0d9bf,60edef07b6c2df3626e7beed,,,,,,,,,,,,
"[""comma""]",0,[0.2338549999985844],92,0,92,0,1,60e9af25803b556d62efa3ca,Mężczyzna,20,2021-07-13_21h53.29.038,rantool2,2021.1.4,Win32,60.36095853,60e9af25803b556d62efa3ca,60d9d14f4a8a35a482e0d9bf,60edef07b6c2df3626e7beed,,,,,,,,,,,,
"[""period"",""period""]",0,"[0.15677999996114522,1.884055000031367]",93,0,93,0,1,60e9af25803b556d62efa3ca,Mężczyzna,20,2021-07-13_21h53.29.038,rantool2,2021.1.4,Win32,60.36095853,60e9af25803b556d62efa3ca,60d9d14f4a8a35a482e0d9bf,60edef07b6c2df3626e7beed,,,,,,,,,,,,
0,0,,94,0,94,0,1,60e9af25803b556d62efa3ca,Mężczyzna,20,2021-07-13_21h53.29.038,rantool2,2021.1.4,Win32,60.36095853,60e9af25803b556d62efa3ca,60d9d14f4a8a35a482e0d9bf,60edef07b6c2df3626e7beed,,,,,,,,,,,,
"[""comma""]",0,[0.24504500010516495],95,0,95,0,1,60e9af25803b556d62efa3ca,Mężczyzna,20,2021-07-13_21h53.29.038,rantool2,2021.1.4,Win32,60.36095853,60e9af25803b556d62efa3ca,60d9d14f4a8a35a482e0d9bf,60edef07b6c2df3626e7beed,,,,,,,,,,,,
"[""period""]",0,[0.2530249999836087],96,0,96,0,1,60e9af25803b556d62efa3ca,Mężczyzna,20,2021-07-13_21h53.29.038,rantool2,2021.1.4,Win32,60.36095853,60e9af25803b556d62efa3ca,60d9d14f4a8a35a482e0d9bf,60edef07b6c2df3626e7beed,,,,,,,,,,,,
"[""period""]",0,[0.2678250001044944],97,0,97,0,1,60e9af25803b556d62efa3ca,Mężczyzna,20,2021-07-13_21h53.29.038,rantool2,2021.1.4,Win32,60.36095853,60e9af25803b556d62efa3ca,60d9d14f4a8a35a482e0d9bf,60edef07b6c2df3626e7beed,,,,,,,,,,,,
"[""comma""]",0,[0.3009000000311062],98,0,98,0,1,60e9af25803b556d62efa3ca,Mężczyzna,20,2021-07-13_21h53.29.038,rantool2,2021.1.4,Win32,60.36095853,60e9af25803b556d62efa3ca,60d9d14f4a8a35a482e0d9bf,60edef07b6c2df3626e7beed,,,,,,,,,,,,
"[""comma""]",0,[0.31594500003848225],99,0,99,0,1,60e9af25803b556d62efa3ca,Mężczyzna,20,2021-07-13_21h53.29.038,rantool2,2021.1.4,Win32,60.36095853,60e9af25803b556d62efa3ca,60d9d14f4a8a35a482e0d9bf,60edef07b6c2df3626e7beed,,,,,,,,,,,,
"[""comma""]",0,[0.28359999996609986],100,0,100,0,1,60e9af25803b556d62efa3ca,Mężczyzna,20,2021-07-13_21h53.29.038,rantool2,2021.1.4,Win32,60.36095853,60e9af25803b556d62efa3ca,60d9d14f4a8a35a482e0d9bf,60edef07b6c2df3626e7beed,,,,,,,,,,,,
"[""period""]",0,[0.2511499999091029],101,0,101,0,1,60e9af25803b556d62efa3ca,Mężczyzna,20,2021-07-13_21h53.29.038,rantool2,2021.1.4,Win32,60.36095853,60e9af25803b556d62efa3ca,60d9d14f4a8a35a482e0d9bf,60edef07b6c2df3626e7beed,,,,,,,,,,,,
"[""period""]",0,[0.22417499998118728],102,0,102,0,1,60e9af25803b556d62efa3ca,Mężczyzna,20,2021-07-13_21h53.29.038,rantool2,2021.1.4,Win32,60.36095853,60e9af25803b556d62efa3ca,60d9d14f4a8a35a482e0d9bf,60edef07b6c2df3626e7beed,,,,,,,,,,,,
"[""comma""]",0,[0.25133499992080033],103,0,103,0,1,60e9af25803b556d62efa3ca,Mężczyzna,20,2021-07-13_21h53.29.038,rantool2,2021.1.4,Win32,60.36095853,60e9af25803b556d62efa3ca,60d9d14f4a8a35a482e0d9bf,60edef07b6c2df3626e7beed,,,,,,,,,,,,
"[""period""]",0,[0.2528049999382347],104,0,104,0,1,60e9af25803b556d62efa3ca,Mężczyzna,20,2021-07-13_21h53.29.038,rantool2,2021.1.4,Win32,60.36095853,60e9af25803b556d62efa3ca,60d9d14f4a8a35a482e0d9bf,60edef07b6c2df3626e7beed,,,,,,,,,,,,
"[""comma""]",0,[0.2557699999306351],105,0,105,0,1,60e9af25803b556d62efa3ca,Mężczyzna,20,2021-07-13_21h53.29.038,rantool2,2021.1.4,Win32,60.36095853,60e9af25803b556d62efa3ca,60d9d14f4a8a35a482e0d9bf,60edef07b6c2df3626e7beed,,,,,,,,,,,,
"[""period""]",0,[0.26737000001594424],106,0,106,0,1,60e9af25803b556d62efa3ca,Mężczyzna,20,2021-07-13_21h53.29.038,rantool2,2021.1.4,Win32,60.36095853,60e9af25803b556d62efa3ca,60d9d14f4a8a35a482e0d9bf,60edef07b6c2df3626e7beed,,,,,,,,,,,,
"[""period""]",0,[0.06920999998692423],107,0,107,0,1,60e9af25803b556d62efa3ca,Mężczyzna,20,2021-07-13_21h53.29.038,rantool2,2021.1.4,Win32,60.36095853,60e9af25803b556d62efa3ca,60d9d14f4a8a35a482e0d9bf,60edef07b6c2df3626e7beed,,,,,,,,,,,,
"[""comma""]",0,[0.25108499999623746],108,0,108,0,1,60e9af25803b556d62efa3ca,Mężczyzna,20,2021-07-13_21h53.29.038,rantool2,2021.1.4,Win32,60.36095853,60e9af25803b556d62efa3ca,60d9d14f4a8a35a482e0d9bf,60edef07b6c2df3626e7beed,,,,,,,,,,,,
"[""comma""]",0,[0.28373999998439103],109,0,109,0,1,60e9af25803b556d62efa3ca,Mężczyzna,20,2021-07-13_21h53.29.038,rantool2,2021.1.4,Win32,60.36095853,60e9af25803b556d62efa3ca,60d9d14f4a8a35a482e0d9bf,60edef07b6c2df3626e7beed,,,,,,,,,,,,
"[""period""]",0,[0.3004600000567734],110,0,110,0,1,60e9af25803b556d62efa3ca,Mężczyzna,20,2021-07-13_21h53.29.038,rantool2,2021.1.4,Win32,60.36095853,60e9af25803b556d62efa3ca,60d9d14f4a8a35a482e0d9bf,60edef07b6c2df3626e7beed,,,,,,,,,,,,
"[""period""]",0,[0.2836600000737235],111,0,111,0,1,60e9af25803b556d62efa3ca,Mężczyzna,20,2021-07-13_21h53.29.038,rantool2,2021.1.4,Win32,60.36095853,60e9af25803b556d62efa3ca,60d9d14f4a8a35a482e0d9bf,60edef07b6c2df3626e7beed,,,,,,,,,,,,
"[""comma""]",0,[0.28419999999459833],112,0,112,0,1,60e9af25803b556d62efa3ca,Mężczyzna,20,2021-07-13_21h53.29.038,rantool2,2021.1.4,Win32,60.36095853,60e9af25803b556d62efa3ca,60d9d14f4a8a35a482e0d9bf,60edef07b6c2df3626e7beed,,,,,,,,,,,,
"[""period"",""comma""]",0,"[0.25087500002700835,1.9504799999995157]",113,0,113,0,1,60e9af25803b556d62efa3ca,Mężczyzna,20,2021-07-13_21h53.29.038,rantool2,2021.1.4,Win32,60.36095853,60e9af25803b556d62efa3ca,60d9d14f4a8a35a482e0d9bf,60edef07b6c2df3626e7beed,,,,,,,,,,,,
0,0,,114,0,114,0,1,60e9af25803b556d62efa3ca,Mężczyzna,20,2021-07-13_21h53.29.038,rantool2,2021.1.4,Win32,60.36095853,60e9af25803b556d62efa3ca,60d9d14f4a8a35a482e0d9bf,60edef07b6c2df3626e7beed,,,,,,,,,,,,
"[""comma""]",0,[0.28491499996744096],115,0,115,0,1,60e9af25803b556d62efa3ca,Mężczyzna,20,2021-07-13_21h53.29.038,rantool2,2021.1.4,Win32,60.36095853,60e9af25803b556d62efa3ca,60d9d14f4a8a35a482e0d9bf,60edef07b6c2df3626e7beed,,,,,,,,,,,,
"[""comma""]",0,[0.2674750000005588],116,0,116,0,1,60e9af25803b556d62efa3ca,Mężczyzna,20,2021-07-13_21h53.29.038,rantool2,2021.1.4,Win32,60.36095853,60e9af25803b556d62efa3ca,60d9d14f4a8a35a482e0d9bf,60edef07b6c2df3626e7beed,,,,,,,,,,,,
"[""period""]",0,[0.2839649999514222],117,0,117,0,1,60e9af25803b556d62efa3ca,Mężczyzna,20,2021-07-13_21h53.29.038,rantool2,2021.1.4,Win32,60.36095853,60e9af25803b556d62efa3ca,60d9d14f4a8a35a482e0d9bf,60edef07b6c2df3626e7beed,,,,,,,,,,,,
"[""comma""]",0,[0.2838850000407547],118,0,118,0,1,60e9af25803b556d62efa3ca,Mężczyzna,20,2021-07-13_21h53.29.038,rantool2,2021.1.4,Win32,60.36095853,60e9af25803b556d62efa3ca,60d9d14f4a8a35a482e0d9bf,60edef07b6c2df3626e7beed,,,,,,,,,,,,
"[""comma""]",0,[0.25055500003509223],119,0,119,0,1,60e9af25803b556d62efa3ca,Mężczyzna,20,2021-07-13_21h53.29.038,rantool2,2021.1.4,Win32,60.36095853,60e9af25803b556d62efa3ca,60d9d14f4a8a35a482e0d9bf,60edef07b6c2df3626e7beed,,,,,,,,,,,,
,,,,,,,,60e9af25803b556d62efa3ca,Mężczyzna,20,2021-07-13_21h53.29.038,rantool2,2021.1.4,Win32,60.36095853,60e9af25803b556d62efa3ca,60d9d14f4a8a35a482e0d9bf,60edef07b6c2df3626e7beed,j,2.41282,0,0,0,51,1,RROORRO,RROORRR,21.89852628,22.02786418,series_1
,,,,,,,,60e9af25803b556d62efa3ca,Mężczyzna,20,2021-07-13_21h53.29.038,rantool2,2021.1.4,Win32,60.36095853,60e9af25803b556d62efa3ca,60d9d14f4a8a35a482e0d9bf,60edef07b6c2df3626e7beed,f,1.753985,0,1,1,5,1,OOORORO,OOORORR,20.87963819,21.9921709,series_1
,,,,,,,,60e9af25803b556d62efa3ca,Mężczyzna,20,2021-07-13_21h53.29.038,rantool2,2021.1.4,Win32,60.36095853,60e9af25803b556d62efa3ca,60d9d14f4a8a35a482e0d9bf,60edef07b6c2df3626e7beed,j,1.38823,0,2,2,48,1,RROOOOO,RROOOOR,20.90986523,22.15934078,series_1
,,,,,,,,60e9af25803b556d62efa3ca,Mężczyzna,20,2021-07-13_21h53.29.038,rantool2,2021.1.4,Win32,60.36095853,60e9af25803b556d62efa3ca,60d9d14f4a8a35a482e0d9bf,60edef07b6c2df3626e7beed,f,1.56484,0,3,3,25,1,ORROORO,ORROORR,21.79500819,22.61624387,series_1
,,,,,,,,60e9af25803b556d62efa3ca,Mężczyzna,20,2021-07-13_21h53.29.038,rantool2,2021.1.4,Win32,60.36095853,60e9af25803b556d62efa3ca,60d9d14f4a8a35a482e0d9bf,60edef07b6c2df3626e7beed,j,2.48351,0,4,4,59,1,RRRORRO,RRRORRR,21.56657303,20.89823192,series_0
,,,,,,,,60e9af25803b556d62efa3ca,Mężczyzna,20,2021-07-13_21h53.29.038,rantool2,2021.1.4,Win32,60.36095853,60e9af25803b556d62efa3ca,60d9d14f4a8a35a482e0d9bf,60edef07b6c2df3626e7beed,f,1.71748,0,5,5,32,1,ROOOOOO,ROOOOOR,19.92253567,21.27974287,series_1
,,,,,,,,60e9af25803b556d62efa3ca,Mężczyzna,20,2021-07-13_21h53.29.038,rantool2,2021.1.4,Win32,60.36095853,60e9af25803b556d62efa3ca,60d9d14f4a8a35a482e0d9bf,60edef07b6c2df3626e7beed,j,1.382625,0,6,6,63,1,RRRRRRO,RRRRRRR,21.35278725,19.62521613,series_0
,,,,,,,,60e9af25803b556d62efa3ca,Mężczyzna,20,2021-07-13_21h53.29.038,rantool2,2021.1.4,Win32,60.36095853,60e9af25803b556d62efa3ca,60d9d14f4a8a35a482e0d9bf,60edef07b6c2df3626e7beed,f,1.45624,0,7,7,56,1,RRROOOO,RRROOOR,21.6194508,22.31681875,series_1
,,,,,,,,60e9af25803b556d62efa3ca,Mężczyzna,20,2021-07-13_21h53.29.038,rantool2,2021.1.4,Win32,60.36095853,60e9af25803b556d62efa3ca,60d9d14f4a8a35a482e0d9bf,60edef07b6c2df3626e7beed,f,1.345795,0,8,8,17,1,OROOORO,OROOORR,21.03750787,22.12173012,series_1
,,,,,,,,60e9af25803b556d62efa3ca,Mężczyzna,20,2021-07-13_21h53.29.038,rantool2,2021.1.4,Win32,60.36095853,60e9af25803b556d62efa3ca,60d9d14f4a8a35a482e0d9bf,60edef07b6c2df3626e7beed,f,1.48373,0,9,9,8,1,OOROOOO,OOROOOR,19.91402015,20.89823192,series_1
,,,,,,,,60e9af25803b556d62efa3ca,Mężczyzna,20,2021-07-13_21h53.29.038,rantool2,2021.1.4,Win32,60.36095853,60e9af25803b556d62efa3ca,60d9d14f4a8a35a482e0d9bf,60edef07b6c2df3626e7beed,j,1.107515,0,10,10,4,1,OOOROOO,OOOROOR,19.91402015,21.21223021,series_1
,,,,,,,,60e9af25803b556d62efa3ca,Mężczyzna,20,2021-07-13_21h53.29.038,rantool2,2021.1.4,Win32,60.36095853,60e9af25803b556d62efa3ca,60d9d14f4a8a35a482e0d9bf,60edef07b6c2df3626e7beed,f,2.119305,0,11,11,42,1,ROROROO,ROROROR,20.39515459,19.8361834,series_0
,,,,,,,,60e9af25803b556d62efa3ca,Mężczyzna,20,2021-07-13_21h53.29.038,rantool2,2021.1.4,Win32,60.36095853,60e9af25803b556d62efa3ca,60d9d14f4a8a35a482e0d9bf,60edef07b6c2df3626e7beed,j,1.66795,0,12,12,49,1,RROOORO,RROOORR,21.76276513,22.53364006,series_1
,,,,,,,,60e9af25803b556d62efa3ca,Mężczyzna,20,2021-07-13_21h53.29.038,rantool2,2021.1.4,Win32,60.36095853,60e9af25803b556d62efa3ca,60d9d14f4a8a35a482e0d9bf,60edef07b6c2df3626e7beed,f,1.786165,0,13,13,3,1,OOOORRO,OOOORRR,20.90986523,21.74922619,series_1
,,,,,,,,60e9af25803b556d62efa3ca,Mężczyzna,20,2021-07-13_21h53.29.038,rantool2,2021.1.4,Win32,60.36095853,60e9af25803b556d62efa3ca,60d9d14f4a8a35a482e0d9bf,60edef07b6c2df3626e7beed,j,2.217325,0,14,14,54,1,RRORROO,RRORROR,21.55250791,20.9984461,series_0
,,,,,,,,60e9af25803b556d62efa3ca,Mężczyzna,20,2021-07-13_21h53.29.038,rantool2,2021.1.4,Win32,60.36095853,60e9af25803b556d62efa3ca,60d9d14f4a8a35a482e0d9bf,60edef07b6c2df3626e7beed,f,2.234015,0,15,15,14,1,OORRROO,OORRROR,22.24142883,22.16977179,series_0
,,,,,,,,60e9af25803b556d62efa3ca,Mężczyzna,20,2021-07-13_21h53.29.038,rantool2,2021.1.4,Win32,60.36095853,60e9af25803b556d62efa3ca,60d9d14f4a8a35a482e0d9bf,60edef07b6c2df3626e7beed,j,1.70766,0,16,16,62,1,RRRRROO,RRRRROR,22.16413392,21.27974287,series_0
,,,,,,,,60e9af25803b556d62efa3ca,Mężczyzna,20,2021-07-13_21h53.29.038,rantool2,2021.1.4,Win32,60.36095853,60e9af25803b556d62efa3ca,60d9d14f4a8a35a482e0d9bf,60edef07b6c2df3626e7beed,f,1.745775,0,17,17,29,1,ORRRORO,ORRRORR,22.00300695,22.12173012,series_1
,,,,,,,,60e9af25803b556d62efa3ca,Mężczyzna,20,2021-07-13_21h53.29.038,rantool2,2021.1.4,Win32,60.36095853,60e9af25803b556d62efa3ca,60d9d14f4a8a35a482e0d9bf,60edef07b6c2df3626e7beed,j,1.888905,0,18,18,26,1,ORROROO,ORROROR,22.02732763,21.71443381,series_0
,,,,,,,,60e9af25803b556d62efa3ca,Mężczyzna,20,2021-07-13_21h53.29.038,rantool2,2021.1.4,Win32,60.36095853,60e9af25803b556d62efa3ca,60d9d14f4a8a35a482e0d9bf,60edef07b6c2df3626e7beed,f,1.48563,0,19,19,47,1,RORRRRO,RORRRRR,21.81333602,21.02936224,series_0
,,,,,,,,60e9af25803b556d62efa3ca,Mężczyzna,20,2021-07-13_21h53.29.038,rantool2,2021.1.4,Win32,60.36095853,60e9af25803b556d62efa3ca,60d9d14f4a8a35a482e0d9bf,60edef07b6c2df3626e7beed,j,1.37118,0,20,20,39,1,ROORRRO,ROORRRR,21.82425538,21.38562617,series_0
,,,,,,,,60e9af25803b556d62efa3ca,Mężczyzna,20,2021-07-13_21h53.29.038,rantool2,2021.1.4,Win32,60.36095853,60e9af25803b556d62efa3ca,60d9d14f4a8a35a482e0d9bf,60edef07b6c2df3626e7beed,f,2.02991,0,21,21,7,1,OOORRRO,OOORRRR,21.6194508,21.899017,series_1
,,,,,,,,60e9af25803b556d62efa3ca,Mężczyzna,20,2021-07-13_21h53.29.038,rantool2,2021.1.4,Win32,60.36095853,60e9af25803b556d62efa3ca,60d9d14f4a8a35a482e0d9bf,60edef07b6c2df3626e7beed,j,1.230965,0,22,22,15,1,OORRRRO,OORRRRR,22.10108823,21.74922619,series_0
,,,,,,,,60e9af25803b556d62efa3ca,Mężczyzna,20,2021-07-13_21h53.29.038,rantool2,2021.1.4,Win32,60.36095853,60e9af25803b556d62efa3ca,60d9d14f4a8a35a482e0d9bf,60edef07b6c2df3626e7beed,f,1.72204,0,23,23,55,1,RRORRRO,RRORRRR,21.56657303,21.21223021,series_0
,,,,,,,,60e9af25803b556d62efa3ca,Mężczyzna,20,2021-07-13_21h53.29.038,rantool2,2021.1.4,Win32,60.36095853,60e9af25803b556d62efa3ca,60d9d14f4a8a35a482e0d9bf,60edef07b6c2df3626e7beed,j,1.25381,0,24,24,20,1,OROROOO,OROROOR,21.31236711,21.90565814,series_1
,,,,,,,,60e9af25803b556d62efa3ca,Mężczyzna,20,2021-07-13_21h53.29.038,rantool2,2021.1.4,Win32,60.36095853,60e9af25803b556d62efa3ca,60d9d14f4a8a35a482e0d9bf,60edef07b6c2df3626e7beed,f,1.574555,0,25,25,41,1,ROROORO,ROROORR,20.42602454,21.71443381,series_1
,,,,,,,,60e9af25803b556d62efa3ca,Mężczyzna,20,2021-07-13_21h53.29.038,rantool2,2021.1.4,Win32,60.36095853,60e9af25803b556d62efa3ca,60d9d14f4a8a35a482e0d9bf,60edef07b6c2df3626e7beed,f,1.29653,0,26,26,45,1,RORRORO,RORRORR,20.78182524,21.22513037,series_1
,,,,,,,,60e9af25803b556d62efa3ca,Mężczyzna,20,2021-07-13_21h53.29.038,rantool2,2021.1.4,Win32,60.36095853,60e9af25803b556d62efa3ca,60d9d14f4a8a35a482e0d9bf,60edef07b6c2df3626e7beed,j,2.00092,0,27,27,27,1,ORRORRO,ORRORRR,21.55250791,22.2428857,series_1
,,,,,,,,60e9af25803b556d62efa3ca,Mężczyzna,20,2021-07-13_21h53.29.038,rantool2,2021.1.4,Win32,60.36095853,60e9af25803b556d62efa3ca,60d9d14f4a8a35a482e0d9bf,60edef07b6c2df3626e7beed,j,2.033835,0,28,28,9,1,OOROORO,OOROORR,21.07991943,22.2428857,series_1
,,,,,,,,60e9af25803b556d62efa3ca,Mężczyzna,20,2021-07-13_21h53.29.038,rantool2,2021.1.4,Win32,60.36095853,60e9af25803b556d62efa3ca,60d9d14f4a8a35a482e0d9bf,60edef07b6c2df3626e7beed,f,1.233955,0,29,29,24,1,ORROOOO,ORROOOR,21.12383932,22.07102821,series_1
,,,,,,,,60e9af25803b556d62efa3ca,Mężczyzna,20,2021-07-13_21h53.29.038,rantool2,2021.1.4,Win32,60.36095853,60e9af25803b556d62efa3ca,60d9d14f4a8a35a482e0d9bf,60edef07b6c2df3626e7beed,j,1.030025,0,30,30,1,1,OOOOORO,OOOOORR,19.92253567,20.74050628,series_1
,,,,,,,,60e9af25803b556d62efa3ca,Mężczyzna,20,2021-07-13_21h53.29.038,rantool2,2021.1.4,Win32,60.36095853,60e9af25803b556d62efa3ca,60d9d14f4a8a35a482e0d9bf,60edef07b6c2df3626e7beed,f,1.73609,0,31,31,52,1,RROROOO,RROROOR,22.18365867,22.11097995,series_0
,,,,,,,,60e9af25803b556d62efa3ca,Mężczyzna,20,2021-07-13_21h53.29.038,rantool2,2021.1.4,Win32,60.36095853,60e9af25803b556d62efa3ca,60d9d14f4a8a35a482e0d9bf,60edef07b6c2df3626e7beed,j,1.15319,0,32,32,28,1,ORRROOO,ORRROOR,22.24142883,22.53364006,series_1
,,,,,,,,60e9af25803b556d62efa3ca,Mężczyzna,20,2021-07-13_21h53.29.038,rantool2,2021.1.4,Win32,60.36095853,60e9af25803b556d62efa3ca,60d9d14f4a8a35a482e0d9bf,60edef07b6c2df3626e7beed,f,1.13565,0,33,33,36,1,ROOROOO,ROOROOR,21.07991943,20.9984461,series_0
,,,,,,,,60e9af25803b556d62efa3ca,Mężczyzna,20,2021-07-13_21h53.29.038,rantool2,2021.1.4,Win32,60.36095853,60e9af25803b556d62efa3ca,60d9d14f4a8a35a482e0d9bf,60edef07b6c2df3626e7beed,j,1.515475,0,34,34,44,1,RORROOO,RORROOR,21.66733484,22.02566557,series_1
,,,,,,,,60e9af25803b556d62efa3ca,Mężczyzna,20,2021-07-13_21h53.29.038,rantool2,2021.1.4,Win32,60.36095853,60e9af25803b556d62efa3ca,60d9d14f4a8a35a482e0d9bf,60edef07b6c2df3626e7beed,f,1.57872,0,35,35,0,1,OOOOOOO,OOOOOOR,18.52739004,19.62521613,series_1
,,,,,,,,60e9af25803b556d62efa3ca,Mężczyzna,20,2021-07-13_21h53.29.038,rantool2,2021.1.4,Win32,60.36095853,60e9af25803b556d62efa3ca,60d9d14f4a8a35a482e0d9bf,60edef07b6c2df3626e7beed,j,1.31805,0,36,36,16,1,OROOOOO,OROOOOR,20.43051175,21.17347734,series_1
,,,,,,,,60e9af25803b556d62efa3ca,Mężczyzna,20,2021-07-13_21h53.29.038,rantool2,2021.1.4,Win32,60.36095853,60e9af25803b556d62efa3ca,60d9d14f4a8a35a482e0d9bf,60edef07b6c2df3626e7beed,f,1.435265,0,37,37,57,1,RRROORO,RRROORR,21.82425538,22.07102821,series_1
,,,,,,,,60e9af25803b556d62efa3ca,Mężczyzna,20,2021-07-13_21h53.29.038,rantool2,2021.1.4,Win32,60.36095853,60e9af25803b556d62efa3ca,60d9d14f4a8a35a482e0d9bf,60edef07b6c2df3626e7beed,j,1.35114,0,38,38,12,1,OORROOO,OORROOR,21.30250474,22.02786418,series_1
,,,,,,,,60e9af25803b556d62efa3ca,Mężczyzna,20,2021-07-13_21h53.29.038,rantool2,2021.1.4,Win32,60.36095853,60e9af25803b556d62efa3ca,60d9d14f4a8a35a482e0d9bf,60edef07b6c2df3626e7beed,j,1.32475,0,39,39,33,1,ROOOORO,ROOOORR,20.83779602,22.03072203,series_1
,,,,,,,,60e9af25803b556d62efa3ca,Mężczyzna,20,2021-07-13_21h53.29.038,rantool2,2021.1.4,Win32,60.36095853,60e9af25803b556d62efa3ca,60d9d14f4a8a35a482e0d9bf,60edef07b6c2df3626e7beed,f,1.766635,0,40,40,30,1,ORRRROO,ORRRROR,22.46748491,22.03072203,series_0
,,,,,,,,60e9af25803b556d62efa3ca,Mężczyzna,20,2021-07-13_21h53.29.038,rantool2,2021.1.4,Win32,60.36095853,60e9af25803b556d62efa3ca,60d9d14f4a8a35a482e0d9bf,60edef07b6c2df3626e7beed,f,2.12351,0,41,41,38,1,ROORROO,ROORROR,21.79500819,21.36812781,series_0
,,,,,,,,60e9af25803b556d62efa3ca,Mężczyzna,20,2021-07-13_21h53.29.038,rantool2,2021.1.4,Win32,60.36095853,60e9af25803b556d62efa3ca,60d9d14f4a8a35a482e0d9bf,60edef07b6c2df3626e7beed,j,1.287425,0,42,42,10,1,OOROROO,OOROROR,21.31236711,21.07490964,series_0
,,,,,,,,60e9af25803b556d62efa3ca,Mężczyzna,20,2021-07-13_21h53.29.038,rantool2,2021.1.4,Win32,60.36095853,60e9af25803b556d62efa3ca,60d9d14f4a8a35a482e0d9bf,60edef07b6c2df3626e7beed,f,1.01927,0,43,43,2,1,OOOOROO,OOOOROR,20.43051175,21.02936224,series_1
,,,,,,,,60e9af25803b556d62efa3ca,Mężczyzna,20,2021-07-13_21h53.29.038,rantool2,2021.1.4,Win32,60.36095853,60e9af25803b556d62efa3ca,60d9d14f4a8a35a482e0d9bf,60edef07b6c2df3626e7beed,j,1.239725,0,44,44,43,1,RORORRO,RORORRR,20.71309134,21.07490964,series_1
,,,,,,,,60e9af25803b556d62efa3ca,Mężczyzna,20,2021-07-13_21h53.29.038,rantool2,2021.1.4,Win32,60.36095853,60e9af25803b556d62efa3ca,60d9d14f4a8a35a482e0d9bf,60edef07b6c2df3626e7beed,j,1.929245,0,45,45,37,1,ROORORO,ROORORR,20.42602454,21.57657071,series_1
,,,,,,,,60e9af25803b556d62efa3ca,Mężczyzna,20,2021-07-13_21h53.29.038,rantool2,2021.1.4,Win32,60.36095853,60e9af25803b556d62efa3ca,60d9d14f4a8a35a482e0d9bf,60edef07b6c2df3626e7beed,j,1.94924,0,46,46,53,1,RRORORO,RRORORR,20.71309134,21.90565814,series_1
,,,,,,,,60e9af25803b556d62efa3ca,Mężczyzna,20,2021-07-13_21h53.29.038,rantool2,2021.1.4,Win32,60.36095853,60e9af25803b556d62efa3ca,60d9d14f4a8a35a482e0d9bf,60edef07b6c2df3626e7beed,f,1.500835,0,47,47,61,1,RRRRORO,RRRRORR,21.81333602,21.17347734,series_0
,,,,,,,,60e9af25803b556d62efa3ca,Mężczyzna,20,2021-07-13_21h53.29.038,rantool2,2021.1.4,Win32,60.36095853,60e9af25803b556d62efa3ca,60d9d14f4a8a35a482e0d9bf,60edef07b6c2df3626e7beed,j,1.284115,0,48,48,13,1,OORRORO,OORRORR,21.66733484,22.11181017,series_1
,,,,,,,,60e9af25803b556d62efa3ca,Mężczyzna,20,2021-07-13_21h53.29.038,rantool2,2021.1.4,Win32,60.36095853,60e9af25803b556d62efa3ca,60d9d14f4a8a35a482e0d9bf,60edef07b6c2df3626e7beed,f,1.500385,0,49,49,11,1,OORORRO,OORORRR,22.18365867,22.6797523,series_1
,,,,,,,,60e9af25803b556d62efa3ca,Mężczyzna,20,2021-07-13_21h53.29.038,rantool2,2021.1.4,Win32,60.36095853,60e9af25803b556d62efa3ca,60d9d14f4a8a35a482e0d9bf,60edef07b6c2df3626e7beed,j,0.982235,0,50,50,60,1,RRRROOO,RRRROOR,22.10108823,22.15934078,series_1
,,,,,,,,60e9af25803b556d62efa3ca,Mężczyzna,20,2021-07-13_21h53.29.038,rantool2,2021.1.4,Win32,60.36095853,60e9af25803b556d62efa3ca,60d9d14f4a8a35a482e0d9bf,60edef07b6c2df3626e7beed,f,1.37443,0,51,51,50,1,RROOROO,RROOROR,21.73568164,22.02566557,series_1
,,,,,,,,60e9af25803b556d62efa3ca,Mężczyzna,20,2021-07-13_21h53.29.038,rantool2,2021.1.4,Win32,60.36095853,60e9af25803b556d62efa3ca,60d9d14f4a8a35a482e0d9bf,60edef07b6c2df3626e7beed,j,1.33645,0,52,52,23,1,ORORRRO,ORORRRR,22.1285618,21.9921709,series_0
,,,,,,,,60e9af25803b556d62efa3ca,Mężczyzna,20,2021-07-13_21h53.29.038,rantool2,2021.1.4,Win32,60.36095853,60e9af25803b556d62efa3ca,60d9d14f4a8a35a482e0d9bf,60edef07b6c2df3626e7beed,j,1.550675,0,53,53,18,1,OROOROO,OROOROR,20.84860893,21.22513037,series_1
,,,,,,,,60e9af25803b556d62efa3ca,Mężczyzna,20,2021-07-13_21h53.29.038,rantool2,2021.1.4,Win32,60.36095853,60e9af25803b556d62efa3ca,60d9d14f4a8a35a482e0d9bf,60edef07b6c2df3626e7beed,j,1.400265,0,54,54,35,1,ROOORRO,ROOORRR,21.76276513,22.16977179,series_1
,,,,,,,,60e9af25803b556d62efa3ca,Mężczyzna,20,2021-07-13_21h53.29.038,rantool2,2021.1.4,Win32,60.36095853,60e9af25803b556d62efa3ca,60d9d14f4a8a35a482e0d9bf,60edef07b6c2df3626e7beed,f,1.413335,0,55,55,6,1,OOORROO,OOORROR,21.12383932,21.38562617,series_1
,,,,,,,,60e9af25803b556d62efa3ca,Mężczyzna,20,2021-07-13_21h53.29.038,rantool2,2021.1.4,Win32,60.36095853,60e9af25803b556d62efa3ca,60d9d14f4a8a35a482e0d9bf,60edef07b6c2df3626e7beed,j,1.250955,0,56,56,34,1,ROOOROO,ROOOROR,21.03750787,21.24781509,series_1
,,,,,,,,60e9af25803b556d62efa3ca,Mężczyzna,20,2021-07-13_21h53.29.038,rantool2,2021.1.4,Win32,60.36095853,60e9af25803b556d62efa3ca,60d9d14f4a8a35a482e0d9bf,60edef07b6c2df3626e7beed,f,1.2196,0,57,57,22,1,ORORROO,ORORROR,22.02732763,21.57657071,series_0
,,,,,,,,60e9af25803b556d62efa3ca,Mężczyzna,20,2021-07-13_21h53.29.038,rantool2,2021.1.4,Win32,60.36095853,60e9af25803b556d62efa3ca,60d9d14f4a8a35a482e0d9bf,60edef07b6c2df3626e7beed,j,1.01915,0,58,58,31,1,ORRRRRO,ORRRRRR,22.16413392,20.74050628,series_0
,,,,,,,,60e9af25803b556d62efa3ca,Mężczyzna,20,2021-07-13_21h53.29.038,rantool2,2021.1.4,Win32,60.36095853,60e9af25803b556d62efa3ca,60d9d14f4a8a35a482e0d9bf,60edef07b6c2df3626e7beed,f,1.67101,0,59,59,40,1,ROROOOO,ROROOOR,20.87963819,21.37121559,series_1
,,,,,,,,60e9af25803b556d62efa3ca,Mężczyzna,20,2021-07-13_21h53.29.038,rantool2,2021.1.4,Win32,60.36095853,60e9af25803b556d62efa3ca,60d9d14f4a8a35a482e0d9bf,60edef07b6c2df3626e7beed,f,1.669125,0,60,60,46,1,RORRROO,RORRROR,22.00300695,21.24781509,series_0
,,,,,,,,60e9af25803b556d62efa3ca,Mężczyzna,20,2021-07-13_21h53.29.038,rantool2,2021.1.4,Win32,60.36095853,60e9af25803b556d62efa3ca,60d9d14f4a8a35a482e0d9bf,60edef07b6c2df3626e7beed,j,1.404685,0,61,61,58,1,RRROROO,RRROROR,22.1285618,21.37121559,series_0
,,,,,,,,60e9af25803b556d62efa3ca,Mężczyzna,20,2021-07-13_21h53.29.038,rantool2,2021.1.4,Win32,60.36095853,60e9af25803b556d62efa3ca,60d9d14f4a8a35a482e0d9bf,60edef07b6c2df3626e7beed,f,2.402545,0,62,62,19,1,OROORRO,OROORRR,21.73568164,22.11181017,series_1
,,,,,,,,60e9af25803b556d62efa3ca,Mężczyzna,20,2021-07-13_21h53.29.038,rantool2,2021.1.4,Win32,60.36095853,60e9af25803b556d62efa3ca,60d9d14f4a8a35a482e0d9bf,60edef07b6c2df3626e7beed,j,1.917735,0,63,63,21,1,ORORORO,ORORORR,20.39515459,22.06781359,series_1
