key_resp_7.keys,key_resp_7.rt,trials_2.thisRepN,trials_2.thisTrialN,trials_2.thisN,trials_2.thisIndex,trials_2.ran,id,series_0,series_1,acss_0,acss_1,comparison,id*,Płeć*,Wiek*,date,expName,psychopyVersion,OS,frameRate,STUDY_ID,SESSION_ID,key_resp_5.keys,key_resp_5.corr,key_resp_5.rt,trials.thisRepN,trials.thisTrialN,trials.thisN,trials.thisIndex,trials.ran
j,0.9323,0,0,0,11,1,5d1cfc4ee950480015366f7b,OORORRO,OORORRR,22.18365867,22.6797523,series_1,5d1cfc4ee950480015366f7b,Kobieta,23,2021-09-06_20h00.33.126,rantool2,2021.1.4,Win32,60.20832079,6135e006383e6ea6c3d06a28,6136572bb42225441635ef2e,,,,,,,,
f,0.629,0,1,1,13,1,5d1cfc4ee950480015366f7b,OORRORO,OORRORR,21.66733484,22.11181017,series_1,5d1cfc4ee950480015366f7b,Kobieta,23,2021-09-06_20h00.33.126,rantool2,2021.1.4,Win32,60.20832079,6135e006383e6ea6c3d06a28,6136572bb42225441635ef2e,,,,,,,,
j,0.4562,0,2,2,22,1,5d1cfc4ee950480015366f7b,ORORROO,ORORROR,22.02732763,21.57657071,series_0,5d1cfc4ee950480015366f7b,Kobieta,23,2021-09-06_20h00.33.126,rantool2,2021.1.4,Win32,60.20832079,6135e006383e6ea6c3d06a28,6136572bb42225441635ef2e,,,,,,,,
j,1.0507,0,3,3,16,1,5d1cfc4ee950480015366f7b,OROOOOO,OROOOOR,20.43051175,21.17347734,series_1,5d1cfc4ee950480015366f7b,Kobieta,23,2021-09-06_20h00.33.126,rantool2,2021.1.4,Win32,60.20832079,6135e006383e6ea6c3d06a28,6136572bb42225441635ef2e,,,,,,,,
f,0.9168,0,4,4,52,1,5d1cfc4ee950480015366f7b,RROROOO,RROROOR,22.18365867,22.11097995,series_0,5d1cfc4ee950480015366f7b,Kobieta,23,2021-09-06_20h00.33.126,rantool2,2021.1.4,Win32,60.20832079,6135e006383e6ea6c3d06a28,6136572bb42225441635ef2e,,,,,,,,
j,0.5171,0,5,5,61,1,5d1cfc4ee950480015366f7b,RRRRORO,RRRRORR,21.81333602,21.17347734,series_0,5d1cfc4ee950480015366f7b,Kobieta,23,2021-09-06_20h00.33.126,rantool2,2021.1.4,Win32,60.20832079,6135e006383e6ea6c3d06a28,6136572bb42225441635ef2e,,,,,,,,
f,0.5915,0,6,6,21,1,5d1cfc4ee950480015366f7b,ORORORO,ORORORR,20.39515459,22.06781359,series_1,5d1cfc4ee950480015366f7b,Kobieta,23,2021-09-06_20h00.33.126,rantool2,2021.1.4,Win32,60.20832079,6135e006383e6ea6c3d06a28,6136572bb42225441635ef2e,,,,,,,,
j,1.5829,0,7,7,12,1,5d1cfc4ee950480015366f7b,OORROOO,OORROOR,21.30250474,22.02786418,series_1,5d1cfc4ee950480015366f7b,Kobieta,23,2021-09-06_20h00.33.126,rantool2,2021.1.4,Win32,60.20832079,6135e006383e6ea6c3d06a28,6136572bb42225441635ef2e,,,,,,,,
f,1.083,0,8,8,0,1,5d1cfc4ee950480015366f7b,OOOOOOO,OOOOOOR,18.52739004,19.62521613,series_1,5d1cfc4ee950480015366f7b,Kobieta,23,2021-09-06_20h00.33.126,rantool2,2021.1.4,Win32,60.20832079,6135e006383e6ea6c3d06a28,6136572bb42225441635ef2e,,,,,,,,
j,1.7669,0,9,9,33,1,5d1cfc4ee950480015366f7b,ROOOORO,ROOOORR,20.83779602,22.03072203,series_1,5d1cfc4ee950480015366f7b,Kobieta,23,2021-09-06_20h00.33.126,rantool2,2021.1.4,Win32,60.20832079,6135e006383e6ea6c3d06a28,6136572bb42225441635ef2e,,,,,,,,
f,1.106,0,10,10,49,1,5d1cfc4ee950480015366f7b,RROOORO,RROOORR,21.76276513,22.53364006,series_1,5d1cfc4ee950480015366f7b,Kobieta,23,2021-09-06_20h00.33.126,rantool2,2021.1.4,Win32,60.20832079,6135e006383e6ea6c3d06a28,6136572bb42225441635ef2e,,,,,,,,
j,0.9999,0,11,11,25,1,5d1cfc4ee950480015366f7b,ORROORO,ORROORR,21.79500819,22.61624387,series_1,5d1cfc4ee950480015366f7b,Kobieta,23,2021-09-06_20h00.33.126,rantool2,2021.1.4,Win32,60.20832079,6135e006383e6ea6c3d06a28,6136572bb42225441635ef2e,,,,,,,,
f,1.4999,0,12,12,45,1,5d1cfc4ee950480015366f7b,RORRORO,RORRORR,20.78182524,21.22513037,series_1,5d1cfc4ee950480015366f7b,Kobieta,23,2021-09-06_20h00.33.126,rantool2,2021.1.4,Win32,60.20832079,6135e006383e6ea6c3d06a28,6136572bb42225441635ef2e,,,,,,,,
f,1.0766,0,13,13,57,1,5d1cfc4ee950480015366f7b,RRROORO,RRROORR,21.82425538,22.07102821,series_1,5d1cfc4ee950480015366f7b,Kobieta,23,2021-09-06_20h00.33.126,rantool2,2021.1.4,Win32,60.20832079,6135e006383e6ea6c3d06a28,6136572bb42225441635ef2e,,,,,,,,
f,0.5035,0,14,14,10,1,5d1cfc4ee950480015366f7b,OOROROO,OOROROR,21.31236711,21.07490964,series_0,5d1cfc4ee950480015366f7b,Kobieta,23,2021-09-06_20h00.33.126,rantool2,2021.1.4,Win32,60.20832079,6135e006383e6ea6c3d06a28,6136572bb42225441635ef2e,,,,,,,,
j,0.4594,0,15,15,17,1,5d1cfc4ee950480015366f7b,OROOORO,OROOORR,21.03750787,22.12173012,series_1,5d1cfc4ee950480015366f7b,Kobieta,23,2021-09-06_20h00.33.126,rantool2,2021.1.4,Win32,60.20832079,6135e006383e6ea6c3d06a28,6136572bb42225441635ef2e,,,,,,,,
j,0.3393,0,16,16,51,1,5d1cfc4ee950480015366f7b,RROORRO,RROORRR,21.89852628,22.02786418,series_1,5d1cfc4ee950480015366f7b,Kobieta,23,2021-09-06_20h00.33.126,rantool2,2021.1.4,Win32,60.20832079,6135e006383e6ea6c3d06a28,6136572bb42225441635ef2e,,,,,,,,
j,0.2916,0,17,17,63,1,5d1cfc4ee950480015366f7b,RRRRRRO,RRRRRRR,21.35278725,19.62521613,series_0,5d1cfc4ee950480015366f7b,Kobieta,23,2021-09-06_20h00.33.126,rantool2,2021.1.4,Win32,60.20832079,6135e006383e6ea6c3d06a28,6136572bb42225441635ef2e,,,,,,,,
f,0.5546,0,18,18,62,1,5d1cfc4ee950480015366f7b,RRRRROO,RRRRROR,22.16413392,21.27974287,series_0,5d1cfc4ee950480015366f7b,Kobieta,23,2021-09-06_20h00.33.126,rantool2,2021.1.4,Win32,60.20832079,6135e006383e6ea6c3d06a28,6136572bb42225441635ef2e,,,,,,,,
f,0.2062,0,19,19,56,1,5d1cfc4ee950480015366f7b,RRROOOO,RRROOOR,21.6194508,22.31681875,series_1,5d1cfc4ee950480015366f7b,Kobieta,23,2021-09-06_20h00.33.126,rantool2,2021.1.4,Win32,60.20832079,6135e006383e6ea6c3d06a28,6136572bb42225441635ef2e,,,,,,,,
f,0.1343,0,20,20,38,1,5d1cfc4ee950480015366f7b,ROORROO,ROORROR,21.79500819,21.36812781,series_0,5d1cfc4ee950480015366f7b,Kobieta,23,2021-09-06_20h00.33.126,rantool2,2021.1.4,Win32,60.20832079,6135e006383e6ea6c3d06a28,6136572bb42225441635ef2e,,,,,,,,
f,0.1592,0,21,21,1,1,5d1cfc4ee950480015366f7b,OOOOORO,OOOOORR,19.92253567,20.74050628,series_1,5d1cfc4ee950480015366f7b,Kobieta,23,2021-09-06_20h00.33.126,rantool2,2021.1.4,Win32,60.20832079,6135e006383e6ea6c3d06a28,6136572bb42225441635ef2e,,,,,,,,
j,0.3038,0,22,22,36,1,5d1cfc4ee950480015366f7b,ROOROOO,ROOROOR,21.07991943,20.9984461,series_0,5d1cfc4ee950480015366f7b,Kobieta,23,2021-09-06_20h00.33.126,rantool2,2021.1.4,Win32,60.20832079,6135e006383e6ea6c3d06a28,6136572bb42225441635ef2e,,,,,,,,
j,0.2017,0,23,23,8,1,5d1cfc4ee950480015366f7b,OOROOOO,OOROOOR,19.91402015,20.89823192,series_1,5d1cfc4ee950480015366f7b,Kobieta,23,2021-09-06_20h00.33.126,rantool2,2021.1.4,Win32,60.20832079,6135e006383e6ea6c3d06a28,6136572bb42225441635ef2e,,,,,,,,
j,0.1837,0,24,24,3,1,5d1cfc4ee950480015366f7b,OOOORRO,OOOORRR,20.90986523,21.74922619,series_1,5d1cfc4ee950480015366f7b,Kobieta,23,2021-09-06_20h00.33.126,rantool2,2021.1.4,Win32,60.20832079,6135e006383e6ea6c3d06a28,6136572bb42225441635ef2e,,,,,,,,
j,0.169,0,25,25,59,1,5d1cfc4ee950480015366f7b,RRRORRO,RRRORRR,21.56657303,20.89823192,series_0,5d1cfc4ee950480015366f7b,Kobieta,23,2021-09-06_20h00.33.126,rantool2,2021.1.4,Win32,60.20832079,6135e006383e6ea6c3d06a28,6136572bb42225441635ef2e,,,,,,,,
j,0.1865,0,26,26,9,1,5d1cfc4ee950480015366f7b,OOROORO,OOROORR,21.07991943,22.2428857,series_1,5d1cfc4ee950480015366f7b,Kobieta,23,2021-09-06_20h00.33.126,rantool2,2021.1.4,Win32,60.20832079,6135e006383e6ea6c3d06a28,6136572bb42225441635ef2e,,,,,,,,
f,0.1839,0,27,27,31,1,5d1cfc4ee950480015366f7b,ORRRRRO,ORRRRRR,22.16413392,20.74050628,series_0,5d1cfc4ee950480015366f7b,Kobieta,23,2021-09-06_20h00.33.126,rantool2,2021.1.4,Win32,60.20832079,6135e006383e6ea6c3d06a28,6136572bb42225441635ef2e,,,,,,,,
j,0.1698,0,28,28,37,1,5d1cfc4ee950480015366f7b,ROORORO,ROORORR,20.42602454,21.57657071,series_1,5d1cfc4ee950480015366f7b,Kobieta,23,2021-09-06_20h00.33.126,rantool2,2021.1.4,Win32,60.20832079,6135e006383e6ea6c3d06a28,6136572bb42225441635ef2e,,,,,,,,
f,0.1951,0,29,29,4,1,5d1cfc4ee950480015366f7b,OOOROOO,OOOROOR,19.91402015,21.21223021,series_1,5d1cfc4ee950480015366f7b,Kobieta,23,2021-09-06_20h00.33.126,rantool2,2021.1.4,Win32,60.20832079,6135e006383e6ea6c3d06a28,6136572bb42225441635ef2e,,,,,,,,
j,0.1558,0,30,30,23,1,5d1cfc4ee950480015366f7b,ORORRRO,ORORRRR,22.1285618,21.9921709,series_0,5d1cfc4ee950480015366f7b,Kobieta,23,2021-09-06_20h00.33.126,rantool2,2021.1.4,Win32,60.20832079,6135e006383e6ea6c3d06a28,6136572bb42225441635ef2e,,,,,,,,
f,0.0844,0,31,31,27,1,5d1cfc4ee950480015366f7b,ORRORRO,ORRORRR,21.55250791,22.2428857,series_1,5d1cfc4ee950480015366f7b,Kobieta,23,2021-09-06_20h00.33.126,rantool2,2021.1.4,Win32,60.20832079,6135e006383e6ea6c3d06a28,6136572bb42225441635ef2e,,,,,,,,
j,0.1506,0,32,32,43,1,5d1cfc4ee950480015366f7b,RORORRO,RORORRR,20.71309134,21.07490964,series_1,5d1cfc4ee950480015366f7b,Kobieta,23,2021-09-06_20h00.33.126,rantool2,2021.1.4,Win32,60.20832079,6135e006383e6ea6c3d06a28,6136572bb42225441635ef2e,,,,,,,,
f,0.0372,0,33,33,35,1,5d1cfc4ee950480015366f7b,ROOORRO,ROOORRR,21.76276513,22.16977179,series_1,5d1cfc4ee950480015366f7b,Kobieta,23,2021-09-06_20h00.33.126,rantool2,2021.1.4,Win32,60.20832079,6135e006383e6ea6c3d06a28,6136572bb42225441635ef2e,,,,,,,,
j,0.1671,0,34,34,50,1,5d1cfc4ee950480015366f7b,RROOROO,RROOROR,21.73568164,22.02566557,series_1,5d1cfc4ee950480015366f7b,Kobieta,23,2021-09-06_20h00.33.126,rantool2,2021.1.4,Win32,60.20832079,6135e006383e6ea6c3d06a28,6136572bb42225441635ef2e,,,,,,,,
f,0.0182,0,35,35,14,1,5d1cfc4ee950480015366f7b,OORRROO,OORRROR,22.24142883,22.16977179,series_0,5d1cfc4ee950480015366f7b,Kobieta,23,2021-09-06_20h00.33.126,rantool2,2021.1.4,Win32,60.20832079,6135e006383e6ea6c3d06a28,6136572bb42225441635ef2e,,,,,,,,
f,0.2097,0,36,36,34,1,5d1cfc4ee950480015366f7b,ROOOROO,ROOOROR,21.03750787,21.24781509,series_1,5d1cfc4ee950480015366f7b,Kobieta,23,2021-09-06_20h00.33.126,rantool2,2021.1.4,Win32,60.20832079,6135e006383e6ea6c3d06a28,6136572bb42225441635ef2e,,,,,,,,
j,0.0026,0,37,37,24,1,5d1cfc4ee950480015366f7b,ORROOOO,ORROOOR,21.12383932,22.07102821,series_1,5d1cfc4ee950480015366f7b,Kobieta,23,2021-09-06_20h00.33.126,rantool2,2021.1.4,Win32,60.20832079,6135e006383e6ea6c3d06a28,6136572bb42225441635ef2e,,,,,,,,
j,0.4835,0,38,38,2,1,5d1cfc4ee950480015366f7b,OOOOROO,OOOOROR,20.43051175,21.02936224,series_1,5d1cfc4ee950480015366f7b,Kobieta,23,2021-09-06_20h00.33.126,rantool2,2021.1.4,Win32,60.20832079,6135e006383e6ea6c3d06a28,6136572bb42225441635ef2e,,,,,,,,
f,0.4713,0,39,39,55,1,5d1cfc4ee950480015366f7b,RRORRRO,RRORRRR,21.56657303,21.21223021,series_0,5d1cfc4ee950480015366f7b,Kobieta,23,2021-09-06_20h00.33.126,rantool2,2021.1.4,Win32,60.20832079,6135e006383e6ea6c3d06a28,6136572bb42225441635ef2e,,,,,,,,
j,0.4369,0,40,40,40,1,5d1cfc4ee950480015366f7b,ROROOOO,ROROOOR,20.87963819,21.37121559,series_1,5d1cfc4ee950480015366f7b,Kobieta,23,2021-09-06_20h00.33.126,rantool2,2021.1.4,Win32,60.20832079,6135e006383e6ea6c3d06a28,6136572bb42225441635ef2e,,,,,,,,
f,0.7593,0,41,41,6,1,5d1cfc4ee950480015366f7b,OOORROO,OOORROR,21.12383932,21.38562617,series_1,5d1cfc4ee950480015366f7b,Kobieta,23,2021-09-06_20h00.33.126,rantool2,2021.1.4,Win32,60.20832079,6135e006383e6ea6c3d06a28,6136572bb42225441635ef2e,,,,,,,,
f,0.2836,0,42,42,47,1,5d1cfc4ee950480015366f7b,RORRRRO,RORRRRR,21.81333602,21.02936224,series_0,5d1cfc4ee950480015366f7b,Kobieta,23,2021-09-06_20h00.33.126,rantool2,2021.1.4,Win32,60.20832079,6135e006383e6ea6c3d06a28,6136572bb42225441635ef2e,,,,,,,,
f,0.1502,0,43,43,29,1,5d1cfc4ee950480015366f7b,ORRRORO,ORRRORR,22.00300695,22.12173012,series_1,5d1cfc4ee950480015366f7b,Kobieta,23,2021-09-06_20h00.33.126,rantool2,2021.1.4,Win32,60.20832079,6135e006383e6ea6c3d06a28,6136572bb42225441635ef2e,,,,,,,,
f,0.1436,0,44,44,53,1,5d1cfc4ee950480015366f7b,RRORORO,RRORORR,20.71309134,21.90565814,series_1,5d1cfc4ee950480015366f7b,Kobieta,23,2021-09-06_20h00.33.126,rantool2,2021.1.4,Win32,60.20832079,6135e006383e6ea6c3d06a28,6136572bb42225441635ef2e,,,,,,,,
f,0.2049,0,45,45,26,1,5d1cfc4ee950480015366f7b,ORROROO,ORROROR,22.02732763,21.71443381,series_0,5d1cfc4ee950480015366f7b,Kobieta,23,2021-09-06_20h00.33.126,rantool2,2021.1.4,Win32,60.20832079,6135e006383e6ea6c3d06a28,6136572bb42225441635ef2e,,,,,,,,
f,0.7734,0,46,46,32,1,5d1cfc4ee950480015366f7b,ROOOOOO,ROOOOOR,19.92253567,21.27974287,series_1,5d1cfc4ee950480015366f7b,Kobieta,23,2021-09-06_20h00.33.126,rantool2,2021.1.4,Win32,60.20832079,6135e006383e6ea6c3d06a28,6136572bb42225441635ef2e,,,,,,,,
j,1.8832,0,47,47,41,1,5d1cfc4ee950480015366f7b,ROROORO,ROROORR,20.42602454,21.71443381,series_1,5d1cfc4ee950480015366f7b,Kobieta,23,2021-09-06_20h00.33.126,rantool2,2021.1.4,Win32,60.20832079,6135e006383e6ea6c3d06a28,6136572bb42225441635ef2e,,,,,,,,
j,0.1446,0,48,48,15,1,5d1cfc4ee950480015366f7b,OORRRRO,OORRRRR,22.10108823,21.74922619,series_0,5d1cfc4ee950480015366f7b,Kobieta,23,2021-09-06_20h00.33.126,rantool2,2021.1.4,Win32,60.20832079,6135e006383e6ea6c3d06a28,6136572bb42225441635ef2e,,,,,,,,
j,0.1457,0,49,49,42,1,5d1cfc4ee950480015366f7b,ROROROO,ROROROR,20.39515459,19.8361834,series_0,5d1cfc4ee950480015366f7b,Kobieta,23,2021-09-06_20h00.33.126,rantool2,2021.1.4,Win32,60.20832079,6135e006383e6ea6c3d06a28,6136572bb42225441635ef2e,,,,,,,,
j,1.2889,0,50,50,54,1,5d1cfc4ee950480015366f7b,RRORROO,RRORROR,21.55250791,20.9984461,series_0,5d1cfc4ee950480015366f7b,Kobieta,23,2021-09-06_20h00.33.126,rantool2,2021.1.4,Win32,60.20832079,6135e006383e6ea6c3d06a28,6136572bb42225441635ef2e,,,,,,,,
j,0.1554,0,51,51,5,1,5d1cfc4ee950480015366f7b,OOORORO,OOORORR,20.87963819,21.9921709,series_1,5d1cfc4ee950480015366f7b,Kobieta,23,2021-09-06_20h00.33.126,rantool2,2021.1.4,Win32,60.20832079,6135e006383e6ea6c3d06a28,6136572bb42225441635ef2e,,,,,,,,
f,1.4163,0,52,52,20,1,5d1cfc4ee950480015366f7b,OROROOO,OROROOR,21.31236711,21.90565814,series_1,5d1cfc4ee950480015366f7b,Kobieta,23,2021-09-06_20h00.33.126,rantool2,2021.1.4,Win32,60.20832079,6135e006383e6ea6c3d06a28,6136572bb42225441635ef2e,,,,,,,,
f,0.1522,0,53,53,44,1,5d1cfc4ee950480015366f7b,RORROOO,RORROOR,21.66733484,22.02566557,series_1,5d1cfc4ee950480015366f7b,Kobieta,23,2021-09-06_20h00.33.126,rantool2,2021.1.4,Win32,60.20832079,6135e006383e6ea6c3d06a28,6136572bb42225441635ef2e,,,,,,,,
f,0.156,0,54,54,19,1,5d1cfc4ee950480015366f7b,OROORRO,OROORRR,21.73568164,22.11181017,series_1,5d1cfc4ee950480015366f7b,Kobieta,23,2021-09-06_20h00.33.126,rantool2,2021.1.4,Win32,60.20832079,6135e006383e6ea6c3d06a28,6136572bb42225441635ef2e,,,,,,,,
j,1.3192,0,55,55,58,1,5d1cfc4ee950480015366f7b,RRROROO,RRROROR,22.1285618,21.37121559,series_0,5d1cfc4ee950480015366f7b,Kobieta,23,2021-09-06_20h00.33.126,rantool2,2021.1.4,Win32,60.20832079,6135e006383e6ea6c3d06a28,6136572bb42225441635ef2e,,,,,,,,
j,0.1772,0,56,56,30,1,5d1cfc4ee950480015366f7b,ORRRROO,ORRRROR,22.46748491,22.03072203,series_0,5d1cfc4ee950480015366f7b,Kobieta,23,2021-09-06_20h00.33.126,rantool2,2021.1.4,Win32,60.20832079,6135e006383e6ea6c3d06a28,6136572bb42225441635ef2e,,,,,,,,
j,0.175,0,57,57,39,1,5d1cfc4ee950480015366f7b,ROORRRO,ROORRRR,21.82425538,21.38562617,series_0,5d1cfc4ee950480015366f7b,Kobieta,23,2021-09-06_20h00.33.126,rantool2,2021.1.4,Win32,60.20832079,6135e006383e6ea6c3d06a28,6136572bb42225441635ef2e,,,,,,,,
j,0.1712,0,58,58,48,1,5d1cfc4ee950480015366f7b,RROOOOO,RROOOOR,20.90986523,22.15934078,series_1,5d1cfc4ee950480015366f7b,Kobieta,23,2021-09-06_20h00.33.126,rantool2,2021.1.4,Win32,60.20832079,6135e006383e6ea6c3d06a28,6136572bb42225441635ef2e,,,,,,,,
f,1.7773,0,59,59,18,1,5d1cfc4ee950480015366f7b,OROOROO,OROOROR,20.84860893,21.22513037,series_1,5d1cfc4ee950480015366f7b,Kobieta,23,2021-09-06_20h00.33.126,rantool2,2021.1.4,Win32,60.20832079,6135e006383e6ea6c3d06a28,6136572bb42225441635ef2e,,,,,,,,
j,0.8957,0,60,60,60,1,5d1cfc4ee950480015366f7b,RRRROOO,RRRROOR,22.10108823,22.15934078,series_1,5d1cfc4ee950480015366f7b,Kobieta,23,2021-09-06_20h00.33.126,rantool2,2021.1.4,Win32,60.20832079,6135e006383e6ea6c3d06a28,6136572bb42225441635ef2e,,,,,,,,
f,0.309,0,61,61,28,1,5d1cfc4ee950480015366f7b,ORRROOO,ORRROOR,22.24142883,22.53364006,series_1,5d1cfc4ee950480015366f7b,Kobieta,23,2021-09-06_20h00.33.126,rantool2,2021.1.4,Win32,60.20832079,6135e006383e6ea6c3d06a28,6136572bb42225441635ef2e,,,,,,,,
j,2.5827,0,62,62,46,1,5d1cfc4ee950480015366f7b,RORRROO,RORRROR,22.00300695,21.24781509,series_0,5d1cfc4ee950480015366f7b,Kobieta,23,2021-09-06_20h00.33.126,rantool2,2021.1.4,Win32,60.20832079,6135e006383e6ea6c3d06a28,6136572bb42225441635ef2e,,,,,,,,
f,1.2284,0,63,63,7,1,5d1cfc4ee950480015366f7b,OOORRRO,OOORRRR,21.6194508,21.899017,series_1,5d1cfc4ee950480015366f7b,Kobieta,23,2021-09-06_20h00.33.126,rantool2,2021.1.4,Win32,60.20832079,6135e006383e6ea6c3d06a28,6136572bb42225441635ef2e,,,,,,,,
,,,,,,,5d1cfc4ee950480015366f7b,,,,,,5d1cfc4ee950480015366f7b,Kobieta,23,2021-09-06_20h00.33.126,rantool2,2021.1.4,Win32,60.20832079,6135e006383e6ea6c3d06a28,6136572bb42225441635ef2e,0,,,0,0,0,0,1
,,,,,,,5d1cfc4ee950480015366f7b,,,,,,5d1cfc4ee950480015366f7b,Kobieta,23,2021-09-06_20h00.33.126,rantool2,2021.1.4,Win32,60.20832079,6135e006383e6ea6c3d06a28,6136572bb42225441635ef2e,0,,,1,0,1,0,1
,,,,,,,5d1cfc4ee950480015366f7b,,,,,,5d1cfc4ee950480015366f7b,Kobieta,23,2021-09-06_20h00.33.126,rantool2,2021.1.4,Win32,60.20832079,6135e006383e6ea6c3d06a28,6136572bb42225441635ef2e,0,,,2,0,2,0,1
,,,,,,,5d1cfc4ee950480015366f7b,,,,,,5d1cfc4ee950480015366f7b,Kobieta,23,2021-09-06_20h00.33.126,rantool2,2021.1.4,Win32,60.20832079,6135e006383e6ea6c3d06a28,6136572bb42225441635ef2e,0,,,3,0,3,0,1
,,,,,,,5d1cfc4ee950480015366f7b,,,,,,5d1cfc4ee950480015366f7b,Kobieta,23,2021-09-06_20h00.33.126,rantool2,2021.1.4,Win32,60.20832079,6135e006383e6ea6c3d06a28,6136572bb42225441635ef2e,0,,,4,0,4,0,1
,,,,,,,5d1cfc4ee950480015366f7b,,,,,,5d1cfc4ee950480015366f7b,Kobieta,23,2021-09-06_20h00.33.126,rantool2,2021.1.4,Win32,60.20832079,6135e006383e6ea6c3d06a28,6136572bb42225441635ef2e,0,,,5,0,5,0,1
,,,,,,,5d1cfc4ee950480015366f7b,,,,,,5d1cfc4ee950480015366f7b,Kobieta,23,2021-09-06_20h00.33.126,rantool2,2021.1.4,Win32,60.20832079,6135e006383e6ea6c3d06a28,6136572bb42225441635ef2e,0,,,6,0,6,0,1
,,,,,,,5d1cfc4ee950480015366f7b,,,,,,5d1cfc4ee950480015366f7b,Kobieta,23,2021-09-06_20h00.33.126,rantool2,2021.1.4,Win32,60.20832079,6135e006383e6ea6c3d06a28,6136572bb42225441635ef2e,0,,,7,0,7,0,1
,,,,,,,5d1cfc4ee950480015366f7b,,,,,,5d1cfc4ee950480015366f7b,Kobieta,23,2021-09-06_20h00.33.126,rantool2,2021.1.4,Win32,60.20832079,6135e006383e6ea6c3d06a28,6136572bb42225441635ef2e,0,,,8,0,8,0,1
,,,,,,,5d1cfc4ee950480015366f7b,,,,,,5d1cfc4ee950480015366f7b,Kobieta,23,2021-09-06_20h00.33.126,rantool2,2021.1.4,Win32,60.20832079,6135e006383e6ea6c3d06a28,6136572bb42225441635ef2e,0,,,9,0,9,0,1
,,,,,,,5d1cfc4ee950480015366f7b,,,,,,5d1cfc4ee950480015366f7b,Kobieta,23,2021-09-06_20h00.33.126,rantool2,2021.1.4,Win32,60.20832079,6135e006383e6ea6c3d06a28,6136572bb42225441635ef2e,0,,,10,0,10,0,1
,,,,,,,5d1cfc4ee950480015366f7b,,,,,,5d1cfc4ee950480015366f7b,Kobieta,23,2021-09-06_20h00.33.126,rantool2,2021.1.4,Win32,60.20832079,6135e006383e6ea6c3d06a28,6136572bb42225441635ef2e,0,,,11,0,11,0,1
,,,,,,,5d1cfc4ee950480015366f7b,,,,,,5d1cfc4ee950480015366f7b,Kobieta,23,2021-09-06_20h00.33.126,rantool2,2021.1.4,Win32,60.20832079,6135e006383e6ea6c3d06a28,6136572bb42225441635ef2e,0,,,12,0,12,0,1
,,,,,,,5d1cfc4ee950480015366f7b,,,,,,5d1cfc4ee950480015366f7b,Kobieta,23,2021-09-06_20h00.33.126,rantool2,2021.1.4,Win32,60.20832079,6135e006383e6ea6c3d06a28,6136572bb42225441635ef2e,0,,,13,0,13,0,1
,,,,,,,5d1cfc4ee950480015366f7b,,,,,,5d1cfc4ee950480015366f7b,Kobieta,23,2021-09-06_20h00.33.126,rantool2,2021.1.4,Win32,60.20832079,6135e006383e6ea6c3d06a28,6136572bb42225441635ef2e,0,,,14,0,14,0,1
,,,,,,,5d1cfc4ee950480015366f7b,,,,,,5d1cfc4ee950480015366f7b,Kobieta,23,2021-09-06_20h00.33.126,rantool2,2021.1.4,Win32,60.20832079,6135e006383e6ea6c3d06a28,6136572bb42225441635ef2e,0,,,15,0,15,0,1
,,,,,,,5d1cfc4ee950480015366f7b,,,,,,5d1cfc4ee950480015366f7b,Kobieta,23,2021-09-06_20h00.33.126,rantool2,2021.1.4,Win32,60.20832079,6135e006383e6ea6c3d06a28,6136572bb42225441635ef2e,0,,,16,0,16,0,1
,,,,,,,5d1cfc4ee950480015366f7b,,,,,,5d1cfc4ee950480015366f7b,Kobieta,23,2021-09-06_20h00.33.126,rantool2,2021.1.4,Win32,60.20832079,6135e006383e6ea6c3d06a28,6136572bb42225441635ef2e,0,,,17,0,17,0,1
,,,,,,,5d1cfc4ee950480015366f7b,,,,,,5d1cfc4ee950480015366f7b,Kobieta,23,2021-09-06_20h00.33.126,rantool2,2021.1.4,Win32,60.20832079,6135e006383e6ea6c3d06a28,6136572bb42225441635ef2e,0,,,18,0,18,0,1
,,,,,,,5d1cfc4ee950480015366f7b,,,,,,5d1cfc4ee950480015366f7b,Kobieta,23,2021-09-06_20h00.33.126,rantool2,2021.1.4,Win32,60.20832079,6135e006383e6ea6c3d06a28,6136572bb42225441635ef2e,0,,,19,0,19,0,1
,,,,,,,5d1cfc4ee950480015366f7b,,,,,,5d1cfc4ee950480015366f7b,Kobieta,23,2021-09-06_20h00.33.126,rantool2,2021.1.4,Win32,60.20832079,6135e006383e6ea6c3d06a28,6136572bb42225441635ef2e,0,,,20,0,20,0,1
,,,,,,,5d1cfc4ee950480015366f7b,,,,,,5d1cfc4ee950480015366f7b,Kobieta,23,2021-09-06_20h00.33.126,rantool2,2021.1.4,Win32,60.20832079,6135e006383e6ea6c3d06a28,6136572bb42225441635ef2e,0,,,21,0,21,0,1
,,,,,,,5d1cfc4ee950480015366f7b,,,,,,5d1cfc4ee950480015366f7b,Kobieta,23,2021-09-06_20h00.33.126,rantool2,2021.1.4,Win32,60.20832079,6135e006383e6ea6c3d06a28,6136572bb42225441635ef2e,0,,,22,0,22,0,1
,,,,,,,5d1cfc4ee950480015366f7b,,,,,,5d1cfc4ee950480015366f7b,Kobieta,23,2021-09-06_20h00.33.126,rantool2,2021.1.4,Win32,60.20832079,6135e006383e6ea6c3d06a28,6136572bb42225441635ef2e,0,,,23,0,23,0,1
,,,,,,,5d1cfc4ee950480015366f7b,,,,,,5d1cfc4ee950480015366f7b,Kobieta,23,2021-09-06_20h00.33.126,rantool2,2021.1.4,Win32,60.20832079,6135e006383e6ea6c3d06a28,6136572bb42225441635ef2e,0,,,24,0,24,0,1
,,,,,,,5d1cfc4ee950480015366f7b,,,,,,5d1cfc4ee950480015366f7b,Kobieta,23,2021-09-06_20h00.33.126,rantool2,2021.1.4,Win32,60.20832079,6135e006383e6ea6c3d06a28,6136572bb42225441635ef2e,0,,,25,0,25,0,1
,,,,,,,5d1cfc4ee950480015366f7b,,,,,,5d1cfc4ee950480015366f7b,Kobieta,23,2021-09-06_20h00.33.126,rantool2,2021.1.4,Win32,60.20832079,6135e006383e6ea6c3d06a28,6136572bb42225441635ef2e,0,,,26,0,26,0,1
,,,,,,,5d1cfc4ee950480015366f7b,,,,,,5d1cfc4ee950480015366f7b,Kobieta,23,2021-09-06_20h00.33.126,rantool2,2021.1.4,Win32,60.20832079,6135e006383e6ea6c3d06a28,6136572bb42225441635ef2e,0,,,27,0,27,0,1
,,,,,,,5d1cfc4ee950480015366f7b,,,,,,5d1cfc4ee950480015366f7b,Kobieta,23,2021-09-06_20h00.33.126,rantool2,2021.1.4,Win32,60.20832079,6135e006383e6ea6c3d06a28,6136572bb42225441635ef2e,0,,,28,0,28,0,1
,,,,,,,5d1cfc4ee950480015366f7b,,,,,,5d1cfc4ee950480015366f7b,Kobieta,23,2021-09-06_20h00.33.126,rantool2,2021.1.4,Win32,60.20832079,6135e006383e6ea6c3d06a28,6136572bb42225441635ef2e,0,,,29,0,29,0,1
,,,,,,,5d1cfc4ee950480015366f7b,,,,,,5d1cfc4ee950480015366f7b,Kobieta,23,2021-09-06_20h00.33.126,rantool2,2021.1.4,Win32,60.20832079,6135e006383e6ea6c3d06a28,6136572bb42225441635ef2e,0,,,30,0,30,0,1
,,,,,,,5d1cfc4ee950480015366f7b,,,,,,5d1cfc4ee950480015366f7b,Kobieta,23,2021-09-06_20h00.33.126,rantool2,2021.1.4,Win32,60.20832079,6135e006383e6ea6c3d06a28,6136572bb42225441635ef2e,0,,,31,0,31,0,1
,,,,,,,5d1cfc4ee950480015366f7b,,,,,,5d1cfc4ee950480015366f7b,Kobieta,23,2021-09-06_20h00.33.126,rantool2,2021.1.4,Win32,60.20832079,6135e006383e6ea6c3d06a28,6136572bb42225441635ef2e,0,,,32,0,32,0,1
,,,,,,,5d1cfc4ee950480015366f7b,,,,,,5d1cfc4ee950480015366f7b,Kobieta,23,2021-09-06_20h00.33.126,rantool2,2021.1.4,Win32,60.20832079,6135e006383e6ea6c3d06a28,6136572bb42225441635ef2e,0,,,33,0,33,0,1
,,,,,,,5d1cfc4ee950480015366f7b,,,,,,5d1cfc4ee950480015366f7b,Kobieta,23,2021-09-06_20h00.33.126,rantool2,2021.1.4,Win32,60.20832079,6135e006383e6ea6c3d06a28,6136572bb42225441635ef2e,"[""comma"",""comma""]",0,"[0.31009999990465076,0.6697000000476976]",34,0,34,0,1
,,,,,,,5d1cfc4ee950480015366f7b,,,,,,5d1cfc4ee950480015366f7b,Kobieta,23,2021-09-06_20h00.33.126,rantool2,2021.1.4,Win32,60.20832079,6135e006383e6ea6c3d06a28,6136572bb42225441635ef2e,"[""comma"",""comma"",""comma"",""comma"",""comma""]",0,"[0.2891999998092558,0.47100000000000364,0.6828999998569429,0.8346999998092599,1.02219999980926]",35,0,35,0,1
,,,,,,,5d1cfc4ee950480015366f7b,,,,,,5d1cfc4ee950480015366f7b,Kobieta,23,2021-09-06_20h00.33.126,rantool2,2021.1.4,Win32,60.20832079,6135e006383e6ea6c3d06a28,6136572bb42225441635ef2e,"[""period"",""period"",""period"",""period"",""comma"",""period"",""period"",""comma"",""period"",""period""]",0,"[0.0122000000476703,0.36820000004769327,0.5074000000953731,0.6699999999999875,0.7740000000000009,1.0164000000953592,1.3057999999523133,1.5079000000953613,1.7439999999999998,1.9244999999999948]",36,0,36,0,1
,,,,,,,5d1cfc4ee950480015366f7b,,,,,,5d1cfc4ee950480015366f7b,Kobieta,23,2021-09-06_20h00.33.126,rantool2,2021.1.4,Win32,60.20832079,6135e006383e6ea6c3d06a28,6136572bb42225441635ef2e,"[""comma"",""period""]",0,"[0.4544999999999959,1.140199999809255]",37,0,37,0,1
,,,,,,,5d1cfc4ee950480015366f7b,,,,,,5d1cfc4ee950480015366f7b,Kobieta,23,2021-09-06_20h00.33.126,rantool2,2021.1.4,Win32,60.20832079,6135e006383e6ea6c3d06a28,6136572bb42225441635ef2e,"[""comma"",""period"",""comma"",""period"",""comma"",""period"",""comma"",""period"",""comma""]",0,"[0.057199999809256497,0.7874999999999943,0.9010000000000105,1.0020999999046296,1.1661999998092654,1.2498999998569502,1.4165000000000134,1.466699999809265,1.782999999999987]",38,0,38,0,1
,,,,,,,5d1cfc4ee950480015366f7b,,,,,,5d1cfc4ee950480015366f7b,Kobieta,23,2021-09-06_20h00.33.126,rantool2,2021.1.4,Win32,60.20832079,6135e006383e6ea6c3d06a28,6136572bb42225441635ef2e,"[""comma"",""comma"",""period"",""period"",""period"",""period"",""period"",""period""]",0,"[0.004299999952309008,0.2039999999999793,0.8029999999999973,1.1997999999522904,1.3704000000953442,1.5487999999523083,1.7159999999999798,1.899499999999989]",39,0,39,0,1
,,,,,,,5d1cfc4ee950480015366f7b,,,,,,5d1cfc4ee950480015366f7b,Kobieta,23,2021-09-06_20h00.33.126,rantool2,2021.1.4,Win32,60.20832079,6135e006383e6ea6c3d06a28,6136572bb42225441635ef2e,"[""period"",""period"",""period"",""period"",""period"",""comma"",""comma"",""comma"",""comma"",""period"",""comma""]",0,"[0.046100000143070474,0.20910000014305297,0.3894000000953781,0.5459000000953722,0.7166000001430461,0.8874000000953686,1.209100000143053,1.4212000000476905,1.620799999952311,1.7832999999523338,1.954299999952326]",40,0,40,0,1
,,,,,,,5d1cfc4ee950480015366f7b,,,,,,5d1cfc4ee950480015366f7b,Kobieta,23,2021-09-06_20h00.33.126,rantool2,2021.1.4,Win32,60.20832079,6135e006383e6ea6c3d06a28,6136572bb42225441635ef2e,"[""period"",""comma"",""period"",""comma"",""period"",""comma"",""period"",""comma"",""period"",""comma"",""period"",""comma""]",0,"[0.16949999999999932,0.28429999995231015,0.4727999999523149,0.6047999999523199,0.7835000000000036,0.9420999999046273,1.1227999999523206,1.2882000000476808,1.4490999999046323,1.5595999999046342,1.7202000000476971,1.8493999998569564]",41,0,41,0,1
,,,,,,,5d1cfc4ee950480015366f7b,,,,,,5d1cfc4ee950480015366f7b,Kobieta,23,2021-09-06_20h00.33.126,rantool2,2021.1.4,Win32,60.20832079,6135e006383e6ea6c3d06a28,6136572bb42225441635ef2e,"[""period"",""comma"",""period"",""comma"",""period"",""period"",""period"",""period"",""period"",""comma"",""comma"",""comma""]",0,"[0.003999999999990678,0.13970000004769645,0.28429999995231015,0.4177999999523081,0.7603999998569577,0.9117000000476878,1.0580999999046412,1.2160999999046282,1.308299999952311,1.3832000000476796,1.7358999998569402,1.9343999998569643]",42,0,42,0,1
,,,,,,,5d1cfc4ee950480015366f7b,,,,,,5d1cfc4ee950480015366f7b,Kobieta,23,2021-09-06_20h00.33.126,rantool2,2021.1.4,Win32,60.20832079,6135e006383e6ea6c3d06a28,6136572bb42225441635ef2e,"[""comma"",""period"",""period"",""period"",""period"",""comma"",""comma"",""comma"",""comma"",""comma""]",0,"[0.07200000000000273,0.32450000000000045,0.4780999999046571,0.6340999999046346,0.7835000000000036,0.833500000000015,1.0996999998092747,1.2751999998092742,1.6040000000000134,1.8321999998092906]",43,0,43,0,1
,,,,,,,5d1cfc4ee950480015366f7b,,,,,,5d1cfc4ee950480015366f7b,Kobieta,23,2021-09-06_20h00.33.126,rantool2,2021.1.4,Win32,60.20832079,6135e006383e6ea6c3d06a28,6136572bb42225441635ef2e,"[""period"",""period"",""period"",""period"",""period"",""comma"",""comma"",""comma"",""comma"",""period"",""period""]",0,"[-0.032799999952317194,0.18350000000000932,0.36790000009537493,0.5502000000476812,0.7165999999046448,0.8832999999523281,1.0995000000000061,1.2547000000476771,1.4280999999046458,1.757000000000005,1.9210999999046408]",44,0,44,0,1
,,,,,,,5d1cfc4ee950480015366f7b,,,,,,5d1cfc4ee950480015366f7b,Kobieta,23,2021-09-06_20h00.33.126,rantool2,2021.1.4,Win32,60.20832079,6135e006383e6ea6c3d06a28,6136572bb42225441635ef2e,"[""period"",""period"",""period"",""comma"",""comma"",""comma"",""comma"",""period"",""period"",""period""]",0,"[0.11740000009538676,0.2676000001430623,0.42680000019075237,0.5462000000476905,0.7602000000476892,0.9667000000476946,1.170000000000016,1.4675000000000011,1.6596000001430582,1.8342000000477015]",45,0,45,0,1
,,,,,,,5d1cfc4ee950480015366f7b,,,,,,5d1cfc4ee950480015366f7b,Kobieta,23,2021-09-06_20h00.33.126,rantool2,2021.1.4,Win32,60.20832079,6135e006383e6ea6c3d06a28,6136572bb42225441635ef2e,"[""period"",""comma"",""comma"",""comma"",""comma"",""comma""]",0,"[0.020000000000010232,1.0427999999523365,1.2867999999523363,1.502799999952316,1.7180000000000177,1.9165000000000134]",46,0,46,0,1
,,,,,,,5d1cfc4ee950480015366f7b,,,,,,5d1cfc4ee950480015366f7b,Kobieta,23,2021-09-06_20h00.33.126,rantool2,2021.1.4,Win32,60.20832079,6135e006383e6ea6c3d06a28,6136572bb42225441635ef2e,"[""period"",""period"",""period"",""period"",""period"",""comma"",""period"",""period""]",0,"[0.12910000014304046,0.35770000004768576,0.47020000004769713,0.6510000000000105,0.7789000000953763,0.9379000000953681,1.7917000000476833,1.9439000000953683]",47,0,47,0,1
,,,,,,,5d1cfc4ee950480015366f7b,,,,,,5d1cfc4ee950480015366f7b,Kobieta,23,2021-09-06_20h00.33.126,rantool2,2021.1.4,Win32,60.20832079,6135e006383e6ea6c3d06a28,6136572bb42225441635ef2e,"[""period"",""period"",""period"",""period"",""comma"",""comma"",""comma"",""comma"",""period""]",0,"[0.136299999952314,0.31409999990464144,0.5364000000953695,0.7005000000000052,0.8489999999999895,1.0962000000476735,1.3754000000953681,1.5745999999046205,1.7960999999046408]",48,0,48,0,1
,,,,,,,5d1cfc4ee950480015366f7b,,,,,,5d1cfc4ee950480015366f7b,Kobieta,23,2021-09-06_20h00.33.126,rantool2,2021.1.4,Win32,60.20832079,6135e006383e6ea6c3d06a28,6136572bb42225441635ef2e,"[""period"",""comma"",""period"",""comma"",""period"",""period"",""period"",""comma"",""comma"",""comma"",""period"",""period""]",0,"[-0.032800000190746914,0.0995999999046262,0.2670999999046444,0.38700000000000045,0.5992999999523079,0.7665000000000077,0.9253999998569498,1.0832999999523167,1.2864999999999895,1.4916999998092706,1.7079999999999984,1.8778999998569361]",49,0,49,0,1
,,,,,,,5d1cfc4ee950480015366f7b,,,,,,5d1cfc4ee950480015366f7b,Kobieta,23,2021-09-06_20h00.33.126,rantool2,2021.1.4,Win32,60.20832079,6135e006383e6ea6c3d06a28,6136572bb42225441635ef2e,"[""period"",""comma"",""period"",""period"",""period"",""comma""]",0,"[0.0785999999046112,0.28350000000000364,0.5837999999523049,0.74389999985695,0.8915999999046278,1.1445999999046137]",50,0,50,0,1
,,,,,,,5d1cfc4ee950480015366f7b,,,,,,5d1cfc4ee950480015366f7b,Kobieta,23,2021-09-06_20h00.33.126,rantool2,2021.1.4,Win32,60.20832079,6135e006383e6ea6c3d06a28,6136572bb42225441635ef2e,"[""period"",""comma"",""period"",""comma"",""period"",""comma"",""period"",""comma""]",0,"[0.9170000000000016,1.0031999998092545,1.1763999998569545,1.261299999952314,1.3557999999523247,1.4664999999999964,1.539599999904624,1.8851999998092595]",51,0,51,0,1
,,,,,,,5d1cfc4ee950480015366f7b,,,,,,5d1cfc4ee950480015366f7b,Kobieta,23,2021-09-06_20h00.33.126,rantool2,2021.1.4,Win32,60.20832079,6135e006383e6ea6c3d06a28,6136572bb42225441635ef2e,"[""period"",""comma"",""period"",""comma"",""period"",""period"",""comma"",""period"",""comma"",""period"",""comma"",""period"",""comma"",""period""]",0,"[-0.016299999952337885,0.09699999999997999,0.1197000000476578,0.25409999990461074,0.28690000009535765,1.1507000000476637,1.2329000000953556,1.3215999999046062,1.405200000047671,1.4994999999999834,1.5759999999999934,1.6370000000000005,1.749200000047665,1.7997000000476646]",52,0,52,0,1
,,,,,,,5d1cfc4ee950480015366f7b,,,,,,5d1cfc4ee950480015366f7b,Kobieta,23,2021-09-06_20h00.33.126,rantool2,2021.1.4,Win32,60.20832079,6135e006383e6ea6c3d06a28,6136572bb42225441635ef2e,"[""period"",""comma"",""period"",""comma"",""period"",""period"",""comma"",""period"",""comma"",""period"",""comma""]",0,"[0.9838000001907403,1.0832000000476683,1.13730000019072,1.2574000000953731,1.3166000001430405,1.453400000095371,1.5289000000953479,1.6370000000000005,1.7403000001907287,1.8192000000476867,1.9334000000953608]",53,0,53,0,1
,,,,,,,5d1cfc4ee950480015366f7b,,,,,,5d1cfc4ee950480015366f7b,Kobieta,23,2021-09-06_20h00.33.126,rantool2,2021.1.4,Win32,60.20832079,6135e006383e6ea6c3d06a28,6136572bb42225441635ef2e,"[""period"",""comma"",""period"",""period"",""comma"",""period"",""comma"",""period"",""comma"",""period"",""comma"",""period""]",0,"[0.006899999856955219,0.13929999995232833,0.17009999990463598,0.3499999999999943,0.3502000000476926,0.5172000000476942,0.5670999999046273,0.6862000000476769,0.7420999999046387,0.8555000000000064,0.9327000000477028,1.0258999998569607]",54,0,54,0,1
,,,,,,,5d1cfc4ee950480015366f7b,,,,,,5d1cfc4ee950480015366f7b,Kobieta,23,2021-09-06_20h00.33.126,rantool2,2021.1.4,Win32,60.20832079,6135e006383e6ea6c3d06a28,6136572bb42225441635ef2e,"[""comma"",""period"",""comma"",""period"",""comma"",""period"",""comma"",""period"",""period"",""comma"",""period""]",0,"[0.6168999998569404,0.8837999999523163,1.0402000000476903,1.0838999998569534,1.282999999999987,1.3028999998569475,1.4723999998569468,1.5030999999046344,1.6870999999046319,1.718599999904626,1.916499999999985]",55,0,55,0,1
,,,,,,,5d1cfc4ee950480015366f7b,,,,,,5d1cfc4ee950480015366f7b,Kobieta,23,2021-09-06_20h00.33.126,rantool2,2021.1.4,Win32,60.20832079,6135e006383e6ea6c3d06a28,6136572bb42225441635ef2e,"[""comma"",""period"",""period"",""comma"",""comma"",""comma"",""period"",""period""]",0,"[0.08239999985696045,1.063299999952335,1.2704999999999984,1.2987000000476883,1.4080000000000155,1.5960999999046521,1.646099999904635,1.7747999999523358]",56,0,56,0,1
,,,,,,,5d1cfc4ee950480015366f7b,,,,,,5d1cfc4ee950480015366f7b,Kobieta,23,2021-09-06_20h00.33.126,rantool2,2021.1.4,Win32,60.20832079,6135e006383e6ea6c3d06a28,6136572bb42225441635ef2e,"[""period"",""comma""]",0,"[0.18859999990465326,0.6182999999523133]",57,0,57,0,1
,,,,,,,5d1cfc4ee950480015366f7b,,,,,,5d1cfc4ee950480015366f7b,Kobieta,23,2021-09-06_20h00.33.126,rantool2,2021.1.4,Win32,60.20832079,6135e006383e6ea6c3d06a28,6136572bb42225441635ef2e,"[""period"",""period"",""period"",""period"",""comma"",""comma""]",0,"[0.056599999904619835,0.2372999999523131,0.6014999999999873,1.2995999999046148,1.6044999999999732,1.7719999999999914]",58,0,58,0,1
,,,,,,,5d1cfc4ee950480015366f7b,,,,,,5d1cfc4ee950480015366f7b,Kobieta,23,2021-09-06_20h00.33.126,rantool2,2021.1.4,Win32,60.20832079,6135e006383e6ea6c3d06a28,6136572bb42225441635ef2e,"[""period"",""comma"",""comma"",""comma""]",0,"[0.0006000001430379598,0.2671000001430457,0.9336000001430307,1.3106000001430402]",59,0,59,0,1
,,,,,,,5d1cfc4ee950480015366f7b,,,,,,5d1cfc4ee950480015366f7b,Kobieta,23,2021-09-06_20h00.33.126,rantool2,2021.1.4,Win32,60.20832079,6135e006383e6ea6c3d06a28,6136572bb42225441635ef2e,"[""comma"",""period"",""comma"",""period"",""comma"",""period"",""comma"",""period"",""comma"",""period""]",0,"[0.28379999995232197,0.6332999999522997,0.8351000001430577,1.0362999999523197,1.1997999999523188,1.3667999999523204,1.4997999999523017,1.6601000001430464,1.7665000000000077,1.9072999999523006]",60,0,60,0,1
,,,,,,,5d1cfc4ee950480015366f7b,,,,,,5d1cfc4ee950480015366f7b,Kobieta,23,2021-09-06_20h00.33.126,rantool2,2021.1.4,Win32,60.20832079,6135e006383e6ea6c3d06a28,6136572bb42225441635ef2e,"[""comma"",""period"",""comma"",""period"",""comma"",""period"",""comma"",""period"",""comma"",""period"",""comma""]",0,"[0.009700000047700996,0.16240000009537425,0.5006000001430664,0.7831000001430652,0.8567000000477094,1.033700000047702,1.120600000143071,1.2731000001430743,1.3503000001907424,1.5453000001907355,1.6388000001907415]",61,0,61,0,1
,,,,,,,5d1cfc4ee950480015366f7b,,,,,,5d1cfc4ee950480015366f7b,Kobieta,23,2021-09-06_20h00.33.126,rantool2,2021.1.4,Win32,60.20832079,6135e006383e6ea6c3d06a28,6136572bb42225441635ef2e,"[""period"",""comma"",""period"",""comma"",""period"",""comma"",""period"",""comma"",""period"",""comma""]",0,"[0.38710000014305024,0.56860000014305,0.6201000001430543,0.7594000000953542,0.9207000000476739,1.007000000000005,1.191799999952309,1.2854000000953647,1.483200000047674,1.6004000000953624]",62,0,62,0,1
,,,,,,,5d1cfc4ee950480015366f7b,,,,,,5d1cfc4ee950480015366f7b,Kobieta,23,2021-09-06_20h00.33.126,rantool2,2021.1.4,Win32,60.20832079,6135e006383e6ea6c3d06a28,6136572bb42225441635ef2e,0,0,,63,0,63,0,1
,,,,,,,5d1cfc4ee950480015366f7b,,,,,,5d1cfc4ee950480015366f7b,Kobieta,23,2021-09-06_20h00.33.126,rantool2,2021.1.4,Win32,60.20832079,6135e006383e6ea6c3d06a28,6136572bb42225441635ef2e,0,0,,64,0,64,0,1
,,,,,,,5d1cfc4ee950480015366f7b,,,,,,5d1cfc4ee950480015366f7b,Kobieta,23,2021-09-06_20h00.33.126,rantool2,2021.1.4,Win32,60.20832079,6135e006383e6ea6c3d06a28,6136572bb42225441635ef2e,"[""period"",""period"",""comma"",""period"",""comma"",""period"",""period"",""comma"",""period""]",0,"[0.08530000019072759,0.3597000000476669,0.5056000001430334,0.7332000000476739,0.8836000001430477,1.1204000000953727,1.4833000001907237,1.67349999999999,1.870999999999981]",65,0,65,0,1
,,,,,,,5d1cfc4ee950480015366f7b,,,,,,5d1cfc4ee950480015366f7b,Kobieta,23,2021-09-06_20h00.33.126,rantool2,2021.1.4,Win32,60.20832079,6135e006383e6ea6c3d06a28,6136572bb42225441635ef2e,"[""comma"",""period"",""comma"",""period"",""comma"",""period"",""comma"",""period"",""comma"",""period""]",0,"[0.06049999999999045,0.32039999985696,0.47309999990463325,0.7512999999523231,0.9205000000000041,1.1613999998569398,1.3500999999046428,1.5688999998569386,1.775399999856944,1.9495000000000005]",66,0,66,0,1
,,,,,,,5d1cfc4ee950480015366f7b,,,,,,5d1cfc4ee950480015366f7b,Kobieta,23,2021-09-06_20h00.33.126,rantool2,2021.1.4,Win32,60.20832079,6135e006383e6ea6c3d06a28,6136572bb42225441635ef2e,"[""comma"",""period"",""comma"",""period"",""period"",""period"",""period""]",0,"[0.1052999999523081,0.4172999999523199,0.6837000000476792,0.8627000000476812,1.0762999999523117,1.236799999952325,1.4047000000476828]",67,0,67,0,1
,,,,,,,5d1cfc4ee950480015366f7b,,,,,,5d1cfc4ee950480015366f7b,Kobieta,23,2021-09-06_20h00.33.126,rantool2,2021.1.4,Win32,60.20832079,6135e006383e6ea6c3d06a28,6136572bb42225441635ef2e,"[""comma"",""period"",""period"",""comma"",""period"",""comma"",""period"",""comma"",""period"",""comma"",""period""]",0,"[0.1705000000000041,0.3929000000953806,0.5839000000953831,0.7440999999046483,0.8459000000953836,1.0500999999046314,1.2207000000476853,1.411599999904638,1.510599999904656,1.732500000000016,1.782900000095367]",68,0,68,0,1
,,,,,,,5d1cfc4ee950480015366f7b,,,,,,5d1cfc4ee950480015366f7b,Kobieta,23,2021-09-06_20h00.33.126,rantool2,2021.1.4,Win32,60.20832079,6135e006383e6ea6c3d06a28,6136572bb42225441635ef2e,"[""period"",""comma"",""period"",""comma"",""period"",""comma"",""period"",""comma"",""period"",""comma"",""period"",""comma""]",0,"[0.02870000004767803,0.23410000014305865,0.3632999999523179,0.6062999999523129,0.8230000000000075,1.0021000001430593,1.1429000000953806,1.2902999999523104,1.433200000047691,1.5936000001430557,1.7269000000953838,1.9011000001430602]",69,0,69,0,1
,,,,,,,5d1cfc4ee950480015366f7b,,,,,,5d1cfc4ee950480015366f7b,Kobieta,23,2021-09-06_20h00.33.126,rantool2,2021.1.4,Win32,60.20832079,6135e006383e6ea6c3d06a28,6136572bb42225441635ef2e,"[""period"",""comma"",""period"",""comma"",""comma"",""period"",""period"",""comma"",""period"",""comma"",""period"",""period"",""comma"",""period""]",0,"[0.08910000014304842,0.2666000001430291,0.3767999999523113,0.5437999999523129,0.7836000001430534,0.9167999999523033,1.1329000000953613,1.1519999999999868,1.3332000000476683,1.5326000001430486,1.551200000047686,1.7210000000000036,1.8099000000953538,1.8729000000953704]",70,0,70,0,1
,,,,,,,5d1cfc4ee950480015366f7b,,,,,,5d1cfc4ee950480015366f7b,Kobieta,23,2021-09-06_20h00.33.126,rantool2,2021.1.4,Win32,60.20832079,6135e006383e6ea6c3d06a28,6136572bb42225441635ef2e,0,0,,71,0,71,0,1
,,,,,,,5d1cfc4ee950480015366f7b,,,,,,5d1cfc4ee950480015366f7b,Kobieta,23,2021-09-06_20h00.33.126,rantool2,2021.1.4,Win32,60.20832079,6135e006383e6ea6c3d06a28,6136572bb42225441635ef2e,"[""period"",""period"",""period"",""comma"",""comma""]",0,"[1.3334000000953665,1.4834000000953438,1.6451000001430316,1.733200000047674,1.9170000000000016]",72,0,72,0,1
,,,,,,,5d1cfc4ee950480015366f7b,,,,,,5d1cfc4ee950480015366f7b,Kobieta,23,2021-09-06_20h00.33.126,rantool2,2021.1.4,Win32,60.20832079,6135e006383e6ea6c3d06a28,6136572bb42225441635ef2e,"[""comma"",""comma"",""period"",""period"",""comma"",""period"",""comma"",""comma"",""period"",""period"",""comma"",""comma"",""period""]",0,"[0.09640000009537175,0.28549999999998477,0.31790000009536357,0.49229999995230855,0.5184000000953688,0.717099999904633,0.8362000000476826,1.1102999999523036,1.1830999999046412,1.3870000000000005,1.6077000000476858,1.8600999999046337,1.9167999999523033]",73,0,73,0,1
,,,,,,,5d1cfc4ee950480015366f7b,,,,,,5d1cfc4ee950480015366f7b,Kobieta,23,2021-09-06_20h00.33.126,rantool2,2021.1.4,Win32,60.20832079,6135e006383e6ea6c3d06a28,6136572bb42225441635ef2e,"[""comma"",""period"",""period"",""comma"",""period"",""comma"",""period"",""comma"",""comma"",""period"",""comma""]",0,"[0.08540000009534765,0.1727000000476835,0.31740000009534697,0.4339999999999975,0.6337999999523163,0.6704999999999757,0.8499999999999943,0.8841000001430359,1.4029999999999916,1.7116000001430507,1.7344000000953486]",74,0,74,0,1
,,,,,,,5d1cfc4ee950480015366f7b,,,,,,5d1cfc4ee950480015366f7b,Kobieta,23,2021-09-06_20h00.33.126,rantool2,2021.1.4,Win32,60.20832079,6135e006383e6ea6c3d06a28,6136572bb42225441635ef2e,"[""period"",""comma"",""period"",""comma""]",0,"[1.245999999999981,1.406199999809246,1.7428999998569452,1.8677999999522967]",75,0,75,0,1
,,,,,,,5d1cfc4ee950480015366f7b,,,,,,5d1cfc4ee950480015366f7b,Kobieta,23,2021-09-06_20h00.33.126,rantool2,2021.1.4,Win32,60.20832079,6135e006383e6ea6c3d06a28,6136572bb42225441635ef2e,"[""comma"",""period"",""comma"",""comma""]",0,"[0.970499999999987,1.2179999999999893,1.3822000000476748,1.7497000000476817]",76,0,76,0,1
,,,,,,,5d1cfc4ee950480015366f7b,,,,,,5d1cfc4ee950480015366f7b,Kobieta,23,2021-09-06_20h00.33.126,rantool2,2021.1.4,Win32,60.20832079,6135e006383e6ea6c3d06a28,6136572bb42225441635ef2e,"[""period"",""comma"",""period"",""comma"",""period"",""comma"",""period"",""comma""]",0,"[0.036299999952319695,0.11679999995232038,0.41800000000000637,1.0922000000476828,1.366500000000002,1.5511000001430375,1.7327999999523058,1.9162999999523151]",77,0,77,0,1
,,,,,,,5d1cfc4ee950480015366f7b,,,,,,5d1cfc4ee950480015366f7b,Kobieta,23,2021-09-06_20h00.33.126,rantool2,2021.1.4,Win32,60.20832079,6135e006383e6ea6c3d06a28,6136572bb42225441635ef2e,"[""period"",""comma"",""period"",""comma"",""period""]",0,"[0.03390000009537175,0.16860000014304433,0.37470000004768167,1.426800000190724,1.766100000143041]",78,0,78,0,1
,,,,,,,5d1cfc4ee950480015366f7b,,,,,,5d1cfc4ee950480015366f7b,Kobieta,23,2021-09-06_20h00.33.126,rantool2,2021.1.4,Win32,60.20832079,6135e006383e6ea6c3d06a28,6136572bb42225441635ef2e,"[""period"",""period"",""period"",""period"",""period"",""period"",""comma"",""period"",""comma""]",0,"[0.033700000047673484,0.22350000000000136,0.4336000001430591,0.6093000001907285,0.8566000001430325,1.0331000001430652,1.3831000001430311,1.608600000143042,1.8336000001430648]",79,0,79,0,1
,,,,,,,5d1cfc4ee950480015366f7b,,,,,,5d1cfc4ee950480015366f7b,Kobieta,23,2021-09-06_20h00.33.126,rantool2,2021.1.4,Win32,60.20832079,6135e006383e6ea6c3d06a28,6136572bb42225441635ef2e,"[""period"",""comma"",""period"",""comma"",""period"",""comma"",""period"",""comma"",""period"",""period""]",0,"[0.00809999990462984,0.18779999995234675,0.37299999999999045,0.5422000000477283,0.7839999999999918,0.9100999999046735,1.1835999999046294,1.316500000000019,1.742999999999995,1.95120000004772]",80,0,80,0,1
,,,,,,,5d1cfc4ee950480015366f7b,,,,,,5d1cfc4ee950480015366f7b,Kobieta,23,2021-09-06_20h00.33.126,rantool2,2021.1.4,Win32,60.20832079,6135e006383e6ea6c3d06a28,6136572bb42225441635ef2e,"[""comma"",""period"",""period"",""period"",""period"",""comma""]",0,"[0.1502000000477608,0.35600000000002296,0.9832000000477308,1.1830999999046696,1.5837999999523902,1.88259999990467]",81,0,81,0,1
,,,,,,,5d1cfc4ee950480015366f7b,,,,,,5d1cfc4ee950480015366f7b,Kobieta,23,2021-09-06_20h00.33.126,rantool2,2021.1.4,Win32,60.20832079,6135e006383e6ea6c3d06a28,6136572bb42225441635ef2e,"[""period"",""comma"",""period"",""period"",""comma"",""period"",""comma"",""period""]",0,"[0.11710000014306843,0.3003000001907594,0.538300000190759,0.7696000001431003,1.103200000047707,1.3943000001907535,1.7038000001907676,1.9593000001907512]",82,0,82,0,1
,,,,,,,5d1cfc4ee950480015366f7b,,,,,,5d1cfc4ee950480015366f7b,Kobieta,23,2021-09-06_20h00.33.126,rantool2,2021.1.4,Win32,60.20832079,6135e006383e6ea6c3d06a28,6136572bb42225441635ef2e,"[""comma"",""period"",""period"",""period"",""period"",""period"",""period""]",0,"[0.20150000000001,0.4232000000477001,0.6675000000000182,1.0112000000476655,1.2582000000476796,1.5184000000953688,1.9161000001430466]",83,0,83,0,1
,,,,,,,5d1cfc4ee950480015366f7b,,,,,,5d1cfc4ee950480015366f7b,Kobieta,23,2021-09-06_20h00.33.126,rantool2,2021.1.4,Win32,60.20832079,6135e006383e6ea6c3d06a28,6136572bb42225441635ef2e,"[""period"",""period"",""period"",""period"",""comma"",""period"",""comma""]",0,"[0.16129999995229127,0.5550000000000068,0.8662999999523322,1.085400000095376,1.3347000000476896,1.5874000000953856,1.7989999999999782]",84,0,84,0,1
,,,,,,,5d1cfc4ee950480015366f7b,,,,,,5d1cfc4ee950480015366f7b,Kobieta,23,2021-09-06_20h00.33.126,rantool2,2021.1.4,Win32,60.20832079,6135e006383e6ea6c3d06a28,6136572bb42225441635ef2e,"[""period"",""comma"",""period"",""period"",""comma"",""period"",""comma"",""period""]",0,"[0.11729999995230855,0.3262000000477201,0.5689000000953683,0.8004999999999995,1.0545000000000186,1.2855000000000132,1.5332999999523054,1.7549999999999955]",85,0,85,0,1
,,,,,,,5d1cfc4ee950480015366f7b,,,,,,5d1cfc4ee950480015366f7b,Kobieta,23,2021-09-06_20h00.33.126,rantool2,2021.1.4,Win32,60.20832079,6135e006383e6ea6c3d06a28,6136572bb42225441635ef2e,"[""comma"",""period"",""period"",""period""]",0,"[0.0007000000476864443,0.3722000000476555,0.5669000000953588,1.152800000190723]",86,0,86,0,1
,,,,,,,5d1cfc4ee950480015366f7b,,,,,,5d1cfc4ee950480015366f7b,Kobieta,23,2021-09-06_20h00.33.126,rantool2,2021.1.4,Win32,60.20832079,6135e006383e6ea6c3d06a28,6136572bb42225441635ef2e,"[""period"",""comma"",""period"",""comma""]",0,"[1.1031000001430584,1.3174999999999955,1.5334000000953552,1.7078000001907299]",87,0,87,0,1
,,,,,,,5d1cfc4ee950480015366f7b,,,,,,5d1cfc4ee950480015366f7b,Kobieta,23,2021-09-06_20h00.33.126,rantool2,2021.1.4,Win32,60.20832079,6135e006383e6ea6c3d06a28,6136572bb42225441635ef2e,"[""period"",""comma"",""period"",""period"",""period"",""period"",""period"",""period""]",0,"[0.10879999995233902,0.2940999999046312,0.5038999998569693,0.8776999998092947,1.083199999809267,1.2755000000000223,1.4575000000000387,1.63279999995234]",88,0,88,0,1
,,,,,,,5d1cfc4ee950480015366f7b,,,,,,5d1cfc4ee950480015366f7b,Kobieta,23,2021-09-06_20h00.33.126,rantool2,2021.1.4,Win32,60.20832079,6135e006383e6ea6c3d06a28,6136572bb42225441635ef2e,0,0,,89,0,89,0,1
,,,,,,,5d1cfc4ee950480015366f7b,,,,,,5d1cfc4ee950480015366f7b,Kobieta,23,2021-09-06_20h00.33.126,rantool2,2021.1.4,Win32,60.20832079,6135e006383e6ea6c3d06a28,6136572bb42225441635ef2e,0,0,,90,0,90,0,1
,,,,,,,5d1cfc4ee950480015366f7b,,,,,,5d1cfc4ee950480015366f7b,Kobieta,23,2021-09-06_20h00.33.126,rantool2,2021.1.4,Win32,60.20832079,6135e006383e6ea6c3d06a28,6136572bb42225441635ef2e,0,0,,91,0,91,0,1
,,,,,,,5d1cfc4ee950480015366f7b,,,,,,5d1cfc4ee950480015366f7b,Kobieta,23,2021-09-06_20h00.33.126,rantool2,2021.1.4,Win32,60.20832079,6135e006383e6ea6c3d06a28,6136572bb42225441635ef2e,0,0,,92,0,92,0,1
,,,,,,,5d1cfc4ee950480015366f7b,,,,,,5d1cfc4ee950480015366f7b,Kobieta,23,2021-09-06_20h00.33.126,rantool2,2021.1.4,Win32,60.20832079,6135e006383e6ea6c3d06a28,6136572bb42225441635ef2e,0,0,,93,0,93,0,1
,,,,,,,5d1cfc4ee950480015366f7b,,,,,,5d1cfc4ee950480015366f7b,Kobieta,23,2021-09-06_20h00.33.126,rantool2,2021.1.4,Win32,60.20832079,6135e006383e6ea6c3d06a28,6136572bb42225441635ef2e,0,0,,94,0,94,0,1
,,,,,,,5d1cfc4ee950480015366f7b,,,,,,5d1cfc4ee950480015366f7b,Kobieta,23,2021-09-06_20h00.33.126,rantool2,2021.1.4,Win32,60.20832079,6135e006383e6ea6c3d06a28,6136572bb42225441635ef2e,"[""period"",""period"",""period"",""period""]",0,"[0.9835999999046408,1.286899999856928,1.6040999999046335,1.8707999999522826]",95,0,95,0,1
,,,,,,,5d1cfc4ee950480015366f7b,,,,,,5d1cfc4ee950480015366f7b,Kobieta,23,2021-09-06_20h00.33.126,rantool2,2021.1.4,Win32,60.20832079,6135e006383e6ea6c3d06a28,6136572bb42225441635ef2e,"[""period""]",0,[1.52800000000002],96,0,96,0,1
,,,,,,,5d1cfc4ee950480015366f7b,,,,,,5d1cfc4ee950480015366f7b,Kobieta,23,2021-09-06_20h00.33.126,rantool2,2021.1.4,Win32,60.20832079,6135e006383e6ea6c3d06a28,6136572bb42225441635ef2e,"[""period"",""comma"",""comma"",""comma"",""comma"",""comma"",""comma"",""period""]",0,"[0.44090000009538244,0.627700000047696,0.9667000000476946,1.1562000000477042,1.333500000000015,1.500300000190748,1.6666000001430348,1.8887000000476633]",97,0,97,0,1
,,,,,,,5d1cfc4ee950480015366f7b,,,,,,5d1cfc4ee950480015366f7b,Kobieta,23,2021-09-06_20h00.33.126,rantool2,2021.1.4,Win32,60.20832079,6135e006383e6ea6c3d06a28,6136572bb42225441635ef2e,"[""comma"",""period"",""comma"",""period"",""comma"",""period"",""comma"",""period"",""comma"",""period"",""comma"",""period""]",0,"[0.07180000019070576,0.2674999999999841,0.40130000019070167,0.541300000190688,0.6876000001430498,0.8699999999999477,1.0123000001906917,1.172700000047655,1.3337000000476564,1.5086000001430193,1.6534999999999513,1.8164999999999623]",98,0,98,0,1
,,,,,,,5d1cfc4ee950480015366f7b,,,,,,5d1cfc4ee950480015366f7b,Kobieta,23,2021-09-06_20h00.33.126,rantool2,2021.1.4,Win32,60.20832079,6135e006383e6ea6c3d06a28,6136572bb42225441635ef2e,"[""comma"",""period"",""comma"",""period"",""comma"",""comma"",""comma"",""comma"",""comma"",""period"",""period"",""period""]",0,"[0.003899999856969316,0.13870000004766325,0.3107000000476887,0.47079999995230537,0.634099999904663,1.0755000000000337,1.227099999904624,1.3862000000476655,1.5498999998569616,1.58429999995235,1.7662000000477178,1.9449999999999932]",99,0,99,0,1
,,,,,,,5d1cfc4ee950480015366f7b,,,,,,5d1cfc4ee950480015366f7b,Kobieta,23,2021-09-06_20h00.33.126,rantool2,2021.1.4,Win32,60.20832079,6135e006383e6ea6c3d06a28,6136572bb42225441635ef2e,"[""period"",""period"",""period"",""comma"",""comma"",""comma"",""comma"",""comma"",""period"",""period""]",0,"[0.09410000014310071,0.2795000000000414,0.4836000001430989,0.6504000000953738,0.8337999999523618,1.000799999952335,1.1715000000000373,1.3197999999523518,1.5914000000954047,1.833200000047725]",100,0,100,0,1
,,,,,,,5d1cfc4ee950480015366f7b,,,,,,5d1cfc4ee950480015366f7b,Kobieta,23,2021-09-06_20h00.33.126,rantool2,2021.1.4,Win32,60.20832079,6135e006383e6ea6c3d06a28,6136572bb42225441635ef2e,"[""period"",""period"",""period"",""period"",""period"",""comma"",""period""]",0,"[0.06910000014306661,0.30040000009535106,0.6671000001430798,1.0059000000953802,1.210400000095376,1.4832000000477024,1.85479999995232]",101,0,101,0,1
,,,,,,,5d1cfc4ee950480015366f7b,,,,,,5d1cfc4ee950480015366f7b,Kobieta,23,2021-09-06_20h00.33.126,rantool2,2021.1.4,Win32,60.20832079,6135e006383e6ea6c3d06a28,6136572bb42225441635ef2e,"[""comma"",""comma"",""comma"",""comma"",""comma"",""comma"",""comma"",""period"",""period""]",0,"[0.08039999985692248,0.30089999985693794,0.4844999999999686,0.6860999999046271,0.8667999999523204,1.0703999998569316,1.2893999998569257,1.7519999999999527,1.9540999999045994]",102,0,102,0,1
,,,,,,,5d1cfc4ee950480015366f7b,,,,,,5d1cfc4ee950480015366f7b,Kobieta,23,2021-09-06_20h00.33.126,rantool2,2021.1.4,Win32,60.20832079,6135e006383e6ea6c3d06a28,6136572bb42225441635ef2e,"[""period"",""period"",""period"",""period"",""period""]",0,"[0.47859999990458846,0.7867000000476878,1.1502000000476755,1.4352000000476437,1.7120999999046376]",103,0,103,0,1
,,,,,,,5d1cfc4ee950480015366f7b,,,,,,5d1cfc4ee950480015366f7b,Kobieta,23,2021-09-06_20h00.33.126,rantool2,2021.1.4,Win32,60.20832079,6135e006383e6ea6c3d06a28,6136572bb42225441635ef2e,"[""period"",""period"",""period"",""comma"",""comma"",""period"",""comma"",""period""]",0,"[0.14229999995228582,0.7852000000476664,0.966900000095336,1.1832999999522826,1.3497999999522676,1.4757000000476523,1.6666000001430348,1.8432999999523076]",104,0,104,0,1
,,,,,,,5d1cfc4ee950480015366f7b,,,,,,5d1cfc4ee950480015366f7b,Kobieta,23,2021-09-06_20h00.33.126,rantool2,2021.1.4,Win32,60.20832079,6135e006383e6ea6c3d06a28,6136572bb42225441635ef2e,"[""comma"",""period"",""comma"",""period"",""comma"",""period"",""comma"",""period"",""comma"",""period"",""comma""]",0,"[0.09109999990465667,0.2555000000000405,0.41379999995234584,0.6022999999523222,0.726799999952334,0.9117999999523363,1.1003999998569611,1.2877999999523126,1.5117000000477105,1.677500000000009,1.8830000000000382]",105,0,105,0,1
,,,,,,,5d1cfc4ee950480015366f7b,,,,,,5d1cfc4ee950480015366f7b,Kobieta,23,2021-09-06_20h00.33.126,rantool2,2021.1.4,Win32,60.20832079,6135e006383e6ea6c3d06a28,6136572bb42225441635ef2e,"[""period"",""comma"",""period"",""comma"",""period"",""comma"",""period"",""comma""]",0,"[0.0682000000476819,0.23520000004765507,0.4462000000476678,0.7843000001907399,1.0293000001907444,1.1578000001907185,1.3419999999999845,1.5848000001907394]",106,0,106,0,1
,,,,,,,5d1cfc4ee950480015366f7b,,,,,,5d1cfc4ee950480015366f7b,Kobieta,23,2021-09-06_20h00.33.126,rantool2,2021.1.4,Win32,60.20832079,6135e006383e6ea6c3d06a28,6136572bb42225441635ef2e,"[""period"",""period"",""period"",""period"",""period"",""comma"",""period""]",0,"[0.01129999995231401,0.4076999998092674,0.6834999999999809,1.3070000000000164,1.5832999999523167,1.5948999998569775,1.852099999904624]",107,0,107,0,1
,,,,,,,5d1cfc4ee950480015366f7b,,,,,,5d1cfc4ee950480015366f7b,Kobieta,23,2021-09-06_20h00.33.126,rantool2,2021.1.4,Win32,60.20832079,6135e006383e6ea6c3d06a28,6136572bb42225441635ef2e,"[""comma"",""period"",""period"",""comma"",""period"",""comma"",""period"",""comma""]",0,"[0.10130000019074714,0.5719000000953542,0.9631000001430721,1.200700000047675,1.3852000000476892,1.5592000000476673,1.6927000000476937,1.8765000000000214]",108,0,108,0,1
,,,,,,,5d1cfc4ee950480015366f7b,,,,,,5d1cfc4ee950480015366f7b,Kobieta,23,2021-09-06_20h00.33.126,rantool2,2021.1.4,Win32,60.20832079,6135e006383e6ea6c3d06a28,6136572bb42225441635ef2e,"[""period"",""comma"",""period"",""comma"",""period"",""comma"",""period"",""period"",""period"",""period""]",0,"[0.0739000000953638,0.2557000000476819,0.43430000019071713,0.6172000000476601,0.7858000001907044,0.983600000143042,1.1533000001907112,1.5114000000953638,1.699400000095352,1.8828000001906844]",109,0,109,0,1
,,,,,,,5d1cfc4ee950480015366f7b,,,,,,5d1cfc4ee950480015366f7b,Kobieta,23,2021-09-06_20h00.33.126,rantool2,2021.1.4,Win32,60.20832079,6135e006383e6ea6c3d06a28,6136572bb42225441635ef2e,"[""comma"",""comma"",""comma"",""comma"",""period"",""comma"",""period"",""period"",""period""]",0,"[0.028599999904599827,0.23419999980922057,0.39619999980925513,0.600699999809251,0.7666999998092479,0.985399999856952,1.3825999999046417,1.6167999999523204,1.8361999998092529]",110,0,110,0,1
,,,,,,,5d1cfc4ee950480015366f7b,,,,,,5d1cfc4ee950480015366f7b,Kobieta,23,2021-09-06_20h00.33.126,rantool2,2021.1.4,Win32,60.20832079,6135e006383e6ea6c3d06a28,6136572bb42225441635ef2e,"[""period"",""comma""]",0,"[0.1560999999046544,0.38389999985696477]",111,0,111,0,1
,,,,,,,5d1cfc4ee950480015366f7b,,,,,,5d1cfc4ee950480015366f7b,Kobieta,23,2021-09-06_20h00.33.126,rantool2,2021.1.4,Win32,60.20832079,6135e006383e6ea6c3d06a28,6136572bb42225441635ef2e,"[""period"",""comma"",""period"",""comma"",""period"",""period"",""period"",""period""]",0,"[0.5672000000476487,0.6419999999999959,0.9066000001430439,1.0514000000953843,1.2237000000476996,1.4424999999999955,1.587600000143027,1.7957000000476455]",112,0,112,0,1
,,,,,,,5d1cfc4ee950480015366f7b,,,,,,5d1cfc4ee950480015366f7b,Kobieta,23,2021-09-06_20h00.33.126,rantool2,2021.1.4,Win32,60.20832079,6135e006383e6ea6c3d06a28,6136572bb42225441635ef2e,"[""period"",""period"",""period"",""period"",""period"",""period"",""period"",""comma"",""comma"",""period""]",0,"[0.017900000095323776,0.25060000014303796,0.45130000019071304,0.6399000000953379,0.8339000000953547,1.0026000001430475,1.1532000000476614,1.3934999999999604,1.6166000001430234,1.7999999999999545]",113,0,113,0,1
,,,,,,,5d1cfc4ee950480015366f7b,,,,,,5d1cfc4ee950480015366f7b,Kobieta,23,2021-09-06_20h00.33.126,rantool2,2021.1.4,Win32,60.20832079,6135e006383e6ea6c3d06a28,6136572bb42225441635ef2e,0,0,,114,0,114,0,1
,,,,,,,5d1cfc4ee950480015366f7b,,,,,,5d1cfc4ee950480015366f7b,Kobieta,23,2021-09-06_20h00.33.126,rantool2,2021.1.4,Win32,60.20832079,6135e006383e6ea6c3d06a28,6136572bb42225441635ef2e,0,0,,115,0,115,0,1
,,,,,,,5d1cfc4ee950480015366f7b,,,,,,5d1cfc4ee950480015366f7b,Kobieta,23,2021-09-06_20h00.33.126,rantool2,2021.1.4,Win32,60.20832079,6135e006383e6ea6c3d06a28,6136572bb42225441635ef2e,0,0,,116,0,116,0,1
,,,,,,,5d1cfc4ee950480015366f7b,,,,,,5d1cfc4ee950480015366f7b,Kobieta,23,2021-09-06_20h00.33.126,rantool2,2021.1.4,Win32,60.20832079,6135e006383e6ea6c3d06a28,6136572bb42225441635ef2e,0,0,,117,0,117,0,1
,,,,,,,5d1cfc4ee950480015366f7b,,,,,,5d1cfc4ee950480015366f7b,Kobieta,23,2021-09-06_20h00.33.126,rantool2,2021.1.4,Win32,60.20832079,6135e006383e6ea6c3d06a28,6136572bb42225441635ef2e,0,0,,118,0,118,0,1
,,,,,,,5d1cfc4ee950480015366f7b,,,,,,5d1cfc4ee950480015366f7b,Kobieta,23,2021-09-06_20h00.33.126,rantool2,2021.1.4,Win32,60.20832079,6135e006383e6ea6c3d06a28,6136572bb42225441635ef2e,0,0,,119,0,119,0,1
