key_resp_5.keys,key_resp_5.corr,key_resp_5.rt,trials.thisRepN,trials.thisTrialN,trials.thisN,trials.thisIndex,trials.ran,id*,Płeć*,Wiek*,date,expName,psychopyVersion,OS,frameRate,id,STUDY_ID,SESSION_ID,key_resp_7.keys,key_resp_7.rt,trials_2.thisRepN,trials_2.thisTrialN,trials_2.thisN,trials_2.thisIndex,trials_2.ran,series_0,series_1,acss_0,acss_1,comparison
0,,,0,0,0,0,1,5f3111dc9458a404e159ed1c,Mężczyzna,23,2021-07-13_21h48.20.211,rantool2,2021.1.4,Win32,74.96251874,5f3111dc9458a404e159ed1c,60d9d14f4a8a35a482e0d9bf,60ededf45940c10b3505e5b6,,,,,,,,,,,,
"[""comma""]",0,[1.2950000000000017],1,0,1,0,1,5f3111dc9458a404e159ed1c,Mężczyzna,23,2021-07-13_21h48.20.211,rantool2,2021.1.4,Win32,74.96251874,5f3111dc9458a404e159ed1c,60d9d14f4a8a35a482e0d9bf,60ededf45940c10b3505e5b6,,,,,,,,,,,,
"[""comma""]",0,[1.2160000000000082],2,0,2,0,1,5f3111dc9458a404e159ed1c,Mężczyzna,23,2021-07-13_21h48.20.211,rantool2,2021.1.4,Win32,74.96251874,5f3111dc9458a404e159ed1c,60d9d14f4a8a35a482e0d9bf,60ededf45940c10b3505e5b6,,,,,,,,,,,,
"[""period""]",0,[1.4599999999999937],3,0,3,0,1,5f3111dc9458a404e159ed1c,Mężczyzna,23,2021-07-13_21h48.20.211,rantool2,2021.1.4,Win32,74.96251874,5f3111dc9458a404e159ed1c,60d9d14f4a8a35a482e0d9bf,60ededf45940c10b3505e5b6,,,,,,,,,,,,
"[""period""]",0,[1.4679999999999893],4,0,4,0,1,5f3111dc9458a404e159ed1c,Mężczyzna,23,2021-07-13_21h48.20.211,rantool2,2021.1.4,Win32,74.96251874,5f3111dc9458a404e159ed1c,60d9d14f4a8a35a482e0d9bf,60ededf45940c10b3505e5b6,,,,,,,,,,,,
"[""comma""]",0,[1.4549999999999983],5,0,5,0,1,5f3111dc9458a404e159ed1c,Mężczyzna,23,2021-07-13_21h48.20.211,rantool2,2021.1.4,Win32,74.96251874,5f3111dc9458a404e159ed1c,60d9d14f4a8a35a482e0d9bf,60ededf45940c10b3505e5b6,,,,,,,,,,,,
"[""period""]",0,[1.4590000000000032],6,0,6,0,1,5f3111dc9458a404e159ed1c,Mężczyzna,23,2021-07-13_21h48.20.211,rantool2,2021.1.4,Win32,74.96251874,5f3111dc9458a404e159ed1c,60d9d14f4a8a35a482e0d9bf,60ededf45940c10b3505e5b6,,,,,,,,,,,,
"[""comma""]",0,[1.5210000000000008],7,0,7,0,1,5f3111dc9458a404e159ed1c,Mężczyzna,23,2021-07-13_21h48.20.211,rantool2,2021.1.4,Win32,74.96251874,5f3111dc9458a404e159ed1c,60d9d14f4a8a35a482e0d9bf,60ededf45940c10b3505e5b6,,,,,,,,,,,,
"[""period""]",0,[1.2560000000000002],8,0,8,0,1,5f3111dc9458a404e159ed1c,Mężczyzna,23,2021-07-13_21h48.20.211,rantool2,2021.1.4,Win32,74.96251874,5f3111dc9458a404e159ed1c,60d9d14f4a8a35a482e0d9bf,60ededf45940c10b3505e5b6,,,,,,,,,,,,
"[""period""]",0,[1.1670000000000016],9,0,9,0,1,5f3111dc9458a404e159ed1c,Mężczyzna,23,2021-07-13_21h48.20.211,rantool2,2021.1.4,Win32,74.96251874,5f3111dc9458a404e159ed1c,60d9d14f4a8a35a482e0d9bf,60ededf45940c10b3505e5b6,,,,,,,,,,,,
"[""comma""]",0,[1.2010000000000076],10,0,10,0,1,5f3111dc9458a404e159ed1c,Mężczyzna,23,2021-07-13_21h48.20.211,rantool2,2021.1.4,Win32,74.96251874,5f3111dc9458a404e159ed1c,60d9d14f4a8a35a482e0d9bf,60ededf45940c10b3505e5b6,,,,,,,,,,,,
"[""comma""]",0,[0.7909999999999968],11,0,11,0,1,5f3111dc9458a404e159ed1c,Mężczyzna,23,2021-07-13_21h48.20.211,rantool2,2021.1.4,Win32,74.96251874,5f3111dc9458a404e159ed1c,60d9d14f4a8a35a482e0d9bf,60ededf45940c10b3505e5b6,,,,,,,,,,,,
"[""period""]",0,[0.45600000000000307],12,0,12,0,1,5f3111dc9458a404e159ed1c,Mężczyzna,23,2021-07-13_21h48.20.211,rantool2,2021.1.4,Win32,74.96251874,5f3111dc9458a404e159ed1c,60d9d14f4a8a35a482e0d9bf,60ededf45940c10b3505e5b6,,,,,,,,,,,,
"[""comma""]",0,[0.4720000000000084],13,0,13,0,1,5f3111dc9458a404e159ed1c,Mężczyzna,23,2021-07-13_21h48.20.211,rantool2,2021.1.4,Win32,74.96251874,5f3111dc9458a404e159ed1c,60d9d14f4a8a35a482e0d9bf,60ededf45940c10b3505e5b6,,,,,,,,,,,,
"[""comma""]",0,[0.382000000000005],14,0,14,0,1,5f3111dc9458a404e159ed1c,Mężczyzna,23,2021-07-13_21h48.20.211,rantool2,2021.1.4,Win32,74.96251874,5f3111dc9458a404e159ed1c,60d9d14f4a8a35a482e0d9bf,60ededf45940c10b3505e5b6,,,,,,,,,,,,
"[""comma""]",0,[0.4159999999999968],15,0,15,0,1,5f3111dc9458a404e159ed1c,Mężczyzna,23,2021-07-13_21h48.20.211,rantool2,2021.1.4,Win32,74.96251874,5f3111dc9458a404e159ed1c,60d9d14f4a8a35a482e0d9bf,60ededf45940c10b3505e5b6,,,,,,,,,,,,
"[""period""]",0,[0.4689999999999941],16,0,16,0,1,5f3111dc9458a404e159ed1c,Mężczyzna,23,2021-07-13_21h48.20.211,rantool2,2021.1.4,Win32,74.96251874,5f3111dc9458a404e159ed1c,60d9d14f4a8a35a482e0d9bf,60ededf45940c10b3505e5b6,,,,,,,,,,,,
"[""period""]",0,[0.28400000000002024],17,0,17,0,1,5f3111dc9458a404e159ed1c,Mężczyzna,23,2021-07-13_21h48.20.211,rantool2,2021.1.4,Win32,74.96251874,5f3111dc9458a404e159ed1c,60d9d14f4a8a35a482e0d9bf,60ededf45940c10b3505e5b6,,,,,,,,,,,,
"[""comma""]",0,[0.2740000000000009],18,0,18,0,1,5f3111dc9458a404e159ed1c,Mężczyzna,23,2021-07-13_21h48.20.211,rantool2,2021.1.4,Win32,74.96251874,5f3111dc9458a404e159ed1c,60d9d14f4a8a35a482e0d9bf,60ededf45940c10b3505e5b6,,,,,,,,,,,,
"[""period""]",0,[0.37300000000001887],19,0,19,0,1,5f3111dc9458a404e159ed1c,Mężczyzna,23,2021-07-13_21h48.20.211,rantool2,2021.1.4,Win32,74.96251874,5f3111dc9458a404e159ed1c,60d9d14f4a8a35a482e0d9bf,60ededf45940c10b3505e5b6,,,,,,,,,,,,
"[""comma""]",0,[0.45400000000000773],20,0,20,0,1,5f3111dc9458a404e159ed1c,Mężczyzna,23,2021-07-13_21h48.20.211,rantool2,2021.1.4,Win32,74.96251874,5f3111dc9458a404e159ed1c,60d9d14f4a8a35a482e0d9bf,60ededf45940c10b3505e5b6,,,,,,,,,,,,
"[""period""]",0,[0.44700000000000273],21,0,21,0,1,5f3111dc9458a404e159ed1c,Mężczyzna,23,2021-07-13_21h48.20.211,rantool2,2021.1.4,Win32,74.96251874,5f3111dc9458a404e159ed1c,60d9d14f4a8a35a482e0d9bf,60ededf45940c10b3505e5b6,,,,,,,,,,,,
"[""period""]",0,[0.2950000000000159],22,0,22,0,1,5f3111dc9458a404e159ed1c,Mężczyzna,23,2021-07-13_21h48.20.211,rantool2,2021.1.4,Win32,74.96251874,5f3111dc9458a404e159ed1c,60d9d14f4a8a35a482e0d9bf,60ededf45940c10b3505e5b6,,,,,,,,,,,,
"[""comma""]",0,[0.3620000000000232],23,0,23,0,1,5f3111dc9458a404e159ed1c,Mężczyzna,23,2021-07-13_21h48.20.211,rantool2,2021.1.4,Win32,74.96251874,5f3111dc9458a404e159ed1c,60d9d14f4a8a35a482e0d9bf,60ededf45940c10b3505e5b6,,,,,,,,,,,,
"[""comma""]",0,[0.4230000000000018],24,0,24,0,1,5f3111dc9458a404e159ed1c,Mężczyzna,23,2021-07-13_21h48.20.211,rantool2,2021.1.4,Win32,74.96251874,5f3111dc9458a404e159ed1c,60d9d14f4a8a35a482e0d9bf,60ededf45940c10b3505e5b6,,,,,,,,,,,,
"[""period""]",0,[0.4630000000000223],25,0,25,0,1,5f3111dc9458a404e159ed1c,Mężczyzna,23,2021-07-13_21h48.20.211,rantool2,2021.1.4,Win32,74.96251874,5f3111dc9458a404e159ed1c,60d9d14f4a8a35a482e0d9bf,60ededf45940c10b3505e5b6,,,,,,,,,,,,
"[""comma""]",0,[0.42199999999999704],26,0,26,0,1,5f3111dc9458a404e159ed1c,Mężczyzna,23,2021-07-13_21h48.20.211,rantool2,2021.1.4,Win32,74.96251874,5f3111dc9458a404e159ed1c,60d9d14f4a8a35a482e0d9bf,60ededf45940c10b3505e5b6,,,,,,,,,,,,
"[""period""]",0,[0.5349999999999966],27,0,27,0,1,5f3111dc9458a404e159ed1c,Mężczyzna,23,2021-07-13_21h48.20.211,rantool2,2021.1.4,Win32,74.96251874,5f3111dc9458a404e159ed1c,60d9d14f4a8a35a482e0d9bf,60ededf45940c10b3505e5b6,,,,,,,,,,,,
"[""comma""]",0,[0.41499999999999204],28,0,28,0,1,5f3111dc9458a404e159ed1c,Mężczyzna,23,2021-07-13_21h48.20.211,rantool2,2021.1.4,Win32,74.96251874,5f3111dc9458a404e159ed1c,60d9d14f4a8a35a482e0d9bf,60ededf45940c10b3505e5b6,,,,,,,,,,,,
"[""period""]",0,[0.41799999999997794],29,0,29,0,1,5f3111dc9458a404e159ed1c,Mężczyzna,23,2021-07-13_21h48.20.211,rantool2,2021.1.4,Win32,74.96251874,5f3111dc9458a404e159ed1c,60d9d14f4a8a35a482e0d9bf,60ededf45940c10b3505e5b6,,,,,,,,,,,,
"[""comma""]",0,[0.5149999999999864],30,0,30,0,1,5f3111dc9458a404e159ed1c,Mężczyzna,23,2021-07-13_21h48.20.211,rantool2,2021.1.4,Win32,74.96251874,5f3111dc9458a404e159ed1c,60d9d14f4a8a35a482e0d9bf,60ededf45940c10b3505e5b6,,,,,,,,,,,,
"[""comma""]",0,[0.4819999999999993],31,0,31,0,1,5f3111dc9458a404e159ed1c,Mężczyzna,23,2021-07-13_21h48.20.211,rantool2,2021.1.4,Win32,74.96251874,5f3111dc9458a404e159ed1c,60d9d14f4a8a35a482e0d9bf,60ededf45940c10b3505e5b6,,,,,,,,,,,,
"[""period""]",0,[0.38800000000000523],32,0,32,0,1,5f3111dc9458a404e159ed1c,Mężczyzna,23,2021-07-13_21h48.20.211,rantool2,2021.1.4,Win32,74.96251874,5f3111dc9458a404e159ed1c,60d9d14f4a8a35a482e0d9bf,60ededf45940c10b3505e5b6,,,,,,,,,,,,
"[""comma""]",0,[0.4280000000000257],33,0,33,0,1,5f3111dc9458a404e159ed1c,Mężczyzna,23,2021-07-13_21h48.20.211,rantool2,2021.1.4,Win32,74.96251874,5f3111dc9458a404e159ed1c,60d9d14f4a8a35a482e0d9bf,60ededf45940c10b3505e5b6,,,,,,,,,,,,
"[""period""]",0,[0.28000000000000114],34,0,34,0,1,5f3111dc9458a404e159ed1c,Mężczyzna,23,2021-07-13_21h48.20.211,rantool2,2021.1.4,Win32,74.96251874,5f3111dc9458a404e159ed1c,60d9d14f4a8a35a482e0d9bf,60ededf45940c10b3505e5b6,,,,,,,,,,,,
"[""period""]",0,[0.2810000000000059],35,0,35,0,1,5f3111dc9458a404e159ed1c,Mężczyzna,23,2021-07-13_21h48.20.211,rantool2,2021.1.4,Win32,74.96251874,5f3111dc9458a404e159ed1c,60d9d14f4a8a35a482e0d9bf,60ededf45940c10b3505e5b6,,,,,,,,,,,,
"[""comma""]",0,[0.4480000000000075],36,0,36,0,1,5f3111dc9458a404e159ed1c,Mężczyzna,23,2021-07-13_21h48.20.211,rantool2,2021.1.4,Win32,74.96251874,5f3111dc9458a404e159ed1c,60d9d14f4a8a35a482e0d9bf,60ededf45940c10b3505e5b6,,,,,,,,,,,,
"[""comma""]",0,[0.33500000000000796],37,0,37,0,1,5f3111dc9458a404e159ed1c,Mężczyzna,23,2021-07-13_21h48.20.211,rantool2,2021.1.4,Win32,74.96251874,5f3111dc9458a404e159ed1c,60d9d14f4a8a35a482e0d9bf,60ededf45940c10b3505e5b6,,,,,,,,,,,,
"[""period""]",0,[0.3089999999999975],38,0,38,0,1,5f3111dc9458a404e159ed1c,Mężczyzna,23,2021-07-13_21h48.20.211,rantool2,2021.1.4,Win32,74.96251874,5f3111dc9458a404e159ed1c,60d9d14f4a8a35a482e0d9bf,60ededf45940c10b3505e5b6,,,,,,,,,,,,
"[""comma""]",0,[0.18899999999999295],39,0,39,0,1,5f3111dc9458a404e159ed1c,Mężczyzna,23,2021-07-13_21h48.20.211,rantool2,2021.1.4,Win32,74.96251874,5f3111dc9458a404e159ed1c,60d9d14f4a8a35a482e0d9bf,60ededf45940c10b3505e5b6,,,,,,,,,,,,
"[""period""]",0,[0.25499999999999545],40,0,40,0,1,5f3111dc9458a404e159ed1c,Mężczyzna,23,2021-07-13_21h48.20.211,rantool2,2021.1.4,Win32,74.96251874,5f3111dc9458a404e159ed1c,60d9d14f4a8a35a482e0d9bf,60ededf45940c10b3505e5b6,,,,,,,,,,,,
"[""comma""]",0,[0.24499999999997613],41,0,41,0,1,5f3111dc9458a404e159ed1c,Mężczyzna,23,2021-07-13_21h48.20.211,rantool2,2021.1.4,Win32,74.96251874,5f3111dc9458a404e159ed1c,60d9d14f4a8a35a482e0d9bf,60ededf45940c10b3505e5b6,,,,,,,,,,,,
"[""comma""]",0,[0.35300000000000864],42,0,42,0,1,5f3111dc9458a404e159ed1c,Mężczyzna,23,2021-07-13_21h48.20.211,rantool2,2021.1.4,Win32,74.96251874,5f3111dc9458a404e159ed1c,60d9d14f4a8a35a482e0d9bf,60ededf45940c10b3505e5b6,,,,,,,,,,,,
"[""period""]",0,[0.3359999999999843],43,0,43,0,1,5f3111dc9458a404e159ed1c,Mężczyzna,23,2021-07-13_21h48.20.211,rantool2,2021.1.4,Win32,74.96251874,5f3111dc9458a404e159ed1c,60d9d14f4a8a35a482e0d9bf,60ededf45940c10b3505e5b6,,,,,,,,,,,,
"[""period""]",0,[0.26400000000001],44,0,44,0,1,5f3111dc9458a404e159ed1c,Mężczyzna,23,2021-07-13_21h48.20.211,rantool2,2021.1.4,Win32,74.96251874,5f3111dc9458a404e159ed1c,60d9d14f4a8a35a482e0d9bf,60ededf45940c10b3505e5b6,,,,,,,,,,,,
"[""period""]",0,[0.32200000000000273],45,0,45,0,1,5f3111dc9458a404e159ed1c,Mężczyzna,23,2021-07-13_21h48.20.211,rantool2,2021.1.4,Win32,74.96251874,5f3111dc9458a404e159ed1c,60d9d14f4a8a35a482e0d9bf,60ededf45940c10b3505e5b6,,,,,,,,,,,,
"[""comma""]",0,[0.046999999999997044],46,0,46,0,1,5f3111dc9458a404e159ed1c,Mężczyzna,23,2021-07-13_21h48.20.211,rantool2,2021.1.4,Win32,74.96251874,5f3111dc9458a404e159ed1c,60d9d14f4a8a35a482e0d9bf,60ededf45940c10b3505e5b6,,,,,,,,,,,,
"[""period""]",0,[0.11100000000001842],47,0,47,0,1,5f3111dc9458a404e159ed1c,Mężczyzna,23,2021-07-13_21h48.20.211,rantool2,2021.1.4,Win32,74.96251874,5f3111dc9458a404e159ed1c,60d9d14f4a8a35a482e0d9bf,60ededf45940c10b3505e5b6,,,,,,,,,,,,
"[""comma""]",0,[0.22800000000000864],48,0,48,0,1,5f3111dc9458a404e159ed1c,Mężczyzna,23,2021-07-13_21h48.20.211,rantool2,2021.1.4,Win32,74.96251874,5f3111dc9458a404e159ed1c,60d9d14f4a8a35a482e0d9bf,60ededf45940c10b3505e5b6,,,,,,,,,,,,
"[""comma""]",0,[0.22900000000001342],49,0,49,0,1,5f3111dc9458a404e159ed1c,Mężczyzna,23,2021-07-13_21h48.20.211,rantool2,2021.1.4,Win32,74.96251874,5f3111dc9458a404e159ed1c,60d9d14f4a8a35a482e0d9bf,60ededf45940c10b3505e5b6,,,,,,,,,,,,
"[""period""]",0,[0.23599999999999],50,0,50,0,1,5f3111dc9458a404e159ed1c,Mężczyzna,23,2021-07-13_21h48.20.211,rantool2,2021.1.4,Win32,74.96251874,5f3111dc9458a404e159ed1c,60d9d14f4a8a35a482e0d9bf,60ededf45940c10b3505e5b6,,,,,,,,,,,,
"[""period""]",0,[0.2949999999999875],51,0,51,0,1,5f3111dc9458a404e159ed1c,Mężczyzna,23,2021-07-13_21h48.20.211,rantool2,2021.1.4,Win32,74.96251874,5f3111dc9458a404e159ed1c,60d9d14f4a8a35a482e0d9bf,60ededf45940c10b3505e5b6,,,,,,,,,,,,
"[""comma""]",0,[0.27499999999997726],52,0,52,0,1,5f3111dc9458a404e159ed1c,Mężczyzna,23,2021-07-13_21h48.20.211,rantool2,2021.1.4,Win32,74.96251874,5f3111dc9458a404e159ed1c,60d9d14f4a8a35a482e0d9bf,60ededf45940c10b3505e5b6,,,,,,,,,,,,
"[""comma""]",0,[0.22799999999998022],53,0,53,0,1,5f3111dc9458a404e159ed1c,Mężczyzna,23,2021-07-13_21h48.20.211,rantool2,2021.1.4,Win32,74.96251874,5f3111dc9458a404e159ed1c,60d9d14f4a8a35a482e0d9bf,60ededf45940c10b3505e5b6,,,,,,,,,,,,
"[""period""]",0,[0.26700000000002433],54,0,54,0,1,5f3111dc9458a404e159ed1c,Mężczyzna,23,2021-07-13_21h48.20.211,rantool2,2021.1.4,Win32,74.96251874,5f3111dc9458a404e159ed1c,60d9d14f4a8a35a482e0d9bf,60ededf45940c10b3505e5b6,,,,,,,,,,,,
"[""comma""]",0,[0.23199999999999932],55,0,55,0,1,5f3111dc9458a404e159ed1c,Mężczyzna,23,2021-07-13_21h48.20.211,rantool2,2021.1.4,Win32,74.96251874,5f3111dc9458a404e159ed1c,60d9d14f4a8a35a482e0d9bf,60ededf45940c10b3505e5b6,,,,,,,,,,,,
"[""period""]",0,[0.2810000000000059],56,0,56,0,1,5f3111dc9458a404e159ed1c,Mężczyzna,23,2021-07-13_21h48.20.211,rantool2,2021.1.4,Win32,74.96251874,5f3111dc9458a404e159ed1c,60d9d14f4a8a35a482e0d9bf,60ededf45940c10b3505e5b6,,,,,,,,,,,,
"[""comma""]",0,[0.2820000000000107],57,0,57,0,1,5f3111dc9458a404e159ed1c,Mężczyzna,23,2021-07-13_21h48.20.211,rantool2,2021.1.4,Win32,74.96251874,5f3111dc9458a404e159ed1c,60d9d14f4a8a35a482e0d9bf,60ededf45940c10b3505e5b6,,,,,,,,,,,,
"[""period""]",0,[0.30400000000000205],58,0,58,0,1,5f3111dc9458a404e159ed1c,Mężczyzna,23,2021-07-13_21h48.20.211,rantool2,2021.1.4,Win32,74.96251874,5f3111dc9458a404e159ed1c,60d9d14f4a8a35a482e0d9bf,60ededf45940c10b3505e5b6,,,,,,,,,,,,
"[""period""]",0,[0.4060000000000059],59,0,59,0,1,5f3111dc9458a404e159ed1c,Mężczyzna,23,2021-07-13_21h48.20.211,rantool2,2021.1.4,Win32,74.96251874,5f3111dc9458a404e159ed1c,60d9d14f4a8a35a482e0d9bf,60ededf45940c10b3505e5b6,,,,,,,,,,,,
"[""comma""]",0,[0.4060000000000059],60,0,60,0,1,5f3111dc9458a404e159ed1c,Mężczyzna,23,2021-07-13_21h48.20.211,rantool2,2021.1.4,Win32,74.96251874,5f3111dc9458a404e159ed1c,60d9d14f4a8a35a482e0d9bf,60ededf45940c10b3505e5b6,,,,,,,,,,,,
"[""period"",""period""]",0,"[0.42900000000000205,0.5169999999999959]",61,0,61,0,1,5f3111dc9458a404e159ed1c,Mężczyzna,23,2021-07-13_21h48.20.211,rantool2,2021.1.4,Win32,74.96251874,5f3111dc9458a404e159ed1c,60d9d14f4a8a35a482e0d9bf,60ededf45940c10b3505e5b6,,,,,,,,,,,,
"[""comma""]",0,[0.5349999999999966],62,0,62,0,1,5f3111dc9458a404e159ed1c,Mężczyzna,23,2021-07-13_21h48.20.211,rantool2,2021.1.4,Win32,74.96251874,5f3111dc9458a404e159ed1c,60d9d14f4a8a35a482e0d9bf,60ededf45940c10b3505e5b6,,,,,,,,,,,,
"[""comma""]",0,[0.4359999999999786],63,0,63,0,1,5f3111dc9458a404e159ed1c,Mężczyzna,23,2021-07-13_21h48.20.211,rantool2,2021.1.4,Win32,74.96251874,5f3111dc9458a404e159ed1c,60d9d14f4a8a35a482e0d9bf,60ededf45940c10b3505e5b6,,,,,,,,,,,,
"[""period""]",0,[0.3790000000000191],64,0,64,0,1,5f3111dc9458a404e159ed1c,Mężczyzna,23,2021-07-13_21h48.20.211,rantool2,2021.1.4,Win32,74.96251874,5f3111dc9458a404e159ed1c,60d9d14f4a8a35a482e0d9bf,60ededf45940c10b3505e5b6,,,,,,,,,,,,
"[""comma""]",0,[0.507000000000005],65,0,65,0,1,5f3111dc9458a404e159ed1c,Mężczyzna,23,2021-07-13_21h48.20.211,rantool2,2021.1.4,Win32,74.96251874,5f3111dc9458a404e159ed1c,60d9d14f4a8a35a482e0d9bf,60ededf45940c10b3505e5b6,,,,,,,,,,,,
"[""period""]",0,[0.4819999999999993],66,0,66,0,1,5f3111dc9458a404e159ed1c,Mężczyzna,23,2021-07-13_21h48.20.211,rantool2,2021.1.4,Win32,74.96251874,5f3111dc9458a404e159ed1c,60d9d14f4a8a35a482e0d9bf,60ededf45940c10b3505e5b6,,,,,,,,,,,,
"[""comma""]",0,[0.6009999999999991],67,0,67,0,1,5f3111dc9458a404e159ed1c,Mężczyzna,23,2021-07-13_21h48.20.211,rantool2,2021.1.4,Win32,74.96251874,5f3111dc9458a404e159ed1c,60d9d14f4a8a35a482e0d9bf,60ededf45940c10b3505e5b6,,,,,,,,,,,,
"[""period""]",0,[0.7199999999999989],68,0,68,0,1,5f3111dc9458a404e159ed1c,Mężczyzna,23,2021-07-13_21h48.20.211,rantool2,2021.1.4,Win32,74.96251874,5f3111dc9458a404e159ed1c,60d9d14f4a8a35a482e0d9bf,60ededf45940c10b3505e5b6,,,,,,,,,,,,
"[""comma""]",0,[0.5180000000000007],69,0,69,0,1,5f3111dc9458a404e159ed1c,Mężczyzna,23,2021-07-13_21h48.20.211,rantool2,2021.1.4,Win32,74.96251874,5f3111dc9458a404e159ed1c,60d9d14f4a8a35a482e0d9bf,60ededf45940c10b3505e5b6,,,,,,,,,,,,
"[""comma""]",0,[0.48599999999999],70,0,70,0,1,5f3111dc9458a404e159ed1c,Mężczyzna,23,2021-07-13_21h48.20.211,rantool2,2021.1.4,Win32,74.96251874,5f3111dc9458a404e159ed1c,60d9d14f4a8a35a482e0d9bf,60ededf45940c10b3505e5b6,,,,,,,,,,,,
"[""period""]",0,[0.46100000000001273],71,0,71,0,1,5f3111dc9458a404e159ed1c,Mężczyzna,23,2021-07-13_21h48.20.211,rantool2,2021.1.4,Win32,74.96251874,5f3111dc9458a404e159ed1c,60d9d14f4a8a35a482e0d9bf,60ededf45940c10b3505e5b6,,,,,,,,,,,,
"[""comma""]",0,[0.5010000000000048],72,0,72,0,1,5f3111dc9458a404e159ed1c,Mężczyzna,23,2021-07-13_21h48.20.211,rantool2,2021.1.4,Win32,74.96251874,5f3111dc9458a404e159ed1c,60d9d14f4a8a35a482e0d9bf,60ededf45940c10b3505e5b6,,,,,,,,,,,,
"[""period""]",0,[0.33500000000000796],73,0,73,0,1,5f3111dc9458a404e159ed1c,Mężczyzna,23,2021-07-13_21h48.20.211,rantool2,2021.1.4,Win32,74.96251874,5f3111dc9458a404e159ed1c,60d9d14f4a8a35a482e0d9bf,60ededf45940c10b3505e5b6,,,,,,,,,,,,
"[""period""]",0,[0.28199999999998226],74,0,74,0,1,5f3111dc9458a404e159ed1c,Mężczyzna,23,2021-07-13_21h48.20.211,rantool2,2021.1.4,Win32,74.96251874,5f3111dc9458a404e159ed1c,60d9d14f4a8a35a482e0d9bf,60ededf45940c10b3505e5b6,,,,,,,,,,,,
"[""comma""]",0,[0.28299999999998704],75,0,75,0,1,5f3111dc9458a404e159ed1c,Mężczyzna,23,2021-07-13_21h48.20.211,rantool2,2021.1.4,Win32,74.96251874,5f3111dc9458a404e159ed1c,60d9d14f4a8a35a482e0d9bf,60ededf45940c10b3505e5b6,,,,,,,,,,,,
"[""period""]",0,[0.3380000000000223],76,0,76,0,1,5f3111dc9458a404e159ed1c,Mężczyzna,23,2021-07-13_21h48.20.211,rantool2,2021.1.4,Win32,74.96251874,5f3111dc9458a404e159ed1c,60d9d14f4a8a35a482e0d9bf,60ededf45940c10b3505e5b6,,,,,,,,,,,,
"[""comma""]",0,[0.351999999999947],77,0,77,0,1,5f3111dc9458a404e159ed1c,Mężczyzna,23,2021-07-13_21h48.20.211,rantool2,2021.1.4,Win32,74.96251874,5f3111dc9458a404e159ed1c,60d9d14f4a8a35a482e0d9bf,60ededf45940c10b3505e5b6,,,,,,,,,,,,
"[""period""]",0,[0.32900000000000773],78,0,78,0,1,5f3111dc9458a404e159ed1c,Mężczyzna,23,2021-07-13_21h48.20.211,rantool2,2021.1.4,Win32,74.96251874,5f3111dc9458a404e159ed1c,60d9d14f4a8a35a482e0d9bf,60ededf45940c10b3505e5b6,,,,,,,,,,,,
"[""comma""]",0,[0.2249999999999659],79,0,79,0,1,5f3111dc9458a404e159ed1c,Mężczyzna,23,2021-07-13_21h48.20.211,rantool2,2021.1.4,Win32,74.96251874,5f3111dc9458a404e159ed1c,60d9d14f4a8a35a482e0d9bf,60ededf45940c10b3505e5b6,,,,,,,,,,,,
"[""period""]",0,[0.20199999999999818],80,0,80,0,1,5f3111dc9458a404e159ed1c,Mężczyzna,23,2021-07-13_21h48.20.211,rantool2,2021.1.4,Win32,74.96251874,5f3111dc9458a404e159ed1c,60d9d14f4a8a35a482e0d9bf,60ededf45940c10b3505e5b6,,,,,,,,,,,,
"[""comma""]",0,[0.1260000000000332],81,0,81,0,1,5f3111dc9458a404e159ed1c,Mężczyzna,23,2021-07-13_21h48.20.211,rantool2,2021.1.4,Win32,74.96251874,5f3111dc9458a404e159ed1c,60d9d14f4a8a35a482e0d9bf,60ededf45940c10b3505e5b6,,,,,,,,,,,,
"[""period""]",0,[0.08200000000005048],82,0,82,0,1,5f3111dc9458a404e159ed1c,Mężczyzna,23,2021-07-13_21h48.20.211,rantool2,2021.1.4,Win32,74.96251874,5f3111dc9458a404e159ed1c,60d9d14f4a8a35a482e0d9bf,60ededf45940c10b3505e5b6,,,,,,,,,,,,
"[""comma""]",0,[0.3100000000000023],83,0,83,0,1,5f3111dc9458a404e159ed1c,Mężczyzna,23,2021-07-13_21h48.20.211,rantool2,2021.1.4,Win32,74.96251874,5f3111dc9458a404e159ed1c,60d9d14f4a8a35a482e0d9bf,60ededf45940c10b3505e5b6,,,,,,,,,,,,
"[""period""]",0,[0.23699999999996635],84,0,84,0,1,5f3111dc9458a404e159ed1c,Mężczyzna,23,2021-07-13_21h48.20.211,rantool2,2021.1.4,Win32,74.96251874,5f3111dc9458a404e159ed1c,60d9d14f4a8a35a482e0d9bf,60ededf45940c10b3505e5b6,,,,,,,,,,,,
"[""period""]",0,[0.339999999999975],85,0,85,0,1,5f3111dc9458a404e159ed1c,Mężczyzna,23,2021-07-13_21h48.20.211,rantool2,2021.1.4,Win32,74.96251874,5f3111dc9458a404e159ed1c,60d9d14f4a8a35a482e0d9bf,60ededf45940c10b3505e5b6,,,,,,,,,,,,
"[""comma""]",0,[0.39699999999999136],86,0,86,0,1,5f3111dc9458a404e159ed1c,Mężczyzna,23,2021-07-13_21h48.20.211,rantool2,2021.1.4,Win32,74.96251874,5f3111dc9458a404e159ed1c,60d9d14f4a8a35a482e0d9bf,60ededf45940c10b3505e5b6,,,,,,,,,,,,
"[""comma""]",0,[0.242999999999995],87,0,87,0,1,5f3111dc9458a404e159ed1c,Mężczyzna,23,2021-07-13_21h48.20.211,rantool2,2021.1.4,Win32,74.96251874,5f3111dc9458a404e159ed1c,60d9d14f4a8a35a482e0d9bf,60ededf45940c10b3505e5b6,,,,,,,,,,,,
"[""comma""]",0,[0.29000000000002046],88,0,88,0,1,5f3111dc9458a404e159ed1c,Mężczyzna,23,2021-07-13_21h48.20.211,rantool2,2021.1.4,Win32,74.96251874,5f3111dc9458a404e159ed1c,60d9d14f4a8a35a482e0d9bf,60ededf45940c10b3505e5b6,,,,,,,,,,,,
"[""period""]",0,[0.3210000000000264],89,0,89,0,1,5f3111dc9458a404e159ed1c,Mężczyzna,23,2021-07-13_21h48.20.211,rantool2,2021.1.4,Win32,74.96251874,5f3111dc9458a404e159ed1c,60d9d14f4a8a35a482e0d9bf,60ededf45940c10b3505e5b6,,,,,,,,,,,,
"[""period""]",0,[0.2459999999999809],90,0,90,0,1,5f3111dc9458a404e159ed1c,Mężczyzna,23,2021-07-13_21h48.20.211,rantool2,2021.1.4,Win32,74.96251874,5f3111dc9458a404e159ed1c,60d9d14f4a8a35a482e0d9bf,60ededf45940c10b3505e5b6,,,,,,,,,,,,
"[""comma""]",0,[0.25499999999999545],91,0,91,0,1,5f3111dc9458a404e159ed1c,Mężczyzna,23,2021-07-13_21h48.20.211,rantool2,2021.1.4,Win32,74.96251874,5f3111dc9458a404e159ed1c,60d9d14f4a8a35a482e0d9bf,60ededf45940c10b3505e5b6,,,,,,,,,,,,
"[""period""]",0,[0.36499999999995225],92,0,92,0,1,5f3111dc9458a404e159ed1c,Mężczyzna,23,2021-07-13_21h48.20.211,rantool2,2021.1.4,Win32,74.96251874,5f3111dc9458a404e159ed1c,60d9d14f4a8a35a482e0d9bf,60ededf45940c10b3505e5b6,,,,,,,,,,,,
"[""comma""]",0,[0.3879999999999768],93,0,93,0,1,5f3111dc9458a404e159ed1c,Mężczyzna,23,2021-07-13_21h48.20.211,rantool2,2021.1.4,Win32,74.96251874,5f3111dc9458a404e159ed1c,60d9d14f4a8a35a482e0d9bf,60ededf45940c10b3505e5b6,,,,,,,,,,,,
"[""period""]",0,[0.5009999999999764],94,0,94,0,1,5f3111dc9458a404e159ed1c,Mężczyzna,23,2021-07-13_21h48.20.211,rantool2,2021.1.4,Win32,74.96251874,5f3111dc9458a404e159ed1c,60d9d14f4a8a35a482e0d9bf,60ededf45940c10b3505e5b6,,,,,,,,,,,,
"[""comma""]",0,[0.4840000000000373],95,0,95,0,1,5f3111dc9458a404e159ed1c,Mężczyzna,23,2021-07-13_21h48.20.211,rantool2,2021.1.4,Win32,74.96251874,5f3111dc9458a404e159ed1c,60d9d14f4a8a35a482e0d9bf,60ededf45940c10b3505e5b6,,,,,,,,,,,,
"[""period""]",0,[0.5480000000000018],96,0,96,0,1,5f3111dc9458a404e159ed1c,Mężczyzna,23,2021-07-13_21h48.20.211,rantool2,2021.1.4,Win32,74.96251874,5f3111dc9458a404e159ed1c,60d9d14f4a8a35a482e0d9bf,60ededf45940c10b3505e5b6,,,,,,,,,,,,
"[""comma""]",0,[0.4679999999999609],97,0,97,0,1,5f3111dc9458a404e159ed1c,Mężczyzna,23,2021-07-13_21h48.20.211,rantool2,2021.1.4,Win32,74.96251874,5f3111dc9458a404e159ed1c,60d9d14f4a8a35a482e0d9bf,60ededf45940c10b3505e5b6,,,,,,,,,,,,
"[""comma""]",0,[0.5289999999999964],98,0,98,0,1,5f3111dc9458a404e159ed1c,Mężczyzna,23,2021-07-13_21h48.20.211,rantool2,2021.1.4,Win32,74.96251874,5f3111dc9458a404e159ed1c,60d9d14f4a8a35a482e0d9bf,60ededf45940c10b3505e5b6,,,,,,,,,,,,
"[""period""]",0,[0.311999999999955],99,0,99,0,1,5f3111dc9458a404e159ed1c,Mężczyzna,23,2021-07-13_21h48.20.211,rantool2,2021.1.4,Win32,74.96251874,5f3111dc9458a404e159ed1c,60d9d14f4a8a35a482e0d9bf,60ededf45940c10b3505e5b6,,,,,,,,,,,,
"[""period""]",0,[0.3369999999999891],100,0,100,0,1,5f3111dc9458a404e159ed1c,Mężczyzna,23,2021-07-13_21h48.20.211,rantool2,2021.1.4,Win32,74.96251874,5f3111dc9458a404e159ed1c,60d9d14f4a8a35a482e0d9bf,60ededf45940c10b3505e5b6,,,,,,,,,,,,
"[""comma""]",0,[0.40100000000001046],101,0,101,0,1,5f3111dc9458a404e159ed1c,Mężczyzna,23,2021-07-13_21h48.20.211,rantool2,2021.1.4,Win32,74.96251874,5f3111dc9458a404e159ed1c,60d9d14f4a8a35a482e0d9bf,60ededf45940c10b3505e5b6,,,,,,,,,,,,
"[""comma""]",0,[0.535000000000025],102,0,102,0,1,5f3111dc9458a404e159ed1c,Mężczyzna,23,2021-07-13_21h48.20.211,rantool2,2021.1.4,Win32,74.96251874,5f3111dc9458a404e159ed1c,60d9d14f4a8a35a482e0d9bf,60ededf45940c10b3505e5b6,,,,,,,,,,,,
"[""period""]",0,[0.40100000000001046],103,0,103,0,1,5f3111dc9458a404e159ed1c,Mężczyzna,23,2021-07-13_21h48.20.211,rantool2,2021.1.4,Win32,74.96251874,5f3111dc9458a404e159ed1c,60d9d14f4a8a35a482e0d9bf,60ededf45940c10b3505e5b6,,,,,,,,,,,,
"[""comma""]",0,[0.36700000000001864],104,0,104,0,1,5f3111dc9458a404e159ed1c,Mężczyzna,23,2021-07-13_21h48.20.211,rantool2,2021.1.4,Win32,74.96251874,5f3111dc9458a404e159ed1c,60d9d14f4a8a35a482e0d9bf,60ededf45940c10b3505e5b6,,,,,,,,,,,,
"[""comma""]",0,[0.47699999999997544],105,0,105,0,1,5f3111dc9458a404e159ed1c,Mężczyzna,23,2021-07-13_21h48.20.211,rantool2,2021.1.4,Win32,74.96251874,5f3111dc9458a404e159ed1c,60d9d14f4a8a35a482e0d9bf,60ededf45940c10b3505e5b6,,,,,,,,,,,,
"[""period""]",0,[0.39699999999999136],106,0,106,0,1,5f3111dc9458a404e159ed1c,Mężczyzna,23,2021-07-13_21h48.20.211,rantool2,2021.1.4,Win32,74.96251874,5f3111dc9458a404e159ed1c,60d9d14f4a8a35a482e0d9bf,60ededf45940c10b3505e5b6,,,,,,,,,,,,
"[""period""]",0,[0.3340000000000032],107,0,107,0,1,5f3111dc9458a404e159ed1c,Mężczyzna,23,2021-07-13_21h48.20.211,rantool2,2021.1.4,Win32,74.96251874,5f3111dc9458a404e159ed1c,60d9d14f4a8a35a482e0d9bf,60ededf45940c10b3505e5b6,,,,,,,,,,,,
"[""comma""]",0,[0.34799999999995634],108,0,108,0,1,5f3111dc9458a404e159ed1c,Mężczyzna,23,2021-07-13_21h48.20.211,rantool2,2021.1.4,Win32,74.96251874,5f3111dc9458a404e159ed1c,60d9d14f4a8a35a482e0d9bf,60ededf45940c10b3505e5b6,,,,,,,,,,,,
"[""comma""]",0,[0.29199999999997317],109,0,109,0,1,5f3111dc9458a404e159ed1c,Mężczyzna,23,2021-07-13_21h48.20.211,rantool2,2021.1.4,Win32,74.96251874,5f3111dc9458a404e159ed1c,60d9d14f4a8a35a482e0d9bf,60ededf45940c10b3505e5b6,,,,,,,,,,,,
"[""comma""]",0,[0.38900000000001],110,0,110,0,1,5f3111dc9458a404e159ed1c,Mężczyzna,23,2021-07-13_21h48.20.211,rantool2,2021.1.4,Win32,74.96251874,5f3111dc9458a404e159ed1c,60d9d14f4a8a35a482e0d9bf,60ededf45940c10b3505e5b6,,,,,,,,,,,,
"[""period""]",0,[0.3529999999999518],111,0,111,0,1,5f3111dc9458a404e159ed1c,Mężczyzna,23,2021-07-13_21h48.20.211,rantool2,2021.1.4,Win32,74.96251874,5f3111dc9458a404e159ed1c,60d9d14f4a8a35a482e0d9bf,60ededf45940c10b3505e5b6,,,,,,,,,,,,
"[""comma""]",0,[0.38999999999998636],112,0,112,0,1,5f3111dc9458a404e159ed1c,Mężczyzna,23,2021-07-13_21h48.20.211,rantool2,2021.1.4,Win32,74.96251874,5f3111dc9458a404e159ed1c,60d9d14f4a8a35a482e0d9bf,60ededf45940c10b3505e5b6,,,,,,,,,,,,
"[""comma""]",0,[0.5430000000000064],113,0,113,0,1,5f3111dc9458a404e159ed1c,Mężczyzna,23,2021-07-13_21h48.20.211,rantool2,2021.1.4,Win32,74.96251874,5f3111dc9458a404e159ed1c,60d9d14f4a8a35a482e0d9bf,60ededf45940c10b3505e5b6,,,,,,,,,,,,
"[""period""]",0,[0.35799999999994725],114,0,114,0,1,5f3111dc9458a404e159ed1c,Mężczyzna,23,2021-07-13_21h48.20.211,rantool2,2021.1.4,Win32,74.96251874,5f3111dc9458a404e159ed1c,60d9d14f4a8a35a482e0d9bf,60ededf45940c10b3505e5b6,,,,,,,,,,,,
"[""period""]",0,[0.3230000000000359],115,0,115,0,1,5f3111dc9458a404e159ed1c,Mężczyzna,23,2021-07-13_21h48.20.211,rantool2,2021.1.4,Win32,74.96251874,5f3111dc9458a404e159ed1c,60d9d14f4a8a35a482e0d9bf,60ededf45940c10b3505e5b6,,,,,,,,,,,,
"[""period""]",0,[0.2950000000000159],116,0,116,0,1,5f3111dc9458a404e159ed1c,Mężczyzna,23,2021-07-13_21h48.20.211,rantool2,2021.1.4,Win32,74.96251874,5f3111dc9458a404e159ed1c,60d9d14f4a8a35a482e0d9bf,60ededf45940c10b3505e5b6,,,,,,,,,,,,
"[""comma""]",0,[0.45100000000002183],117,0,117,0,1,5f3111dc9458a404e159ed1c,Mężczyzna,23,2021-07-13_21h48.20.211,rantool2,2021.1.4,Win32,74.96251874,5f3111dc9458a404e159ed1c,60d9d14f4a8a35a482e0d9bf,60ededf45940c10b3505e5b6,,,,,,,,,,,,
"[""comma""]",0,[0.4269999999999641],118,0,118,0,1,5f3111dc9458a404e159ed1c,Mężczyzna,23,2021-07-13_21h48.20.211,rantool2,2021.1.4,Win32,74.96251874,5f3111dc9458a404e159ed1c,60d9d14f4a8a35a482e0d9bf,60ededf45940c10b3505e5b6,,,,,,,,,,,,
"[""period""]",0,[0.9700000000000273],119,0,119,0,1,5f3111dc9458a404e159ed1c,Mężczyzna,23,2021-07-13_21h48.20.211,rantool2,2021.1.4,Win32,74.96251874,5f3111dc9458a404e159ed1c,60d9d14f4a8a35a482e0d9bf,60ededf45940c10b3505e5b6,,,,,,,,,,,,
,,,,,,,,5f3111dc9458a404e159ed1c,Mężczyzna,23,2021-07-13_21h48.20.211,rantool2,2021.1.4,Win32,74.96251874,5f3111dc9458a404e159ed1c,60d9d14f4a8a35a482e0d9bf,60ededf45940c10b3505e5b6,f,4.175,0,0,0,45,1,RORRORO,RORRORR,20.78182524,21.22513037,series_1
,,,,,,,,5f3111dc9458a404e159ed1c,Mężczyzna,23,2021-07-13_21h48.20.211,rantool2,2021.1.4,Win32,74.96251874,5f3111dc9458a404e159ed1c,60d9d14f4a8a35a482e0d9bf,60ededf45940c10b3505e5b6,f,3.436,0,1,1,6,1,OOORROO,OOORROR,21.12383932,21.38562617,series_1
,,,,,,,,5f3111dc9458a404e159ed1c,Mężczyzna,23,2021-07-13_21h48.20.211,rantool2,2021.1.4,Win32,74.96251874,5f3111dc9458a404e159ed1c,60d9d14f4a8a35a482e0d9bf,60ededf45940c10b3505e5b6,j,3.243,0,2,2,13,1,OORRORO,OORRORR,21.66733484,22.11181017,series_1
,,,,,,,,5f3111dc9458a404e159ed1c,Mężczyzna,23,2021-07-13_21h48.20.211,rantool2,2021.1.4,Win32,74.96251874,5f3111dc9458a404e159ed1c,60d9d14f4a8a35a482e0d9bf,60ededf45940c10b3505e5b6,f,2.46,0,3,3,23,1,ORORRRO,ORORRRR,22.1285618,21.9921709,series_0
,,,,,,,,5f3111dc9458a404e159ed1c,Mężczyzna,23,2021-07-13_21h48.20.211,rantool2,2021.1.4,Win32,74.96251874,5f3111dc9458a404e159ed1c,60d9d14f4a8a35a482e0d9bf,60ededf45940c10b3505e5b6,f,2.393,0,4,4,60,1,RRRROOO,RRRROOR,22.10108823,22.15934078,series_1
,,,,,,,,5f3111dc9458a404e159ed1c,Mężczyzna,23,2021-07-13_21h48.20.211,rantool2,2021.1.4,Win32,74.96251874,5f3111dc9458a404e159ed1c,60d9d14f4a8a35a482e0d9bf,60ededf45940c10b3505e5b6,f,2.015,0,5,5,28,1,ORRROOO,ORRROOR,22.24142883,22.53364006,series_1
,,,,,,,,5f3111dc9458a404e159ed1c,Mężczyzna,23,2021-07-13_21h48.20.211,rantool2,2021.1.4,Win32,74.96251874,5f3111dc9458a404e159ed1c,60d9d14f4a8a35a482e0d9bf,60ededf45940c10b3505e5b6,j,2.036,0,6,6,21,1,ORORORO,ORORORR,20.39515459,22.06781359,series_1
,,,,,,,,5f3111dc9458a404e159ed1c,Mężczyzna,23,2021-07-13_21h48.20.211,rantool2,2021.1.4,Win32,74.96251874,5f3111dc9458a404e159ed1c,60d9d14f4a8a35a482e0d9bf,60ededf45940c10b3505e5b6,f,1.915,0,7,7,52,1,RROROOO,RROROOR,22.18365867,22.11097995,series_0
,,,,,,,,5f3111dc9458a404e159ed1c,Mężczyzna,23,2021-07-13_21h48.20.211,rantool2,2021.1.4,Win32,74.96251874,5f3111dc9458a404e159ed1c,60d9d14f4a8a35a482e0d9bf,60ededf45940c10b3505e5b6,j,1.709,0,8,8,44,1,RORROOO,RORROOR,21.66733484,22.02566557,series_1
,,,,,,,,5f3111dc9458a404e159ed1c,Mężczyzna,23,2021-07-13_21h48.20.211,rantool2,2021.1.4,Win32,74.96251874,5f3111dc9458a404e159ed1c,60d9d14f4a8a35a482e0d9bf,60ededf45940c10b3505e5b6,f,1.627,0,9,9,14,1,OORRROO,OORRROR,22.24142883,22.16977179,series_0
,,,,,,,,5f3111dc9458a404e159ed1c,Mężczyzna,23,2021-07-13_21h48.20.211,rantool2,2021.1.4,Win32,74.96251874,5f3111dc9458a404e159ed1c,60d9d14f4a8a35a482e0d9bf,60ededf45940c10b3505e5b6,j,1.522,0,10,10,43,1,RORORRO,RORORRR,20.71309134,21.07490964,series_1
,,,,,,,,5f3111dc9458a404e159ed1c,Mężczyzna,23,2021-07-13_21h48.20.211,rantool2,2021.1.4,Win32,74.96251874,5f3111dc9458a404e159ed1c,60d9d14f4a8a35a482e0d9bf,60ededf45940c10b3505e5b6,f,1.541,0,11,11,55,1,RRORRRO,RRORRRR,21.56657303,21.21223021,series_0
,,,,,,,,5f3111dc9458a404e159ed1c,Mężczyzna,23,2021-07-13_21h48.20.211,rantool2,2021.1.4,Win32,74.96251874,5f3111dc9458a404e159ed1c,60d9d14f4a8a35a482e0d9bf,60ededf45940c10b3505e5b6,j,2.216,0,12,12,59,1,RRRORRO,RRRORRR,21.56657303,20.89823192,series_0
,,,,,,,,5f3111dc9458a404e159ed1c,Mężczyzna,23,2021-07-13_21h48.20.211,rantool2,2021.1.4,Win32,74.96251874,5f3111dc9458a404e159ed1c,60d9d14f4a8a35a482e0d9bf,60ededf45940c10b3505e5b6,j,2.269,0,13,13,62,1,RRRRROO,RRRRROR,22.16413392,21.27974287,series_0
,,,,,,,,5f3111dc9458a404e159ed1c,Mężczyzna,23,2021-07-13_21h48.20.211,rantool2,2021.1.4,Win32,74.96251874,5f3111dc9458a404e159ed1c,60d9d14f4a8a35a482e0d9bf,60ededf45940c10b3505e5b6,j,2.542,0,14,14,49,1,RROOORO,RROOORR,21.76276513,22.53364006,series_1
,,,,,,,,5f3111dc9458a404e159ed1c,Mężczyzna,23,2021-07-13_21h48.20.211,rantool2,2021.1.4,Win32,74.96251874,5f3111dc9458a404e159ed1c,60d9d14f4a8a35a482e0d9bf,60ededf45940c10b3505e5b6,j,3.011,0,15,15,41,1,ROROORO,ROROORR,20.42602454,21.71443381,series_1
,,,,,,,,5f3111dc9458a404e159ed1c,Mężczyzna,23,2021-07-13_21h48.20.211,rantool2,2021.1.4,Win32,74.96251874,5f3111dc9458a404e159ed1c,60d9d14f4a8a35a482e0d9bf,60ededf45940c10b3505e5b6,j,2.537,0,16,16,8,1,OOROOOO,OOROOOR,19.91402015,20.89823192,series_1
,,,,,,,,5f3111dc9458a404e159ed1c,Mężczyzna,23,2021-07-13_21h48.20.211,rantool2,2021.1.4,Win32,74.96251874,5f3111dc9458a404e159ed1c,60d9d14f4a8a35a482e0d9bf,60ededf45940c10b3505e5b6,f,2.031,0,17,17,29,1,ORRRORO,ORRRORR,22.00300695,22.12173012,series_1
,,,,,,,,5f3111dc9458a404e159ed1c,Mężczyzna,23,2021-07-13_21h48.20.211,rantool2,2021.1.4,Win32,74.96251874,5f3111dc9458a404e159ed1c,60d9d14f4a8a35a482e0d9bf,60ededf45940c10b3505e5b6,j,3.443,0,18,18,26,1,ORROROO,ORROROR,22.02732763,21.71443381,series_0
,,,,,,,,5f3111dc9458a404e159ed1c,Mężczyzna,23,2021-07-13_21h48.20.211,rantool2,2021.1.4,Win32,74.96251874,5f3111dc9458a404e159ed1c,60d9d14f4a8a35a482e0d9bf,60ededf45940c10b3505e5b6,f,2.73,0,19,19,51,1,RROORRO,RROORRR,21.89852628,22.02786418,series_1
,,,,,,,,5f3111dc9458a404e159ed1c,Mężczyzna,23,2021-07-13_21h48.20.211,rantool2,2021.1.4,Win32,74.96251874,5f3111dc9458a404e159ed1c,60d9d14f4a8a35a482e0d9bf,60ededf45940c10b3505e5b6,j,2.004,0,20,20,50,1,RROOROO,RROOROR,21.73568164,22.02566557,series_1
,,,,,,,,5f3111dc9458a404e159ed1c,Mężczyzna,23,2021-07-13_21h48.20.211,rantool2,2021.1.4,Win32,74.96251874,5f3111dc9458a404e159ed1c,60d9d14f4a8a35a482e0d9bf,60ededf45940c10b3505e5b6,f,1.902,0,21,21,53,1,RRORORO,RRORORR,20.71309134,21.90565814,series_1
,,,,,,,,5f3111dc9458a404e159ed1c,Mężczyzna,23,2021-07-13_21h48.20.211,rantool2,2021.1.4,Win32,74.96251874,5f3111dc9458a404e159ed1c,60d9d14f4a8a35a482e0d9bf,60ededf45940c10b3505e5b6,j,1.931,0,22,22,11,1,OORORRO,OORORRR,22.18365867,22.6797523,series_1
,,,,,,,,5f3111dc9458a404e159ed1c,Mężczyzna,23,2021-07-13_21h48.20.211,rantool2,2021.1.4,Win32,74.96251874,5f3111dc9458a404e159ed1c,60d9d14f4a8a35a482e0d9bf,60ededf45940c10b3505e5b6,f,2.302,0,23,23,32,1,ROOOOOO,ROOOOOR,19.92253567,21.27974287,series_1
,,,,,,,,5f3111dc9458a404e159ed1c,Mężczyzna,23,2021-07-13_21h48.20.211,rantool2,2021.1.4,Win32,74.96251874,5f3111dc9458a404e159ed1c,60d9d14f4a8a35a482e0d9bf,60ededf45940c10b3505e5b6,j,1.954,0,24,24,33,1,ROOOORO,ROOOORR,20.83779602,22.03072203,series_1
,,,,,,,,5f3111dc9458a404e159ed1c,Mężczyzna,23,2021-07-13_21h48.20.211,rantool2,2021.1.4,Win32,74.96251874,5f3111dc9458a404e159ed1c,60d9d14f4a8a35a482e0d9bf,60ededf45940c10b3505e5b6,f,2.473,0,25,25,42,1,ROROROO,ROROROR,20.39515459,19.8361834,series_0
,,,,,,,,5f3111dc9458a404e159ed1c,Mężczyzna,23,2021-07-13_21h48.20.211,rantool2,2021.1.4,Win32,74.96251874,5f3111dc9458a404e159ed1c,60d9d14f4a8a35a482e0d9bf,60ededf45940c10b3505e5b6,j,3.192,0,26,26,3,1,OOOORRO,OOOORRR,20.90986523,21.74922619,series_1
,,,,,,,,5f3111dc9458a404e159ed1c,Mężczyzna,23,2021-07-13_21h48.20.211,rantool2,2021.1.4,Win32,74.96251874,5f3111dc9458a404e159ed1c,60d9d14f4a8a35a482e0d9bf,60ededf45940c10b3505e5b6,f,3.815,0,27,27,48,1,RROOOOO,RROOOOR,20.90986523,22.15934078,series_1
,,,,,,,,5f3111dc9458a404e159ed1c,Mężczyzna,23,2021-07-13_21h48.20.211,rantool2,2021.1.4,Win32,74.96251874,5f3111dc9458a404e159ed1c,60d9d14f4a8a35a482e0d9bf,60ededf45940c10b3505e5b6,j,1.733,0,28,28,19,1,OROORRO,OROORRR,21.73568164,22.11181017,series_1
,,,,,,,,5f3111dc9458a404e159ed1c,Mężczyzna,23,2021-07-13_21h48.20.211,rantool2,2021.1.4,Win32,74.96251874,5f3111dc9458a404e159ed1c,60d9d14f4a8a35a482e0d9bf,60ededf45940c10b3505e5b6,f,1.856,0,29,29,5,1,OOORORO,OOORORR,20.87963819,21.9921709,series_1
,,,,,,,,5f3111dc9458a404e159ed1c,Mężczyzna,23,2021-07-13_21h48.20.211,rantool2,2021.1.4,Win32,74.96251874,5f3111dc9458a404e159ed1c,60d9d14f4a8a35a482e0d9bf,60ededf45940c10b3505e5b6,j,2.11,0,30,30,7,1,OOORRRO,OOORRRR,21.6194508,21.899017,series_1
,,,,,,,,5f3111dc9458a404e159ed1c,Mężczyzna,23,2021-07-13_21h48.20.211,rantool2,2021.1.4,Win32,74.96251874,5f3111dc9458a404e159ed1c,60d9d14f4a8a35a482e0d9bf,60ededf45940c10b3505e5b6,f,1.38,0,31,31,4,1,OOOROOO,OOOROOR,19.91402015,21.21223021,series_1
,,,,,,,,5f3111dc9458a404e159ed1c,Mężczyzna,23,2021-07-13_21h48.20.211,rantool2,2021.1.4,Win32,74.96251874,5f3111dc9458a404e159ed1c,60d9d14f4a8a35a482e0d9bf,60ededf45940c10b3505e5b6,j,2.473,0,32,32,35,1,ROOORRO,ROOORRR,21.76276513,22.16977179,series_1
,,,,,,,,5f3111dc9458a404e159ed1c,Mężczyzna,23,2021-07-13_21h48.20.211,rantool2,2021.1.4,Win32,74.96251874,5f3111dc9458a404e159ed1c,60d9d14f4a8a35a482e0d9bf,60ededf45940c10b3505e5b6,f,2.842,0,33,33,61,1,RRRRORO,RRRRORR,21.81333602,21.17347734,series_0
,,,,,,,,5f3111dc9458a404e159ed1c,Mężczyzna,23,2021-07-13_21h48.20.211,rantool2,2021.1.4,Win32,74.96251874,5f3111dc9458a404e159ed1c,60d9d14f4a8a35a482e0d9bf,60ededf45940c10b3505e5b6,j,1.796,0,34,34,63,1,RRRRRRO,RRRRRRR,21.35278725,19.62521613,series_0
,,,,,,,,5f3111dc9458a404e159ed1c,Mężczyzna,23,2021-07-13_21h48.20.211,rantool2,2021.1.4,Win32,74.96251874,5f3111dc9458a404e159ed1c,60d9d14f4a8a35a482e0d9bf,60ededf45940c10b3505e5b6,f,1.514,0,35,35,34,1,ROOOROO,ROOOROR,21.03750787,21.24781509,series_1
,,,,,,,,5f3111dc9458a404e159ed1c,Mężczyzna,23,2021-07-13_21h48.20.211,rantool2,2021.1.4,Win32,74.96251874,5f3111dc9458a404e159ed1c,60d9d14f4a8a35a482e0d9bf,60ededf45940c10b3505e5b6,j,1.657,0,36,36,47,1,RORRRRO,RORRRRR,21.81333602,21.02936224,series_0
,,,,,,,,5f3111dc9458a404e159ed1c,Mężczyzna,23,2021-07-13_21h48.20.211,rantool2,2021.1.4,Win32,74.96251874,5f3111dc9458a404e159ed1c,60d9d14f4a8a35a482e0d9bf,60ededf45940c10b3505e5b6,f,2.642,0,37,37,27,1,ORRORRO,ORRORRR,21.55250791,22.2428857,series_1
,,,,,,,,5f3111dc9458a404e159ed1c,Mężczyzna,23,2021-07-13_21h48.20.211,rantool2,2021.1.4,Win32,74.96251874,5f3111dc9458a404e159ed1c,60d9d14f4a8a35a482e0d9bf,60ededf45940c10b3505e5b6,f,1.945,0,38,38,25,1,ORROORO,ORROORR,21.79500819,22.61624387,series_1
,,,,,,,,5f3111dc9458a404e159ed1c,Mężczyzna,23,2021-07-13_21h48.20.211,rantool2,2021.1.4,Win32,74.96251874,5f3111dc9458a404e159ed1c,60d9d14f4a8a35a482e0d9bf,60ededf45940c10b3505e5b6,j,1.629,0,39,39,9,1,OOROORO,OOROORR,21.07991943,22.2428857,series_1
,,,,,,,,5f3111dc9458a404e159ed1c,Mężczyzna,23,2021-07-13_21h48.20.211,rantool2,2021.1.4,Win32,74.96251874,5f3111dc9458a404e159ed1c,60d9d14f4a8a35a482e0d9bf,60ededf45940c10b3505e5b6,j,1.711,0,40,40,40,1,ROROOOO,ROROOOR,20.87963819,21.37121559,series_1
,,,,,,,,5f3111dc9458a404e159ed1c,Mężczyzna,23,2021-07-13_21h48.20.211,rantool2,2021.1.4,Win32,74.96251874,5f3111dc9458a404e159ed1c,60d9d14f4a8a35a482e0d9bf,60ededf45940c10b3505e5b6,f,1.668,0,41,41,58,1,RRROROO,RRROROR,22.1285618,21.37121559,series_0
,,,,,,,,5f3111dc9458a404e159ed1c,Mężczyzna,23,2021-07-13_21h48.20.211,rantool2,2021.1.4,Win32,74.96251874,5f3111dc9458a404e159ed1c,60d9d14f4a8a35a482e0d9bf,60ededf45940c10b3505e5b6,j,3.243,0,42,42,31,1,ORRRRRO,ORRRRRR,22.16413392,20.74050628,series_0
,,,,,,,,5f3111dc9458a404e159ed1c,Mężczyzna,23,2021-07-13_21h48.20.211,rantool2,2021.1.4,Win32,74.96251874,5f3111dc9458a404e159ed1c,60d9d14f4a8a35a482e0d9bf,60ededf45940c10b3505e5b6,f,1.485,0,43,43,2,1,OOOOROO,OOOOROR,20.43051175,21.02936224,series_1
,,,,,,,,5f3111dc9458a404e159ed1c,Mężczyzna,23,2021-07-13_21h48.20.211,rantool2,2021.1.4,Win32,74.96251874,5f3111dc9458a404e159ed1c,60d9d14f4a8a35a482e0d9bf,60ededf45940c10b3505e5b6,j,1.202,0,44,44,16,1,OROOOOO,OROOOOR,20.43051175,21.17347734,series_1
,,,,,,,,5f3111dc9458a404e159ed1c,Mężczyzna,23,2021-07-13_21h48.20.211,rantool2,2021.1.4,Win32,74.96251874,5f3111dc9458a404e159ed1c,60d9d14f4a8a35a482e0d9bf,60ededf45940c10b3505e5b6,f,1.217,0,45,45,22,1,ORORROO,ORORROR,22.02732763,21.57657071,series_0
,,,,,,,,5f3111dc9458a404e159ed1c,Mężczyzna,23,2021-07-13_21h48.20.211,rantool2,2021.1.4,Win32,74.96251874,5f3111dc9458a404e159ed1c,60d9d14f4a8a35a482e0d9bf,60ededf45940c10b3505e5b6,j,1.302,0,46,46,56,1,RRROOOO,RRROOOR,21.6194508,22.31681875,series_1
,,,,,,,,5f3111dc9458a404e159ed1c,Mężczyzna,23,2021-07-13_21h48.20.211,rantool2,2021.1.4,Win32,74.96251874,5f3111dc9458a404e159ed1c,60d9d14f4a8a35a482e0d9bf,60ededf45940c10b3505e5b6,j,2.277,0,47,47,30,1,ORRRROO,ORRRROR,22.46748491,22.03072203,series_0
,,,,,,,,5f3111dc9458a404e159ed1c,Mężczyzna,23,2021-07-13_21h48.20.211,rantool2,2021.1.4,Win32,74.96251874,5f3111dc9458a404e159ed1c,60d9d14f4a8a35a482e0d9bf,60ededf45940c10b3505e5b6,f,1.715,0,48,48,1,1,OOOOORO,OOOOORR,19.92253567,20.74050628,series_1
,,,,,,,,5f3111dc9458a404e159ed1c,Mężczyzna,23,2021-07-13_21h48.20.211,rantool2,2021.1.4,Win32,74.96251874,5f3111dc9458a404e159ed1c,60d9d14f4a8a35a482e0d9bf,60ededf45940c10b3505e5b6,f,1.675,0,49,49,39,1,ROORRRO,ROORRRR,21.82425538,21.38562617,series_0
,,,,,,,,5f3111dc9458a404e159ed1c,Mężczyzna,23,2021-07-13_21h48.20.211,rantool2,2021.1.4,Win32,74.96251874,5f3111dc9458a404e159ed1c,60d9d14f4a8a35a482e0d9bf,60ededf45940c10b3505e5b6,j,1.33,0,50,50,54,1,RRORROO,RRORROR,21.55250791,20.9984461,series_0
,,,,,,,,5f3111dc9458a404e159ed1c,Mężczyzna,23,2021-07-13_21h48.20.211,rantool2,2021.1.4,Win32,74.96251874,5f3111dc9458a404e159ed1c,60d9d14f4a8a35a482e0d9bf,60ededf45940c10b3505e5b6,f,1.301,0,51,51,10,1,OOROROO,OOROROR,21.31236711,21.07490964,series_0
,,,,,,,,5f3111dc9458a404e159ed1c,Mężczyzna,23,2021-07-13_21h48.20.211,rantool2,2021.1.4,Win32,74.96251874,5f3111dc9458a404e159ed1c,60d9d14f4a8a35a482e0d9bf,60ededf45940c10b3505e5b6,j,1.394,0,52,52,57,1,RRROORO,RRROORR,21.82425538,22.07102821,series_1
,,,,,,,,5f3111dc9458a404e159ed1c,Mężczyzna,23,2021-07-13_21h48.20.211,rantool2,2021.1.4,Win32,74.96251874,5f3111dc9458a404e159ed1c,60d9d14f4a8a35a482e0d9bf,60ededf45940c10b3505e5b6,f,1.281,0,53,53,20,1,OROROOO,OROROOR,21.31236711,21.90565814,series_1
,,,,,,,,5f3111dc9458a404e159ed1c,Mężczyzna,23,2021-07-13_21h48.20.211,rantool2,2021.1.4,Win32,74.96251874,5f3111dc9458a404e159ed1c,60d9d14f4a8a35a482e0d9bf,60ededf45940c10b3505e5b6,j,1.315,0,54,54,15,1,OORRRRO,OORRRRR,22.10108823,21.74922619,series_0
,,,,,,,,5f3111dc9458a404e159ed1c,Mężczyzna,23,2021-07-13_21h48.20.211,rantool2,2021.1.4,Win32,74.96251874,5f3111dc9458a404e159ed1c,60d9d14f4a8a35a482e0d9bf,60ededf45940c10b3505e5b6,f,1.394,0,55,55,38,1,ROORROO,ROORROR,21.79500819,21.36812781,series_0
,,,,,,,,5f3111dc9458a404e159ed1c,Mężczyzna,23,2021-07-13_21h48.20.211,rantool2,2021.1.4,Win32,74.96251874,5f3111dc9458a404e159ed1c,60d9d14f4a8a35a482e0d9bf,60ededf45940c10b3505e5b6,f,1.939,0,56,56,36,1,ROOROOO,ROOROOR,21.07991943,20.9984461,series_0
,,,,,,,,5f3111dc9458a404e159ed1c,Mężczyzna,23,2021-07-13_21h48.20.211,rantool2,2021.1.4,Win32,74.96251874,5f3111dc9458a404e159ed1c,60d9d14f4a8a35a482e0d9bf,60ededf45940c10b3505e5b6,f,1.75,0,57,57,37,1,ROORORO,ROORORR,20.42602454,21.57657071,series_1
,,,,,,,,5f3111dc9458a404e159ed1c,Mężczyzna,23,2021-07-13_21h48.20.211,rantool2,2021.1.4,Win32,74.96251874,5f3111dc9458a404e159ed1c,60d9d14f4a8a35a482e0d9bf,60ededf45940c10b3505e5b6,j,3.407,0,58,58,0,1,OOOOOOO,OOOOOOR,18.52739004,19.62521613,series_1
,,,,,,,,5f3111dc9458a404e159ed1c,Mężczyzna,23,2021-07-13_21h48.20.211,rantool2,2021.1.4,Win32,74.96251874,5f3111dc9458a404e159ed1c,60d9d14f4a8a35a482e0d9bf,60ededf45940c10b3505e5b6,f,1.808,0,59,59,12,1,OORROOO,OORROOR,21.30250474,22.02786418,series_1
,,,,,,,,5f3111dc9458a404e159ed1c,Mężczyzna,23,2021-07-13_21h48.20.211,rantool2,2021.1.4,Win32,74.96251874,5f3111dc9458a404e159ed1c,60d9d14f4a8a35a482e0d9bf,60ededf45940c10b3505e5b6,j,1.538,0,60,60,18,1,OROOROO,OROOROR,20.84860893,21.22513037,series_1
,,,,,,,,5f3111dc9458a404e159ed1c,Mężczyzna,23,2021-07-13_21h48.20.211,rantool2,2021.1.4,Win32,74.96251874,5f3111dc9458a404e159ed1c,60d9d14f4a8a35a482e0d9bf,60ededf45940c10b3505e5b6,j,1.814,0,61,61,17,1,OROOORO,OROOORR,21.03750787,22.12173012,series_1
,,,,,,,,5f3111dc9458a404e159ed1c,Mężczyzna,23,2021-07-13_21h48.20.211,rantool2,2021.1.4,Win32,74.96251874,5f3111dc9458a404e159ed1c,60d9d14f4a8a35a482e0d9bf,60ededf45940c10b3505e5b6,f,1.579,0,62,62,46,1,RORRROO,RORRROR,22.00300695,21.24781509,series_0
,,,,,,,,5f3111dc9458a404e159ed1c,Mężczyzna,23,2021-07-13_21h48.20.211,rantool2,2021.1.4,Win32,74.96251874,5f3111dc9458a404e159ed1c,60d9d14f4a8a35a482e0d9bf,60ededf45940c10b3505e5b6,f,1.548,0,63,63,24,1,ORROOOO,ORROOOR,21.12383932,22.07102821,series_1
