key_resp_7.keys,key_resp_7.rt,trials_2.thisRepN,trials_2.thisTrialN,trials_2.thisN,trials_2.thisIndex,trials_2.ran,id,series_0,series_1,acss_0,acss_1,comparison,id*,Płeć*,Wiek*,date,expName,psychopyVersion,OS,frameRate,STUDY_ID,SESSION_ID,key_resp_5.keys,key_resp_5.corr,key_resp_5.rt,trials.thisRepN,trials.thisTrialN,trials.thisN,trials.thisIndex,trials.ran
j,3.4803,0,0,0,7,1,6059ccafffccc8edd37811ab,OOORRRO,OOORRRR,21.6194508,21.899017,series_1,6059ccafffccc8edd37811ab,Kobieta,22,2021-09-06_19h34.33.012,rantool2,2021.1.4,Win32,60.19020104,6135e006383e6ea6c3d06a28,61364f01b67e018604436357,,,,,,,,
f,2.9332,0,1,1,16,1,6059ccafffccc8edd37811ab,OROOOOO,OROOOOR,20.43051175,21.17347734,series_1,6059ccafffccc8edd37811ab,Kobieta,22,2021-09-06_19h34.33.012,rantool2,2021.1.4,Win32,60.19020104,6135e006383e6ea6c3d06a28,61364f01b67e018604436357,,,,,,,,
f,3.3334,0,2,2,36,1,6059ccafffccc8edd37811ab,ROOROOO,ROOROOR,21.07991943,20.9984461,series_0,6059ccafffccc8edd37811ab,Kobieta,22,2021-09-06_19h34.33.012,rantool2,2021.1.4,Win32,60.19020104,6135e006383e6ea6c3d06a28,61364f01b67e018604436357,,,,,,,,
f,2.9398,0,3,3,28,1,6059ccafffccc8edd37811ab,ORRROOO,ORRROOR,22.24142883,22.53364006,series_1,6059ccafffccc8edd37811ab,Kobieta,22,2021-09-06_19h34.33.012,rantool2,2021.1.4,Win32,60.19020104,6135e006383e6ea6c3d06a28,61364f01b67e018604436357,,,,,,,,
f,2.565,0,4,4,62,1,6059ccafffccc8edd37811ab,RRRRROO,RRRRROR,22.16413392,21.27974287,series_0,6059ccafffccc8edd37811ab,Kobieta,22,2021-09-06_19h34.33.012,rantool2,2021.1.4,Win32,60.19020104,6135e006383e6ea6c3d06a28,61364f01b67e018604436357,,,,,,,,
f,2.9487,0,5,5,50,1,6059ccafffccc8edd37811ab,RROOROO,RROOROR,21.73568164,22.02566557,series_1,6059ccafffccc8edd37811ab,Kobieta,22,2021-09-06_19h34.33.012,rantool2,2021.1.4,Win32,60.19020104,6135e006383e6ea6c3d06a28,61364f01b67e018604436357,,,,,,,,
j,3.0008,0,6,6,9,1,6059ccafffccc8edd37811ab,OOROORO,OOROORR,21.07991943,22.2428857,series_1,6059ccafffccc8edd37811ab,Kobieta,22,2021-09-06_19h34.33.012,rantool2,2021.1.4,Win32,60.19020104,6135e006383e6ea6c3d06a28,61364f01b67e018604436357,,,,,,,,
f,2.7548,0,7,7,37,1,6059ccafffccc8edd37811ab,ROORORO,ROORORR,20.42602454,21.57657071,series_1,6059ccafffccc8edd37811ab,Kobieta,22,2021-09-06_19h34.33.012,rantool2,2021.1.4,Win32,60.19020104,6135e006383e6ea6c3d06a28,61364f01b67e018604436357,,,,,,,,
j,1.8546,0,8,8,39,1,6059ccafffccc8edd37811ab,ROORRRO,ROORRRR,21.82425538,21.38562617,series_0,6059ccafffccc8edd37811ab,Kobieta,22,2021-09-06_19h34.33.012,rantool2,2021.1.4,Win32,60.19020104,6135e006383e6ea6c3d06a28,61364f01b67e018604436357,,,,,,,,
f,2.3505,0,9,9,40,1,6059ccafffccc8edd37811ab,ROROOOO,ROROOOR,20.87963819,21.37121559,series_1,6059ccafffccc8edd37811ab,Kobieta,22,2021-09-06_19h34.33.012,rantool2,2021.1.4,Win32,60.19020104,6135e006383e6ea6c3d06a28,61364f01b67e018604436357,,,,,,,,
j,2.5336,0,10,10,24,1,6059ccafffccc8edd37811ab,ORROOOO,ORROOOR,21.12383932,22.07102821,series_1,6059ccafffccc8edd37811ab,Kobieta,22,2021-09-06_19h34.33.012,rantool2,2021.1.4,Win32,60.19020104,6135e006383e6ea6c3d06a28,61364f01b67e018604436357,,,,,,,,
f,2.114,0,11,11,31,1,6059ccafffccc8edd37811ab,ORRRRRO,ORRRRRR,22.16413392,20.74050628,series_0,6059ccafffccc8edd37811ab,Kobieta,22,2021-09-06_19h34.33.012,rantool2,2021.1.4,Win32,60.19020104,6135e006383e6ea6c3d06a28,61364f01b67e018604436357,,,,,,,,
j,1.5017,0,12,12,0,1,6059ccafffccc8edd37811ab,OOOOOOO,OOOOOOR,18.52739004,19.62521613,series_1,6059ccafffccc8edd37811ab,Kobieta,22,2021-09-06_19h34.33.012,rantool2,2021.1.4,Win32,60.19020104,6135e006383e6ea6c3d06a28,61364f01b67e018604436357,,,,,,,,
f,2.4968,0,13,13,20,1,6059ccafffccc8edd37811ab,OROROOO,OROROOR,21.31236711,21.90565814,series_1,6059ccafffccc8edd37811ab,Kobieta,22,2021-09-06_19h34.33.012,rantool2,2021.1.4,Win32,60.19020104,6135e006383e6ea6c3d06a28,61364f01b67e018604436357,,,,,,,,
j,3.282,0,14,14,23,1,6059ccafffccc8edd37811ab,ORORRRO,ORORRRR,22.1285618,21.9921709,series_0,6059ccafffccc8edd37811ab,Kobieta,22,2021-09-06_19h34.33.012,rantool2,2021.1.4,Win32,60.19020104,6135e006383e6ea6c3d06a28,61364f01b67e018604436357,,,,,,,,
j,2.0658,0,15,15,21,1,6059ccafffccc8edd37811ab,ORORORO,ORORORR,20.39515459,22.06781359,series_1,6059ccafffccc8edd37811ab,Kobieta,22,2021-09-06_19h34.33.012,rantool2,2021.1.4,Win32,60.19020104,6135e006383e6ea6c3d06a28,61364f01b67e018604436357,,,,,,,,
j,1.7554,0,16,16,38,1,6059ccafffccc8edd37811ab,ROORROO,ROORROR,21.79500819,21.36812781,series_0,6059ccafffccc8edd37811ab,Kobieta,22,2021-09-06_19h34.33.012,rantool2,2021.1.4,Win32,60.19020104,6135e006383e6ea6c3d06a28,61364f01b67e018604436357,,,,,,,,
f,1.9843,0,17,17,12,1,6059ccafffccc8edd37811ab,OORROOO,OORROOR,21.30250474,22.02786418,series_1,6059ccafffccc8edd37811ab,Kobieta,22,2021-09-06_19h34.33.012,rantool2,2021.1.4,Win32,60.19020104,6135e006383e6ea6c3d06a28,61364f01b67e018604436357,,,,,,,,
j,2.0324,0,18,18,27,1,6059ccafffccc8edd37811ab,ORRORRO,ORRORRR,21.55250791,22.2428857,series_1,6059ccafffccc8edd37811ab,Kobieta,22,2021-09-06_19h34.33.012,rantool2,2021.1.4,Win32,60.19020104,6135e006383e6ea6c3d06a28,61364f01b67e018604436357,,,,,,,,
f,1.5818,0,19,19,46,1,6059ccafffccc8edd37811ab,RORRROO,RORRROR,22.00300695,21.24781509,series_0,6059ccafffccc8edd37811ab,Kobieta,22,2021-09-06_19h34.33.012,rantool2,2021.1.4,Win32,60.19020104,6135e006383e6ea6c3d06a28,61364f01b67e018604436357,,,,,,,,
j,1.4486,0,20,20,60,1,6059ccafffccc8edd37811ab,RRRROOO,RRRROOR,22.10108823,22.15934078,series_1,6059ccafffccc8edd37811ab,Kobieta,22,2021-09-06_19h34.33.012,rantool2,2021.1.4,Win32,60.19020104,6135e006383e6ea6c3d06a28,61364f01b67e018604436357,,,,,,,,
j,1.5832,0,21,21,30,1,6059ccafffccc8edd37811ab,ORRRROO,ORRRROR,22.46748491,22.03072203,series_0,6059ccafffccc8edd37811ab,Kobieta,22,2021-09-06_19h34.33.012,rantool2,2021.1.4,Win32,60.19020104,6135e006383e6ea6c3d06a28,61364f01b67e018604436357,,,,,,,,
j,1.7849,0,22,22,51,1,6059ccafffccc8edd37811ab,RROORRO,RROORRR,21.89852628,22.02786418,series_1,6059ccafffccc8edd37811ab,Kobieta,22,2021-09-06_19h34.33.012,rantool2,2021.1.4,Win32,60.19020104,6135e006383e6ea6c3d06a28,61364f01b67e018604436357,,,,,,,,
j,1.8969,0,23,23,11,1,6059ccafffccc8edd37811ab,OORORRO,OORORRR,22.18365867,22.6797523,series_1,6059ccafffccc8edd37811ab,Kobieta,22,2021-09-06_19h34.33.012,rantool2,2021.1.4,Win32,60.19020104,6135e006383e6ea6c3d06a28,61364f01b67e018604436357,,,,,,,,
j,2.0659,0,24,24,53,1,6059ccafffccc8edd37811ab,RRORORO,RRORORR,20.71309134,21.90565814,series_1,6059ccafffccc8edd37811ab,Kobieta,22,2021-09-06_19h34.33.012,rantool2,2021.1.4,Win32,60.19020104,6135e006383e6ea6c3d06a28,61364f01b67e018604436357,,,,,,,,
f,1.9327,0,25,25,42,1,6059ccafffccc8edd37811ab,ROROROO,ROROROR,20.39515459,19.8361834,series_0,6059ccafffccc8edd37811ab,Kobieta,22,2021-09-06_19h34.33.012,rantool2,2021.1.4,Win32,60.19020104,6135e006383e6ea6c3d06a28,61364f01b67e018604436357,,,,,,,,
j,2.2332,0,26,26,52,1,6059ccafffccc8edd37811ab,RROROOO,RROROOR,22.18365867,22.11097995,series_0,6059ccafffccc8edd37811ab,Kobieta,22,2021-09-06_19h34.33.012,rantool2,2021.1.4,Win32,60.19020104,6135e006383e6ea6c3d06a28,61364f01b67e018604436357,,,,,,,,
f,2.5824,0,27,27,54,1,6059ccafffccc8edd37811ab,RRORROO,RRORROR,21.55250791,20.9984461,series_0,6059ccafffccc8edd37811ab,Kobieta,22,2021-09-06_19h34.33.012,rantool2,2021.1.4,Win32,60.19020104,6135e006383e6ea6c3d06a28,61364f01b67e018604436357,,,,,,,,
j,2.4787,0,28,28,19,1,6059ccafffccc8edd37811ab,OROORRO,OROORRR,21.73568164,22.11181017,series_1,6059ccafffccc8edd37811ab,Kobieta,22,2021-09-06_19h34.33.012,rantool2,2021.1.4,Win32,60.19020104,6135e006383e6ea6c3d06a28,61364f01b67e018604436357,,,,,,,,
j,2.6151,0,29,29,61,1,6059ccafffccc8edd37811ab,RRRRORO,RRRRORR,21.81333602,21.17347734,series_0,6059ccafffccc8edd37811ab,Kobieta,22,2021-09-06_19h34.33.012,rantool2,2021.1.4,Win32,60.19020104,6135e006383e6ea6c3d06a28,61364f01b67e018604436357,,,,,,,,
f,2.6157,0,30,30,1,1,6059ccafffccc8edd37811ab,OOOOORO,OOOOORR,19.92253567,20.74050628,series_1,6059ccafffccc8edd37811ab,Kobieta,22,2021-09-06_19h34.33.012,rantool2,2021.1.4,Win32,60.19020104,6135e006383e6ea6c3d06a28,61364f01b67e018604436357,,,,,,,,
f,2.1055,0,31,31,43,1,6059ccafffccc8edd37811ab,RORORRO,RORORRR,20.71309134,21.07490964,series_1,6059ccafffccc8edd37811ab,Kobieta,22,2021-09-06_19h34.33.012,rantool2,2021.1.4,Win32,60.19020104,6135e006383e6ea6c3d06a28,61364f01b67e018604436357,,,,,,,,
f,2.0855,0,32,32,14,1,6059ccafffccc8edd37811ab,OORRROO,OORRROR,22.24142883,22.16977179,series_0,6059ccafffccc8edd37811ab,Kobieta,22,2021-09-06_19h34.33.012,rantool2,2021.1.4,Win32,60.19020104,6135e006383e6ea6c3d06a28,61364f01b67e018604436357,,,,,,,,
f,2.539,0,33,33,47,1,6059ccafffccc8edd37811ab,RORRRRO,RORRRRR,21.81333602,21.02936224,series_0,6059ccafffccc8edd37811ab,Kobieta,22,2021-09-06_19h34.33.012,rantool2,2021.1.4,Win32,60.19020104,6135e006383e6ea6c3d06a28,61364f01b67e018604436357,,,,,,,,
j,2.0203,0,34,34,35,1,6059ccafffccc8edd37811ab,ROOORRO,ROOORRR,21.76276513,22.16977179,series_1,6059ccafffccc8edd37811ab,Kobieta,22,2021-09-06_19h34.33.012,rantool2,2021.1.4,Win32,60.19020104,6135e006383e6ea6c3d06a28,61364f01b67e018604436357,,,,,,,,
f,2.3738,0,35,35,49,1,6059ccafffccc8edd37811ab,RROOORO,RROOORR,21.76276513,22.53364006,series_1,6059ccafffccc8edd37811ab,Kobieta,22,2021-09-06_19h34.33.012,rantool2,2021.1.4,Win32,60.19020104,6135e006383e6ea6c3d06a28,61364f01b67e018604436357,,,,,,,,
f,2.7198,0,36,36,57,1,6059ccafffccc8edd37811ab,RRROORO,RRROORR,21.82425538,22.07102821,series_1,6059ccafffccc8edd37811ab,Kobieta,22,2021-09-06_19h34.33.012,rantool2,2021.1.4,Win32,60.19020104,6135e006383e6ea6c3d06a28,61364f01b67e018604436357,,,,,,,,
j,2.2329,0,37,37,45,1,6059ccafffccc8edd37811ab,RORRORO,RORRORR,20.78182524,21.22513037,series_1,6059ccafffccc8edd37811ab,Kobieta,22,2021-09-06_19h34.33.012,rantool2,2021.1.4,Win32,60.19020104,6135e006383e6ea6c3d06a28,61364f01b67e018604436357,,,,,,,,
f,2.6014,0,38,38,56,1,6059ccafffccc8edd37811ab,RRROOOO,RRROOOR,21.6194508,22.31681875,series_1,6059ccafffccc8edd37811ab,Kobieta,22,2021-09-06_19h34.33.012,rantool2,2021.1.4,Win32,60.19020104,6135e006383e6ea6c3d06a28,61364f01b67e018604436357,,,,,,,,
j,3.0667,0,39,39,17,1,6059ccafffccc8edd37811ab,OROOORO,OROOORR,21.03750787,22.12173012,series_1,6059ccafffccc8edd37811ab,Kobieta,22,2021-09-06_19h34.33.012,rantool2,2021.1.4,Win32,60.19020104,6135e006383e6ea6c3d06a28,61364f01b67e018604436357,,,,,,,,
j,1.7854,0,40,40,10,1,6059ccafffccc8edd37811ab,OOROROO,OOROROR,21.31236711,21.07490964,series_0,6059ccafffccc8edd37811ab,Kobieta,22,2021-09-06_19h34.33.012,rantool2,2021.1.4,Win32,60.19020104,6135e006383e6ea6c3d06a28,61364f01b67e018604436357,,,,,,,,
f,1.7159,0,41,41,44,1,6059ccafffccc8edd37811ab,RORROOO,RORROOR,21.66733484,22.02566557,series_1,6059ccafffccc8edd37811ab,Kobieta,22,2021-09-06_19h34.33.012,rantool2,2021.1.4,Win32,60.19020104,6135e006383e6ea6c3d06a28,61364f01b67e018604436357,,,,,,,,
f,2.6523,0,42,42,13,1,6059ccafffccc8edd37811ab,OORRORO,OORRORR,21.66733484,22.11181017,series_1,6059ccafffccc8edd37811ab,Kobieta,22,2021-09-06_19h34.33.012,rantool2,2021.1.4,Win32,60.19020104,6135e006383e6ea6c3d06a28,61364f01b67e018604436357,,,,,,,,
f,3.001,0,43,43,55,1,6059ccafffccc8edd37811ab,RRORRRO,RRORRRR,21.56657303,21.21223021,series_0,6059ccafffccc8edd37811ab,Kobieta,22,2021-09-06_19h34.33.012,rantool2,2021.1.4,Win32,60.19020104,6135e006383e6ea6c3d06a28,61364f01b67e018604436357,,,,,,,,
j,1.8318,0,44,44,32,1,6059ccafffccc8edd37811ab,ROOOOOO,ROOOOOR,19.92253567,21.27974287,series_1,6059ccafffccc8edd37811ab,Kobieta,22,2021-09-06_19h34.33.012,rantool2,2021.1.4,Win32,60.19020104,6135e006383e6ea6c3d06a28,61364f01b67e018604436357,,,,,,,,
f,3.1974,0,45,45,25,1,6059ccafffccc8edd37811ab,ORROORO,ORROORR,21.79500819,22.61624387,series_1,6059ccafffccc8edd37811ab,Kobieta,22,2021-09-06_19h34.33.012,rantool2,2021.1.4,Win32,60.19020104,6135e006383e6ea6c3d06a28,61364f01b67e018604436357,,,,,,,,
f,2.0677,0,46,46,3,1,6059ccafffccc8edd37811ab,OOOORRO,OOOORRR,20.90986523,21.74922619,series_1,6059ccafffccc8edd37811ab,Kobieta,22,2021-09-06_19h34.33.012,rantool2,2021.1.4,Win32,60.19020104,6135e006383e6ea6c3d06a28,61364f01b67e018604436357,,,,,,,,
f,1.7531,0,47,47,8,1,6059ccafffccc8edd37811ab,OOROOOO,OOROOOR,19.91402015,20.89823192,series_1,6059ccafffccc8edd37811ab,Kobieta,22,2021-09-06_19h34.33.012,rantool2,2021.1.4,Win32,60.19020104,6135e006383e6ea6c3d06a28,61364f01b67e018604436357,,,,,,,,
f,2.8693,0,48,48,5,1,6059ccafffccc8edd37811ab,OOORORO,OOORORR,20.87963819,21.9921709,series_1,6059ccafffccc8edd37811ab,Kobieta,22,2021-09-06_19h34.33.012,rantool2,2021.1.4,Win32,60.19020104,6135e006383e6ea6c3d06a28,61364f01b67e018604436357,,,,,,,,
j,2.3246,0,49,49,33,1,6059ccafffccc8edd37811ab,ROOOORO,ROOOORR,20.83779602,22.03072203,series_1,6059ccafffccc8edd37811ab,Kobieta,22,2021-09-06_19h34.33.012,rantool2,2021.1.4,Win32,60.19020104,6135e006383e6ea6c3d06a28,61364f01b67e018604436357,,,,,,,,
f,1.8296,0,50,50,58,1,6059ccafffccc8edd37811ab,RRROROO,RRROROR,22.1285618,21.37121559,series_0,6059ccafffccc8edd37811ab,Kobieta,22,2021-09-06_19h34.33.012,rantool2,2021.1.4,Win32,60.19020104,6135e006383e6ea6c3d06a28,61364f01b67e018604436357,,,,,,,,
f,4.2465,0,51,51,18,1,6059ccafffccc8edd37811ab,OROOROO,OROOROR,20.84860893,21.22513037,series_1,6059ccafffccc8edd37811ab,Kobieta,22,2021-09-06_19h34.33.012,rantool2,2021.1.4,Win32,60.19020104,6135e006383e6ea6c3d06a28,61364f01b67e018604436357,,,,,,,,
j,2.1165,0,52,52,41,1,6059ccafffccc8edd37811ab,ROROORO,ROROORR,20.42602454,21.71443381,series_1,6059ccafffccc8edd37811ab,Kobieta,22,2021-09-06_19h34.33.012,rantool2,2021.1.4,Win32,60.19020104,6135e006383e6ea6c3d06a28,61364f01b67e018604436357,,,,,,,,
f,2.0158,0,53,53,34,1,6059ccafffccc8edd37811ab,ROOOROO,ROOOROR,21.03750787,21.24781509,series_1,6059ccafffccc8edd37811ab,Kobieta,22,2021-09-06_19h34.33.012,rantool2,2021.1.4,Win32,60.19020104,6135e006383e6ea6c3d06a28,61364f01b67e018604436357,,,,,,,,
j,1.8493,0,54,54,15,1,6059ccafffccc8edd37811ab,OORRRRO,OORRRRR,22.10108823,21.74922619,series_0,6059ccafffccc8edd37811ab,Kobieta,22,2021-09-06_19h34.33.012,rantool2,2021.1.4,Win32,60.19020104,6135e006383e6ea6c3d06a28,61364f01b67e018604436357,,,,,,,,
f,1.5682,0,55,55,48,1,6059ccafffccc8edd37811ab,RROOOOO,RROOOOR,20.90986523,22.15934078,series_1,6059ccafffccc8edd37811ab,Kobieta,22,2021-09-06_19h34.33.012,rantool2,2021.1.4,Win32,60.19020104,6135e006383e6ea6c3d06a28,61364f01b67e018604436357,,,,,,,,
j,2.181,0,56,56,4,1,6059ccafffccc8edd37811ab,OOOROOO,OOOROOR,19.91402015,21.21223021,series_1,6059ccafffccc8edd37811ab,Kobieta,22,2021-09-06_19h34.33.012,rantool2,2021.1.4,Win32,60.19020104,6135e006383e6ea6c3d06a28,61364f01b67e018604436357,,,,,,,,
f,1.4662,0,57,57,2,1,6059ccafffccc8edd37811ab,OOOOROO,OOOOROR,20.43051175,21.02936224,series_1,6059ccafffccc8edd37811ab,Kobieta,22,2021-09-06_19h34.33.012,rantool2,2021.1.4,Win32,60.19020104,6135e006383e6ea6c3d06a28,61364f01b67e018604436357,,,,,,,,
j,1.7337,0,58,58,59,1,6059ccafffccc8edd37811ab,RRRORRO,RRRORRR,21.56657303,20.89823192,series_0,6059ccafffccc8edd37811ab,Kobieta,22,2021-09-06_19h34.33.012,rantool2,2021.1.4,Win32,60.19020104,6135e006383e6ea6c3d06a28,61364f01b67e018604436357,,,,,,,,
f,2.4316,0,59,59,29,1,6059ccafffccc8edd37811ab,ORRRORO,ORRRORR,22.00300695,22.12173012,series_1,6059ccafffccc8edd37811ab,Kobieta,22,2021-09-06_19h34.33.012,rantool2,2021.1.4,Win32,60.19020104,6135e006383e6ea6c3d06a28,61364f01b67e018604436357,,,,,,,,
j,1.8676,0,60,60,6,1,6059ccafffccc8edd37811ab,OOORROO,OOORROR,21.12383932,21.38562617,series_1,6059ccafffccc8edd37811ab,Kobieta,22,2021-09-06_19h34.33.012,rantool2,2021.1.4,Win32,60.19020104,6135e006383e6ea6c3d06a28,61364f01b67e018604436357,,,,,,,,
f,1.485,0,61,61,22,1,6059ccafffccc8edd37811ab,ORORROO,ORORROR,22.02732763,21.57657071,series_0,6059ccafffccc8edd37811ab,Kobieta,22,2021-09-06_19h34.33.012,rantool2,2021.1.4,Win32,60.19020104,6135e006383e6ea6c3d06a28,61364f01b67e018604436357,,,,,,,,
j,1.7397,0,62,62,63,1,6059ccafffccc8edd37811ab,RRRRRRO,RRRRRRR,21.35278725,19.62521613,series_0,6059ccafffccc8edd37811ab,Kobieta,22,2021-09-06_19h34.33.012,rantool2,2021.1.4,Win32,60.19020104,6135e006383e6ea6c3d06a28,61364f01b67e018604436357,,,,,,,,
f,1.8492,0,63,63,26,1,6059ccafffccc8edd37811ab,ORROROO,ORROROR,22.02732763,21.71443381,series_0,6059ccafffccc8edd37811ab,Kobieta,22,2021-09-06_19h34.33.012,rantool2,2021.1.4,Win32,60.19020104,6135e006383e6ea6c3d06a28,61364f01b67e018604436357,,,,,,,,
,,,,,,,6059ccafffccc8edd37811ab,,,,,,6059ccafffccc8edd37811ab,Kobieta,22,2021-09-06_19h34.33.012,rantool2,2021.1.4,Win32,60.19020104,6135e006383e6ea6c3d06a28,61364f01b67e018604436357,"[""comma"",""comma""]",0,"[0.8999999999999773,1.6891999998092615]",0,0,0,0,1
,,,,,,,6059ccafffccc8edd37811ab,,,,,,6059ccafffccc8edd37811ab,Kobieta,22,2021-09-06_19h34.33.012,rantool2,2021.1.4,Win32,60.19020104,6135e006383e6ea6c3d06a28,61364f01b67e018604436357,"[""period""]",0,[1.7005000000000337],1,0,1,0,1
,,,,,,,6059ccafffccc8edd37811ab,,,,,,6059ccafffccc8edd37811ab,Kobieta,22,2021-09-06_19h34.33.012,rantool2,2021.1.4,Win32,60.19020104,6135e006383e6ea6c3d06a28,61364f01b67e018604436357,0,0,,2,0,2,0,1
,,,,,,,6059ccafffccc8edd37811ab,,,,,,6059ccafffccc8edd37811ab,Kobieta,22,2021-09-06_19h34.33.012,rantool2,2021.1.4,Win32,60.19020104,6135e006383e6ea6c3d06a28,61364f01b67e018604436357,"[""period""]",0,[0.4189999999999827],3,0,3,0,1
,,,,,,,6059ccafffccc8edd37811ab,,,,,,6059ccafffccc8edd37811ab,Kobieta,22,2021-09-06_19h34.33.012,rantool2,2021.1.4,Win32,60.19020104,6135e006383e6ea6c3d06a28,61364f01b67e018604436357,"[""comma""]",0,[0.5011000001430261],4,0,4,0,1
,,,,,,,6059ccafffccc8edd37811ab,,,,,,6059ccafffccc8edd37811ab,Kobieta,22,2021-09-06_19h34.33.012,rantool2,2021.1.4,Win32,60.19020104,6135e006383e6ea6c3d06a28,61364f01b67e018604436357,"[""comma""]",0,[0.822200000047701],5,0,5,0,1
,,,,,,,6059ccafffccc8edd37811ab,,,,,,6059ccafffccc8edd37811ab,Kobieta,22,2021-09-06_19h34.33.012,rantool2,2021.1.4,Win32,60.19020104,6135e006383e6ea6c3d06a28,61364f01b67e018604436357,"[""period""]",0,[0.7029999999999745],6,0,6,0,1
,,,,,,,6059ccafffccc8edd37811ab,,,,,,6059ccafffccc8edd37811ab,Kobieta,22,2021-09-06_19h34.33.012,rantool2,2021.1.4,Win32,60.19020104,6135e006383e6ea6c3d06a28,61364f01b67e018604436357,"[""period""]",0,[0.6720999999046171],7,0,7,0,1
,,,,,,,6059ccafffccc8edd37811ab,,,,,,6059ccafffccc8edd37811ab,Kobieta,22,2021-09-06_19h34.33.012,rantool2,2021.1.4,Win32,60.19020104,6135e006383e6ea6c3d06a28,61364f01b67e018604436357,"[""period""]",0,[0.39959999990463757],8,0,8,0,1
,,,,,,,6059ccafffccc8edd37811ab,,,,,,6059ccafffccc8edd37811ab,Kobieta,22,2021-09-06_19h34.33.012,rantool2,2021.1.4,Win32,60.19020104,6135e006383e6ea6c3d06a28,61364f01b67e018604436357,"[""comma""]",0,[0.5670000000000073],9,0,9,0,1
,,,,,,,6059ccafffccc8edd37811ab,,,,,,6059ccafffccc8edd37811ab,Kobieta,22,2021-09-06_19h34.33.012,rantool2,2021.1.4,Win32,60.19020104,6135e006383e6ea6c3d06a28,61364f01b67e018604436357,"[""comma""]",0,[0.8747999999523017],10,0,10,0,1
,,,,,,,6059ccafffccc8edd37811ab,,,,,,6059ccafffccc8edd37811ab,Kobieta,22,2021-09-06_19h34.33.012,rantool2,2021.1.4,Win32,60.19020104,6135e006383e6ea6c3d06a28,61364f01b67e018604436357,"[""period""]",0,[0.5397999999523222],11,0,11,0,1
,,,,,,,6059ccafffccc8edd37811ab,,,,,,6059ccafffccc8edd37811ab,Kobieta,22,2021-09-06_19h34.33.012,rantool2,2021.1.4,Win32,60.19020104,6135e006383e6ea6c3d06a28,61364f01b67e018604436357,"[""comma""]",0,[0.4530000000000314],12,0,12,0,1
,,,,,,,6059ccafffccc8edd37811ab,,,,,,6059ccafffccc8edd37811ab,Kobieta,22,2021-09-06_19h34.33.012,rantool2,2021.1.4,Win32,60.19020104,6135e006383e6ea6c3d06a28,61364f01b67e018604436357,"[""period""]",0,[0.5669999999999504],13,0,13,0,1
,,,,,,,6059ccafffccc8edd37811ab,,,,,,6059ccafffccc8edd37811ab,Kobieta,22,2021-09-06_19h34.33.012,rantool2,2021.1.4,Win32,60.19020104,6135e006383e6ea6c3d06a28,61364f01b67e018604436357,"[""period""]",0,[0.5475999999046621],14,0,14,0,1
,,,,,,,6059ccafffccc8edd37811ab,,,,,,6059ccafffccc8edd37811ab,Kobieta,22,2021-09-06_19h34.33.012,rantool2,2021.1.4,Win32,60.19020104,6135e006383e6ea6c3d06a28,61364f01b67e018604436357,"[""comma""]",0,[0.5333999998569539],15,0,15,0,1
,,,,,,,6059ccafffccc8edd37811ab,,,,,,6059ccafffccc8edd37811ab,Kobieta,22,2021-09-06_19h34.33.012,rantool2,2021.1.4,Win32,60.19020104,6135e006383e6ea6c3d06a28,61364f01b67e018604436357,"[""period""]",0,[0.6419999999999959],16,0,16,0,1
,,,,,,,6059ccafffccc8edd37811ab,,,,,,6059ccafffccc8edd37811ab,Kobieta,22,2021-09-06_19h34.33.012,rantool2,2021.1.4,Win32,60.19020104,6135e006383e6ea6c3d06a28,61364f01b67e018604436357,"[""period""]",0,[0.650299999952324],17,0,17,0,1
,,,,,,,6059ccafffccc8edd37811ab,,,,,,6059ccafffccc8edd37811ab,Kobieta,22,2021-09-06_19h34.33.012,rantool2,2021.1.4,Win32,60.19020104,6135e006383e6ea6c3d06a28,61364f01b67e018604436357,"[""comma""]",0,[0.9236000001430966],18,0,18,0,1
,,,,,,,6059ccafffccc8edd37811ab,,,,,,6059ccafffccc8edd37811ab,Kobieta,22,2021-09-06_19h34.33.012,rantool2,2021.1.4,Win32,60.19020104,6135e006383e6ea6c3d06a28,61364f01b67e018604436357,"[""period""]",0,[0.7077000000476801],19,0,19,0,1
,,,,,,,6059ccafffccc8edd37811ab,,,,,,6059ccafffccc8edd37811ab,Kobieta,22,2021-09-06_19h34.33.012,rantool2,2021.1.4,Win32,60.19020104,6135e006383e6ea6c3d06a28,61364f01b67e018604436357,"[""comma""]",0,[0.7832000000477137],20,0,20,0,1
,,,,,,,6059ccafffccc8edd37811ab,,,,,,6059ccafffccc8edd37811ab,Kobieta,22,2021-09-06_19h34.33.012,rantool2,2021.1.4,Win32,60.19020104,6135e006383e6ea6c3d06a28,61364f01b67e018604436357,"[""comma""]",0,[0.7824999999999704],21,0,21,0,1
,,,,,,,6059ccafffccc8edd37811ab,,,,,,6059ccafffccc8edd37811ab,Kobieta,22,2021-09-06_19h34.33.012,rantool2,2021.1.4,Win32,60.19020104,6135e006383e6ea6c3d06a28,61364f01b67e018604436357,"[""period""]",0,[0.591100000143058],22,0,22,0,1
,,,,,,,6059ccafffccc8edd37811ab,,,,,,6059ccafffccc8edd37811ab,Kobieta,22,2021-09-06_19h34.33.012,rantool2,2021.1.4,Win32,60.19020104,6135e006383e6ea6c3d06a28,61364f01b67e018604436357,"[""period""]",0,[0.4175000000000182],23,0,23,0,1
,,,,,,,6059ccafffccc8edd37811ab,,,,,,6059ccafffccc8edd37811ab,Kobieta,22,2021-09-06_19h34.33.012,rantool2,2021.1.4,Win32,60.19020104,6135e006383e6ea6c3d06a28,61364f01b67e018604436357,"[""period""]",0,[0.4170999999046785],24,0,24,0,1
,,,,,,,6059ccafffccc8edd37811ab,,,,,,6059ccafffccc8edd37811ab,Kobieta,22,2021-09-06_19h34.33.012,rantool2,2021.1.4,Win32,60.19020104,6135e006383e6ea6c3d06a28,61364f01b67e018604436357,"[""comma""]",0,[0.321700000047656],25,0,25,0,1
,,,,,,,6059ccafffccc8edd37811ab,,,,,,6059ccafffccc8edd37811ab,Kobieta,22,2021-09-06_19h34.33.012,rantool2,2021.1.4,Win32,60.19020104,6135e006383e6ea6c3d06a28,61364f01b67e018604436357,"[""period""]",0,[0.35059999990460256],26,0,26,0,1
,,,,,,,6059ccafffccc8edd37811ab,,,,,,6059ccafffccc8edd37811ab,Kobieta,22,2021-09-06_19h34.33.012,rantool2,2021.1.4,Win32,60.19020104,6135e006383e6ea6c3d06a28,61364f01b67e018604436357,"[""comma""]",0,[0.01710000014304569],27,0,27,0,1
,,,,,,,6059ccafffccc8edd37811ab,,,,,,6059ccafffccc8edd37811ab,Kobieta,22,2021-09-06_19h34.33.012,rantool2,2021.1.4,Win32,60.19020104,6135e006383e6ea6c3d06a28,61364f01b67e018604436357,"[""comma""]",0,[0.4852999999523604],28,0,28,0,1
,,,,,,,6059ccafffccc8edd37811ab,,,,,,6059ccafffccc8edd37811ab,Kobieta,22,2021-09-06_19h34.33.012,rantool2,2021.1.4,Win32,60.19020104,6135e006383e6ea6c3d06a28,61364f01b67e018604436357,"[""comma""]",0,[0.49570000004763415],29,0,29,0,1
,,,,,,,6059ccafffccc8edd37811ab,,,,,,6059ccafffccc8edd37811ab,Kobieta,22,2021-09-06_19h34.33.012,rantool2,2021.1.4,Win32,60.19020104,6135e006383e6ea6c3d06a28,61364f01b67e018604436357,"[""period""]",0,[0.5002999999522899],30,0,30,0,1
,,,,,,,6059ccafffccc8edd37811ab,,,,,,6059ccafffccc8edd37811ab,Kobieta,22,2021-09-06_19h34.33.012,rantool2,2021.1.4,Win32,60.19020104,6135e006383e6ea6c3d06a28,61364f01b67e018604436357,"[""period""]",0,[0.546299999952339],31,0,31,0,1
,,,,,,,6059ccafffccc8edd37811ab,,,,,,6059ccafffccc8edd37811ab,Kobieta,22,2021-09-06_19h34.33.012,rantool2,2021.1.4,Win32,60.19020104,6135e006383e6ea6c3d06a28,61364f01b67e018604436357,"[""period""]",0,[0.44129999995232083],32,0,32,0,1
,,,,,,,6059ccafffccc8edd37811ab,,,,,,6059ccafffccc8edd37811ab,Kobieta,22,2021-09-06_19h34.33.012,rantool2,2021.1.4,Win32,60.19020104,6135e006383e6ea6c3d06a28,61364f01b67e018604436357,"[""comma""]",0,[0.6564999999999941],33,0,33,0,1
,,,,,,,6059ccafffccc8edd37811ab,,,,,,6059ccafffccc8edd37811ab,Kobieta,22,2021-09-06_19h34.33.012,rantool2,2021.1.4,Win32,60.19020104,6135e006383e6ea6c3d06a28,61364f01b67e018604436357,"[""period""]",0,[0.5160000000000196],34,0,34,0,1
,,,,,,,6059ccafffccc8edd37811ab,,,,,,6059ccafffccc8edd37811ab,Kobieta,22,2021-09-06_19h34.33.012,rantool2,2021.1.4,Win32,60.19020104,6135e006383e6ea6c3d06a28,61364f01b67e018604436357,"[""comma""]",0,[0.3337999999523049],35,0,35,0,1
,,,,,,,6059ccafffccc8edd37811ab,,,,,,6059ccafffccc8edd37811ab,Kobieta,22,2021-09-06_19h34.33.012,rantool2,2021.1.4,Win32,60.19020104,6135e006383e6ea6c3d06a28,61364f01b67e018604436357,"[""period""]",0,[0.16720000004767144],36,0,36,0,1
,,,,,,,6059ccafffccc8edd37811ab,,,,,,6059ccafffccc8edd37811ab,Kobieta,22,2021-09-06_19h34.33.012,rantool2,2021.1.4,Win32,60.19020104,6135e006383e6ea6c3d06a28,61364f01b67e018604436357,"[""period""]",0,[0.5675999999046439],37,0,37,0,1
,,,,,,,6059ccafffccc8edd37811ab,,,,,,6059ccafffccc8edd37811ab,Kobieta,22,2021-09-06_19h34.33.012,rantool2,2021.1.4,Win32,60.19020104,6135e006383e6ea6c3d06a28,61364f01b67e018604436357,"[""comma""]",0,[0.7914000000953934],38,0,38,0,1
,,,,,,,6059ccafffccc8edd37811ab,,,,,,6059ccafffccc8edd37811ab,Kobieta,22,2021-09-06_19h34.33.012,rantool2,2021.1.4,Win32,60.19020104,6135e006383e6ea6c3d06a28,61364f01b67e018604436357,"[""comma""]",0,[0.5515000000000327],39,0,39,0,1
,,,,,,,6059ccafffccc8edd37811ab,,,,,,6059ccafffccc8edd37811ab,Kobieta,22,2021-09-06_19h34.33.012,rantool2,2021.1.4,Win32,60.19020104,6135e006383e6ea6c3d06a28,61364f01b67e018604436357,"[""comma""]",0,[0.5794999999999959],40,0,40,0,1
,,,,,,,6059ccafffccc8edd37811ab,,,,,,6059ccafffccc8edd37811ab,Kobieta,22,2021-09-06_19h34.33.012,rantool2,2021.1.4,Win32,60.19020104,6135e006383e6ea6c3d06a28,61364f01b67e018604436357,"[""comma""]",0,[0.3694999999999595],41,0,41,0,1
,,,,,,,6059ccafffccc8edd37811ab,,,,,,6059ccafffccc8edd37811ab,Kobieta,22,2021-09-06_19h34.33.012,rantool2,2021.1.4,Win32,60.19020104,6135e006383e6ea6c3d06a28,61364f01b67e018604436357,"[""period""]",0,[0.7485999999046271],42,0,42,0,1
,,,,,,,6059ccafffccc8edd37811ab,,,,,,6059ccafffccc8edd37811ab,Kobieta,22,2021-09-06_19h34.33.012,rantool2,2021.1.4,Win32,60.19020104,6135e006383e6ea6c3d06a28,61364f01b67e018604436357,"[""period""]",0,[0.9682999999523076],43,0,43,0,1
,,,,,,,6059ccafffccc8edd37811ab,,,,,,6059ccafffccc8edd37811ab,Kobieta,22,2021-09-06_19h34.33.012,rantool2,2021.1.4,Win32,60.19020104,6135e006383e6ea6c3d06a28,61364f01b67e018604436357,"[""comma""]",0,[0.6477000000476778],44,0,44,0,1
,,,,,,,6059ccafffccc8edd37811ab,,,,,,6059ccafffccc8edd37811ab,Kobieta,22,2021-09-06_19h34.33.012,rantool2,2021.1.4,Win32,60.19020104,6135e006383e6ea6c3d06a28,61364f01b67e018604436357,"[""period""]",0,[0.5854000000953761],45,0,45,0,1
,,,,,,,6059ccafffccc8edd37811ab,,,,,,6059ccafffccc8edd37811ab,Kobieta,22,2021-09-06_19h34.33.012,rantool2,2021.1.4,Win32,60.19020104,6135e006383e6ea6c3d06a28,61364f01b67e018604436357,"[""comma""]",0,[0.6168999998569689],46,0,46,0,1
,,,,,,,6059ccafffccc8edd37811ab,,,,,,6059ccafffccc8edd37811ab,Kobieta,22,2021-09-06_19h34.33.012,rantool2,2021.1.4,Win32,60.19020104,6135e006383e6ea6c3d06a28,61364f01b67e018604436357,"[""period""]",0,[0.6381000001430266],47,0,47,0,1
,,,,,,,6059ccafffccc8edd37811ab,,,,,,6059ccafffccc8edd37811ab,Kobieta,22,2021-09-06_19h34.33.012,rantool2,2021.1.4,Win32,60.19020104,6135e006383e6ea6c3d06a28,61364f01b67e018604436357,"[""comma""]",0,[0.952100000143048],48,0,48,0,1
,,,,,,,6059ccafffccc8edd37811ab,,,,,,6059ccafffccc8edd37811ab,Kobieta,22,2021-09-06_19h34.33.012,rantool2,2021.1.4,Win32,60.19020104,6135e006383e6ea6c3d06a28,61364f01b67e018604436357,"[""period""]",0,[0.6112999999523367],49,0,49,0,1
,,,,,,,6059ccafffccc8edd37811ab,,,,,,6059ccafffccc8edd37811ab,Kobieta,22,2021-09-06_19h34.33.012,rantool2,2021.1.4,Win32,60.19020104,6135e006383e6ea6c3d06a28,61364f01b67e018604436357,"[""period""]",0,[0.28340000009535515],50,0,50,0,1
,,,,,,,6059ccafffccc8edd37811ab,,,,,,6059ccafffccc8edd37811ab,Kobieta,22,2021-09-06_19h34.33.012,rantool2,2021.1.4,Win32,60.19020104,6135e006383e6ea6c3d06a28,61364f01b67e018604436357,"[""period""]",0,[0.36710000014306843],51,0,51,0,1
,,,,,,,6059ccafffccc8edd37811ab,,,,,,6059ccafffccc8edd37811ab,Kobieta,22,2021-09-06_19h34.33.012,rantool2,2021.1.4,Win32,60.19020104,6135e006383e6ea6c3d06a28,61364f01b67e018604436357,"[""comma""]",0,[0.3564999999999827],52,0,52,0,1
,,,,,,,6059ccafffccc8edd37811ab,,,,,,6059ccafffccc8edd37811ab,Kobieta,22,2021-09-06_19h34.33.012,rantool2,2021.1.4,Win32,60.19020104,6135e006383e6ea6c3d06a28,61364f01b67e018604436357,"[""period""]",0,[0.37350000000003547],53,0,53,0,1
,,,,,,,6059ccafffccc8edd37811ab,,,,,,6059ccafffccc8edd37811ab,Kobieta,22,2021-09-06_19h34.33.012,rantool2,2021.1.4,Win32,60.19020104,6135e006383e6ea6c3d06a28,61364f01b67e018604436357,"[""comma""]",0,[0.3739999999999668],54,0,54,0,1
,,,,,,,6059ccafffccc8edd37811ab,,,,,,6059ccafffccc8edd37811ab,Kobieta,22,2021-09-06_19h34.33.012,rantool2,2021.1.4,Win32,60.19020104,6135e006383e6ea6c3d06a28,61364f01b67e018604436357,"[""comma""]",0,[0.20620000004771555],55,0,55,0,1
,,,,,,,6059ccafffccc8edd37811ab,,,,,,6059ccafffccc8edd37811ab,Kobieta,22,2021-09-06_19h34.33.012,rantool2,2021.1.4,Win32,60.19020104,6135e006383e6ea6c3d06a28,61364f01b67e018604436357,"[""period""]",0,[0.34850000000000136],56,0,56,0,1
,,,,,,,6059ccafffccc8edd37811ab,,,,,,6059ccafffccc8edd37811ab,Kobieta,22,2021-09-06_19h34.33.012,rantool2,2021.1.4,Win32,60.19020104,6135e006383e6ea6c3d06a28,61364f01b67e018604436357,"[""period""]",0,[0.18370000004767917],57,0,57,0,1
,,,,,,,6059ccafffccc8edd37811ab,,,,,,6059ccafffccc8edd37811ab,Kobieta,22,2021-09-06_19h34.33.012,rantool2,2021.1.4,Win32,60.19020104,6135e006383e6ea6c3d06a28,61364f01b67e018604436357,"[""comma""]",0,[0.20299999999997453],58,0,58,0,1
,,,,,,,6059ccafffccc8edd37811ab,,,,,,6059ccafffccc8edd37811ab,Kobieta,22,2021-09-06_19h34.33.012,rantool2,2021.1.4,Win32,60.19020104,6135e006383e6ea6c3d06a28,61364f01b67e018604436357,"[""comma""]",0,[0.35000000000002274],59,0,59,0,1
,,,,,,,6059ccafffccc8edd37811ab,,,,,,6059ccafffccc8edd37811ab,Kobieta,22,2021-09-06_19h34.33.012,rantool2,2021.1.4,Win32,60.19020104,6135e006383e6ea6c3d06a28,61364f01b67e018604436357,"[""comma""]",0,[0.4640999999046471],60,0,60,0,1
,,,,,,,6059ccafffccc8edd37811ab,,,,,,6059ccafffccc8edd37811ab,Kobieta,22,2021-09-06_19h34.33.012,rantool2,2021.1.4,Win32,60.19020104,6135e006383e6ea6c3d06a28,61364f01b67e018604436357,"[""period""]",0,[0.46699999999998454],61,0,61,0,1
,,,,,,,6059ccafffccc8edd37811ab,,,,,,6059ccafffccc8edd37811ab,Kobieta,22,2021-09-06_19h34.33.012,rantool2,2021.1.4,Win32,60.19020104,6135e006383e6ea6c3d06a28,61364f01b67e018604436357,"[""period""]",0,[0.24770000004770054],62,0,62,0,1
,,,,,,,6059ccafffccc8edd37811ab,,,,,,6059ccafffccc8edd37811ab,Kobieta,22,2021-09-06_19h34.33.012,rantool2,2021.1.4,Win32,60.19020104,6135e006383e6ea6c3d06a28,61364f01b67e018604436357,"[""comma"",""period""]",0,"[0.1346000001430525,1.8541000001430348]",63,0,63,0,1
,,,,,,,6059ccafffccc8edd37811ab,,,,,,6059ccafffccc8edd37811ab,Kobieta,22,2021-09-06_19h34.33.012,rantool2,2021.1.4,Win32,60.19020104,6135e006383e6ea6c3d06a28,61364f01b67e018604436357,0,0,,64,0,64,0,1
,,,,,,,6059ccafffccc8edd37811ab,,,,,,6059ccafffccc8edd37811ab,Kobieta,22,2021-09-06_19h34.33.012,rantool2,2021.1.4,Win32,60.19020104,6135e006383e6ea6c3d06a28,61364f01b67e018604436357,"[""comma""]",0,[0.3517999999522772],65,0,65,0,1
,,,,,,,6059ccafffccc8edd37811ab,,,,,,6059ccafffccc8edd37811ab,Kobieta,22,2021-09-06_19h34.33.012,rantool2,2021.1.4,Win32,60.19020104,6135e006383e6ea6c3d06a28,61364f01b67e018604436357,"[""comma""]",0,[0.3849999999999909],66,0,66,0,1
,,,,,,,6059ccafffccc8edd37811ab,,,,,,6059ccafffccc8edd37811ab,Kobieta,22,2021-09-06_19h34.33.012,rantool2,2021.1.4,Win32,60.19020104,6135e006383e6ea6c3d06a28,61364f01b67e018604436357,"[""period""]",0,[0.5162999999523095],67,0,67,0,1
,,,,,,,6059ccafffccc8edd37811ab,,,,,,6059ccafffccc8edd37811ab,Kobieta,22,2021-09-06_19h34.33.012,rantool2,2021.1.4,Win32,60.19020104,6135e006383e6ea6c3d06a28,61364f01b67e018604436357,"[""comma""]",0,[0.4524000000953379],68,0,68,0,1
,,,,,,,6059ccafffccc8edd37811ab,,,,,,6059ccafffccc8edd37811ab,Kobieta,22,2021-09-06_19h34.33.012,rantool2,2021.1.4,Win32,60.19020104,6135e006383e6ea6c3d06a28,61364f01b67e018604436357,"[""period""]",0,[0.39920000004764233],69,0,69,0,1
,,,,,,,6059ccafffccc8edd37811ab,,,,,,6059ccafffccc8edd37811ab,Kobieta,22,2021-09-06_19h34.33.012,rantool2,2021.1.4,Win32,60.19020104,6135e006383e6ea6c3d06a28,61364f01b67e018604436357,"[""period""]",0,[0.3279000000953829],70,0,70,0,1
,,,,,,,6059ccafffccc8edd37811ab,,,,,,6059ccafffccc8edd37811ab,Kobieta,22,2021-09-06_19h34.33.012,rantool2,2021.1.4,Win32,60.19020104,6135e006383e6ea6c3d06a28,61364f01b67e018604436357,"[""period""]",0,[0.3592000000476787],71,0,71,0,1
,,,,,,,6059ccafffccc8edd37811ab,,,,,,6059ccafffccc8edd37811ab,Kobieta,22,2021-09-06_19h34.33.012,rantool2,2021.1.4,Win32,60.19020104,6135e006383e6ea6c3d06a28,61364f01b67e018604436357,"[""period""]",0,[0.33560000014307434],72,0,72,0,1
,,,,,,,6059ccafffccc8edd37811ab,,,,,,6059ccafffccc8edd37811ab,Kobieta,22,2021-09-06_19h34.33.012,rantool2,2021.1.4,Win32,60.19020104,6135e006383e6ea6c3d06a28,61364f01b67e018604436357,"[""comma""]",0,[0.3335999999046635],73,0,73,0,1
,,,,,,,6059ccafffccc8edd37811ab,,,,,,6059ccafffccc8edd37811ab,Kobieta,22,2021-09-06_19h34.33.012,rantool2,2021.1.4,Win32,60.19020104,6135e006383e6ea6c3d06a28,61364f01b67e018604436357,"[""period""]",0,[0.35020000004766416],74,0,74,0,1
,,,,,,,6059ccafffccc8edd37811ab,,,,,,6059ccafffccc8edd37811ab,Kobieta,22,2021-09-06_19h34.33.012,rantool2,2021.1.4,Win32,60.19020104,6135e006383e6ea6c3d06a28,61364f01b67e018604436357,"[""comma""]",0,[0.35020000004766416],75,0,75,0,1
,,,,,,,6059ccafffccc8edd37811ab,,,,,,6059ccafffccc8edd37811ab,Kobieta,22,2021-09-06_19h34.33.012,rantool2,2021.1.4,Win32,60.19020104,6135e006383e6ea6c3d06a28,61364f01b67e018604436357,"[""comma""]",0,[0.2782999999523099],76,0,76,0,1
,,,,,,,6059ccafffccc8edd37811ab,,,,,,6059ccafffccc8edd37811ab,Kobieta,22,2021-09-06_19h34.33.012,rantool2,2021.1.4,Win32,60.19020104,6135e006383e6ea6c3d06a28,61364f01b67e018604436357,"[""period""]",0,[0.8212999999523163],77,0,77,0,1
,,,,,,,6059ccafffccc8edd37811ab,,,,,,6059ccafffccc8edd37811ab,Kobieta,22,2021-09-06_19h34.33.012,rantool2,2021.1.4,Win32,60.19020104,6135e006383e6ea6c3d06a28,61364f01b67e018604436357,"[""comma""]",0,[0.6988999998569625],78,0,78,0,1
,,,,,,,6059ccafffccc8edd37811ab,,,,,,6059ccafffccc8edd37811ab,Kobieta,22,2021-09-06_19h34.33.012,rantool2,2021.1.4,Win32,60.19020104,6135e006383e6ea6c3d06a28,61364f01b67e018604436357,"[""comma""]",0,[1.101600000143037],79,0,79,0,1
,,,,,,,6059ccafffccc8edd37811ab,,,,,,6059ccafffccc8edd37811ab,Kobieta,22,2021-09-06_19h34.33.012,rantool2,2021.1.4,Win32,60.19020104,6135e006383e6ea6c3d06a28,61364f01b67e018604436357,"[""period""]",0,[0.6731999998092988],80,0,80,0,1
,,,,,,,6059ccafffccc8edd37811ab,,,,,,6059ccafffccc8edd37811ab,Kobieta,22,2021-09-06_19h34.33.012,rantool2,2021.1.4,Win32,60.19020104,6135e006383e6ea6c3d06a28,61364f01b67e018604436357,"[""period""]",0,[0.4672000000476828],81,0,81,0,1
,,,,,,,6059ccafffccc8edd37811ab,,,,,,6059ccafffccc8edd37811ab,Kobieta,22,2021-09-06_19h34.33.012,rantool2,2021.1.4,Win32,60.19020104,6135e006383e6ea6c3d06a28,61364f01b67e018604436357,"[""comma""]",0,[0.5974999999999682],82,0,82,0,1
,,,,,,,6059ccafffccc8edd37811ab,,,,,,6059ccafffccc8edd37811ab,Kobieta,22,2021-09-06_19h34.33.012,rantool2,2021.1.4,Win32,60.19020104,6135e006383e6ea6c3d06a28,61364f01b67e018604436357,"[""period""]",0,[0.5863999998569511],83,0,83,0,1
,,,,,,,6059ccafffccc8edd37811ab,,,,,,6059ccafffccc8edd37811ab,Kobieta,22,2021-09-06_19h34.33.012,rantool2,2021.1.4,Win32,60.19020104,6135e006383e6ea6c3d06a28,61364f01b67e018604436357,"[""period""]",0,[0.3879000000953283],84,0,84,0,1
,,,,,,,6059ccafffccc8edd37811ab,,,,,,6059ccafffccc8edd37811ab,Kobieta,22,2021-09-06_19h34.33.012,rantool2,2021.1.4,Win32,60.19020104,6135e006383e6ea6c3d06a28,61364f01b67e018604436357,"[""period""]",0,[0.45050000000003365],85,0,85,0,1
,,,,,,,6059ccafffccc8edd37811ab,,,,,,6059ccafffccc8edd37811ab,Kobieta,22,2021-09-06_19h34.33.012,rantool2,2021.1.4,Win32,60.19020104,6135e006383e6ea6c3d06a28,61364f01b67e018604436357,"[""comma""]",0,[0.5395999999046239],86,0,86,0,1
,,,,,,,6059ccafffccc8edd37811ab,,,,,,6059ccafffccc8edd37811ab,Kobieta,22,2021-09-06_19h34.33.012,rantool2,2021.1.4,Win32,60.19020104,6135e006383e6ea6c3d06a28,61364f01b67e018604436357,"[""period""]",0,[0.4334999999999809],87,0,87,0,1
,,,,,,,6059ccafffccc8edd37811ab,,,,,,6059ccafffccc8edd37811ab,Kobieta,22,2021-09-06_19h34.33.012,rantool2,2021.1.4,Win32,60.19020104,6135e006383e6ea6c3d06a28,61364f01b67e018604436357,"[""period""]",0,[0.10070000004770918],88,0,88,0,1
,,,,,,,6059ccafffccc8edd37811ab,,,,,,6059ccafffccc8edd37811ab,Kobieta,22,2021-09-06_19h34.33.012,rantool2,2021.1.4,Win32,60.19020104,6135e006383e6ea6c3d06a28,61364f01b67e018604436357,"[""period""]",0,[0.08400000000000318],89,0,89,0,1
,,,,,,,6059ccafffccc8edd37811ab,,,,,,6059ccafffccc8edd37811ab,Kobieta,22,2021-09-06_19h34.33.012,rantool2,2021.1.4,Win32,60.19020104,6135e006383e6ea6c3d06a28,61364f01b67e018604436357,"[""period""]",0,[0.4336000001430307],90,0,90,0,1
,,,,,,,6059ccafffccc8edd37811ab,,,,,,6059ccafffccc8edd37811ab,Kobieta,22,2021-09-06_19h34.33.012,rantool2,2021.1.4,Win32,60.19020104,6135e006383e6ea6c3d06a28,61364f01b67e018604436357,"[""period""]",0,[0.446099999904618],91,0,91,0,1
,,,,,,,6059ccafffccc8edd37811ab,,,,,,6059ccafffccc8edd37811ab,Kobieta,22,2021-09-06_19h34.33.012,rantool2,2021.1.4,Win32,60.19020104,6135e006383e6ea6c3d06a28,61364f01b67e018604436357,"[""comma""]",0,[0.3394999999999868],92,0,92,0,1
,,,,,,,6059ccafffccc8edd37811ab,,,,,,6059ccafffccc8edd37811ab,Kobieta,22,2021-09-06_19h34.33.012,rantool2,2021.1.4,Win32,60.19020104,6135e006383e6ea6c3d06a28,61364f01b67e018604436357,"[""period""]",0,[0.4161000001430466],93,0,93,0,1
,,,,,,,6059ccafffccc8edd37811ab,,,,,,6059ccafffccc8edd37811ab,Kobieta,22,2021-09-06_19h34.33.012,rantool2,2021.1.4,Win32,60.19020104,6135e006383e6ea6c3d06a28,61364f01b67e018604436357,"[""comma""]",0,[0.16739999985691156],94,0,94,0,1
,,,,,,,6059ccafffccc8edd37811ab,,,,,,6059ccafffccc8edd37811ab,Kobieta,22,2021-09-06_19h34.33.012,rantool2,2021.1.4,Win32,60.19020104,6135e006383e6ea6c3d06a28,61364f01b67e018604436357,"[""period""]",0,[0.3439000000953456],95,0,95,0,1
,,,,,,,6059ccafffccc8edd37811ab,,,,,,6059ccafffccc8edd37811ab,Kobieta,22,2021-09-06_19h34.33.012,rantool2,2021.1.4,Win32,60.19020104,6135e006383e6ea6c3d06a28,61364f01b67e018604436357,"[""comma""]",0,[0.33260000014297475],96,0,96,0,1
,,,,,,,6059ccafffccc8edd37811ab,,,,,,6059ccafffccc8edd37811ab,Kobieta,22,2021-09-06_19h34.33.012,rantool2,2021.1.4,Win32,60.19020104,6135e006383e6ea6c3d06a28,61364f01b67e018604436357,"[""comma""]",0,[0.23420000004773556],97,0,97,0,1
,,,,,,,6059ccafffccc8edd37811ab,,,,,,6059ccafffccc8edd37811ab,Kobieta,22,2021-09-06_19h34.33.012,rantool2,2021.1.4,Win32,60.19020104,6135e006383e6ea6c3d06a28,61364f01b67e018604436357,"[""comma""]",0,[0.33809999990467077],98,0,98,0,1
,,,,,,,6059ccafffccc8edd37811ab,,,,,,6059ccafffccc8edd37811ab,Kobieta,22,2021-09-06_19h34.33.012,rantool2,2021.1.4,Win32,60.19020104,6135e006383e6ea6c3d06a28,61364f01b67e018604436357,"[""comma""]",0,[0.3338999998569534],99,0,99,0,1
,,,,,,,6059ccafffccc8edd37811ab,,,,,,6059ccafffccc8edd37811ab,Kobieta,22,2021-09-06_19h34.33.012,rantool2,2021.1.4,Win32,60.19020104,6135e006383e6ea6c3d06a28,61364f01b67e018604436357,"[""period""]",0,[0.3669999999999618],100,0,100,0,1
,,,,,,,6059ccafffccc8edd37811ab,,,,,,6059ccafffccc8edd37811ab,Kobieta,22,2021-09-06_19h34.33.012,rantool2,2021.1.4,Win32,60.19020104,6135e006383e6ea6c3d06a28,61364f01b67e018604436357,"[""period"",""comma""]",0,"[0.38510000014309753,1.9112999999523481]",101,0,101,0,1
,,,,,,,6059ccafffccc8edd37811ab,,,,,,6059ccafffccc8edd37811ab,Kobieta,22,2021-09-06_19h34.33.012,rantool2,2021.1.4,Win32,60.19020104,6135e006383e6ea6c3d06a28,61364f01b67e018604436357,"[""period""]",0,[1.9012000000476519],102,0,102,0,1
,,,,,,,6059ccafffccc8edd37811ab,,,,,,6059ccafffccc8edd37811ab,Kobieta,22,2021-09-06_19h34.33.012,rantool2,2021.1.4,Win32,60.19020104,6135e006383e6ea6c3d06a28,61364f01b67e018604436357,0,0,,103,0,103,0,1
,,,,,,,6059ccafffccc8edd37811ab,,,,,,6059ccafffccc8edd37811ab,Kobieta,22,2021-09-06_19h34.33.012,rantool2,2021.1.4,Win32,60.19020104,6135e006383e6ea6c3d06a28,61364f01b67e018604436357,"[""comma""]",0,[0.41570000004765006],104,0,104,0,1
,,,,,,,6059ccafffccc8edd37811ab,,,,,,6059ccafffccc8edd37811ab,Kobieta,22,2021-09-06_19h34.33.012,rantool2,2021.1.4,Win32,60.19020104,6135e006383e6ea6c3d06a28,61364f01b67e018604436357,"[""comma""]",0,[0.4395000000000664],105,0,105,0,1
,,,,,,,6059ccafffccc8edd37811ab,,,,,,6059ccafffccc8edd37811ab,Kobieta,22,2021-09-06_19h34.33.012,rantool2,2021.1.4,Win32,60.19020104,6135e006383e6ea6c3d06a28,61364f01b67e018604436357,"[""comma""]",0,[0.35379999995234357],106,0,106,0,1
,,,,,,,6059ccafffccc8edd37811ab,,,,,,6059ccafffccc8edd37811ab,Kobieta,22,2021-09-06_19h34.33.012,rantool2,2021.1.4,Win32,60.19020104,6135e006383e6ea6c3d06a28,61364f01b67e018604436357,"[""period""]",0,[0.10050000000001091],107,0,107,0,1
,,,,,,,6059ccafffccc8edd37811ab,,,,,,6059ccafffccc8edd37811ab,Kobieta,22,2021-09-06_19h34.33.012,rantool2,2021.1.4,Win32,60.19020104,6135e006383e6ea6c3d06a28,61364f01b67e018604436357,"[""period""]",0,[0.051400000095327414],108,0,108,0,1
,,,,,,,6059ccafffccc8edd37811ab,,,,,,6059ccafffccc8edd37811ab,Kobieta,22,2021-09-06_19h34.33.012,rantool2,2021.1.4,Win32,60.19020104,6135e006383e6ea6c3d06a28,61364f01b67e018604436357,"[""period""]",0,[0.4526999998092833],109,0,109,0,1
,,,,,,,6059ccafffccc8edd37811ab,,,,,,6059ccafffccc8edd37811ab,Kobieta,22,2021-09-06_19h34.33.012,rantool2,2021.1.4,Win32,60.19020104,6135e006383e6ea6c3d06a28,61364f01b67e018604436357,"[""period""]",0,[0.41589999985694703],110,0,110,0,1
,,,,,,,6059ccafffccc8edd37811ab,,,,,,6059ccafffccc8edd37811ab,Kobieta,22,2021-09-06_19h34.33.012,rantool2,2021.1.4,Win32,60.19020104,6135e006383e6ea6c3d06a28,61364f01b67e018604436357,"[""comma""]",0,[0.20150000000001],111,0,111,0,1
,,,,,,,6059ccafffccc8edd37811ab,,,,,,6059ccafffccc8edd37811ab,Kobieta,22,2021-09-06_19h34.33.012,rantool2,2021.1.4,Win32,60.19020104,6135e006383e6ea6c3d06a28,61364f01b67e018604436357,"[""period""]",0,[0.26870000004771555],112,0,112,0,1
,,,,,,,6059ccafffccc8edd37811ab,,,,,,6059ccafffccc8edd37811ab,Kobieta,22,2021-09-06_19h34.33.012,rantool2,2021.1.4,Win32,60.19020104,6135e006383e6ea6c3d06a28,61364f01b67e018604436357,"[""period""]",0,[0.05070000004764097],113,0,113,0,1
,,,,,,,6059ccafffccc8edd37811ab,,,,,,6059ccafffccc8edd37811ab,Kobieta,22,2021-09-06_19h34.33.012,rantool2,2021.1.4,Win32,60.19020104,6135e006383e6ea6c3d06a28,61364f01b67e018604436357,"[""comma""]",0,[0.6671999998092133],114,0,114,0,1
,,,,,,,6059ccafffccc8edd37811ab,,,,,,6059ccafffccc8edd37811ab,Kobieta,22,2021-09-06_19h34.33.012,rantool2,2021.1.4,Win32,60.19020104,6135e006383e6ea6c3d06a28,61364f01b67e018604436357,"[""comma""]",0,[0.5210999999045498],115,0,115,0,1
,,,,,,,6059ccafffccc8edd37811ab,,,,,,6059ccafffccc8edd37811ab,Kobieta,22,2021-09-06_19h34.33.012,rantool2,2021.1.4,Win32,60.19020104,6135e006383e6ea6c3d06a28,61364f01b67e018604436357,"[""period""]",0,[0.383599999904618],116,0,116,0,1
,,,,,,,6059ccafffccc8edd37811ab,,,,,,6059ccafffccc8edd37811ab,Kobieta,22,2021-09-06_19h34.33.012,rantool2,2021.1.4,Win32,60.19020104,6135e006383e6ea6c3d06a28,61364f01b67e018604436357,"[""period""]",0,[0.718700000047761],117,0,117,0,1
,,,,,,,6059ccafffccc8edd37811ab,,,,,,6059ccafffccc8edd37811ab,Kobieta,22,2021-09-06_19h34.33.012,rantool2,2021.1.4,Win32,60.19020104,6135e006383e6ea6c3d06a28,61364f01b67e018604436357,"[""comma""]",0,[1.0168999998569461],118,0,118,0,1
,,,,,,,6059ccafffccc8edd37811ab,,,,,,6059ccafffccc8edd37811ab,Kobieta,22,2021-09-06_19h34.33.012,rantool2,2021.1.4,Win32,60.19020104,6135e006383e6ea6c3d06a28,61364f01b67e018604436357,"[""period""]",0,[0.6822000000477146],119,0,119,0,1
