key_resp_7.keys,key_resp_7.rt,trials_2.thisRepN,trials_2.thisTrialN,trials_2.thisN,trials_2.thisIndex,trials_2.ran,id,series_0,series_1,acss_0,acss_1,comparison,id*,Płeć*,Wiek*,date,expName,psychopyVersion,OS,frameRate,STUDY_ID,SESSION_ID,key_resp_5.keys,key_resp_5.corr,key_resp_5.rt,trials.thisRepN,trials.thisTrialN,trials.thisN,trials.thisIndex,trials.ran
f,3.2419,0,0,0,18,1,61115c3a1e102dd290e754d6,OROOROO,OROOROR,20.84860893,21.22513037,series_1,61115c3a1e102dd290e754d6,Kobieta,18,2021-09-06_19h04.04.475,rantool2,2021.1.4,Win32,60.80136195,6135e006383e6ea6c3d06a28,61364958c8aa96abf0bb02c6,,,,,,,,
j,3.7649,0,1,1,59,1,61115c3a1e102dd290e754d6,RRRORRO,RRRORRR,21.56657303,20.89823192,series_0,61115c3a1e102dd290e754d6,Kobieta,18,2021-09-06_19h04.04.475,rantool2,2021.1.4,Win32,60.80136195,6135e006383e6ea6c3d06a28,61364958c8aa96abf0bb02c6,,,,,,,,
j,1.837,0,2,2,42,1,61115c3a1e102dd290e754d6,ROROROO,ROROROR,20.39515459,19.8361834,series_0,61115c3a1e102dd290e754d6,Kobieta,18,2021-09-06_19h04.04.475,rantool2,2021.1.4,Win32,60.80136195,6135e006383e6ea6c3d06a28,61364958c8aa96abf0bb02c6,,,,,,,,
f,2.9236,0,3,3,39,1,61115c3a1e102dd290e754d6,ROORRRO,ROORRRR,21.82425538,21.38562617,series_0,61115c3a1e102dd290e754d6,Kobieta,18,2021-09-06_19h04.04.475,rantool2,2021.1.4,Win32,60.80136195,6135e006383e6ea6c3d06a28,61364958c8aa96abf0bb02c6,,,,,,,,
j,2.2271,0,4,4,7,1,61115c3a1e102dd290e754d6,OOORRRO,OOORRRR,21.6194508,21.899017,series_1,61115c3a1e102dd290e754d6,Kobieta,18,2021-09-06_19h04.04.475,rantool2,2021.1.4,Win32,60.80136195,6135e006383e6ea6c3d06a28,61364958c8aa96abf0bb02c6,,,,,,,,
j,1.5339,0,5,5,51,1,61115c3a1e102dd290e754d6,RROORRO,RROORRR,21.89852628,22.02786418,series_1,61115c3a1e102dd290e754d6,Kobieta,18,2021-09-06_19h04.04.475,rantool2,2021.1.4,Win32,60.80136195,6135e006383e6ea6c3d06a28,61364958c8aa96abf0bb02c6,,,,,,,,
f,2.9578,0,6,6,17,1,61115c3a1e102dd290e754d6,OROOORO,OROOORR,21.03750787,22.12173012,series_1,61115c3a1e102dd290e754d6,Kobieta,18,2021-09-06_19h04.04.475,rantool2,2021.1.4,Win32,60.80136195,6135e006383e6ea6c3d06a28,61364958c8aa96abf0bb02c6,,,,,,,,
f,2.1784,0,7,7,29,1,61115c3a1e102dd290e754d6,ORRRORO,ORRRORR,22.00300695,22.12173012,series_1,61115c3a1e102dd290e754d6,Kobieta,18,2021-09-06_19h04.04.475,rantool2,2021.1.4,Win32,60.80136195,6135e006383e6ea6c3d06a28,61364958c8aa96abf0bb02c6,,,,,,,,
f,3.9266,0,8,8,35,1,61115c3a1e102dd290e754d6,ROOORRO,ROOORRR,21.76276513,22.16977179,series_1,61115c3a1e102dd290e754d6,Kobieta,18,2021-09-06_19h04.04.475,rantool2,2021.1.4,Win32,60.80136195,6135e006383e6ea6c3d06a28,61364958c8aa96abf0bb02c6,,,,,,,,
j,2.5709,0,9,9,53,1,61115c3a1e102dd290e754d6,RRORORO,RRORORR,20.71309134,21.90565814,series_1,61115c3a1e102dd290e754d6,Kobieta,18,2021-09-06_19h04.04.475,rantool2,2021.1.4,Win32,60.80136195,6135e006383e6ea6c3d06a28,61364958c8aa96abf0bb02c6,,,,,,,,
j,0.9582,0,10,10,50,1,61115c3a1e102dd290e754d6,RROOROO,RROOROR,21.73568164,22.02566557,series_1,61115c3a1e102dd290e754d6,Kobieta,18,2021-09-06_19h04.04.475,rantool2,2021.1.4,Win32,60.80136195,6135e006383e6ea6c3d06a28,61364958c8aa96abf0bb02c6,,,,,,,,
f,1.991,0,11,11,11,1,61115c3a1e102dd290e754d6,OORORRO,OORORRR,22.18365867,22.6797523,series_1,61115c3a1e102dd290e754d6,Kobieta,18,2021-09-06_19h04.04.475,rantool2,2021.1.4,Win32,60.80136195,6135e006383e6ea6c3d06a28,61364958c8aa96abf0bb02c6,,,,,,,,
j,2.8224,0,12,12,6,1,61115c3a1e102dd290e754d6,OOORROO,OOORROR,21.12383932,21.38562617,series_1,61115c3a1e102dd290e754d6,Kobieta,18,2021-09-06_19h04.04.475,rantool2,2021.1.4,Win32,60.80136195,6135e006383e6ea6c3d06a28,61364958c8aa96abf0bb02c6,,,,,,,,
f,1.2173,0,13,13,36,1,61115c3a1e102dd290e754d6,ROOROOO,ROOROOR,21.07991943,20.9984461,series_0,61115c3a1e102dd290e754d6,Kobieta,18,2021-09-06_19h04.04.475,rantool2,2021.1.4,Win32,60.80136195,6135e006383e6ea6c3d06a28,61364958c8aa96abf0bb02c6,,,,,,,,
f,2.3176,0,14,14,24,1,61115c3a1e102dd290e754d6,ORROOOO,ORROOOR,21.12383932,22.07102821,series_1,61115c3a1e102dd290e754d6,Kobieta,18,2021-09-06_19h04.04.475,rantool2,2021.1.4,Win32,60.80136195,6135e006383e6ea6c3d06a28,61364958c8aa96abf0bb02c6,,,,,,,,
j,1.4249,0,15,15,27,1,61115c3a1e102dd290e754d6,ORRORRO,ORRORRR,21.55250791,22.2428857,series_1,61115c3a1e102dd290e754d6,Kobieta,18,2021-09-06_19h04.04.475,rantool2,2021.1.4,Win32,60.80136195,6135e006383e6ea6c3d06a28,61364958c8aa96abf0bb02c6,,,,,,,,
f,3.1749,0,16,16,4,1,61115c3a1e102dd290e754d6,OOOROOO,OOOROOR,19.91402015,21.21223021,series_1,61115c3a1e102dd290e754d6,Kobieta,18,2021-09-06_19h04.04.475,rantool2,2021.1.4,Win32,60.80136195,6135e006383e6ea6c3d06a28,61364958c8aa96abf0bb02c6,,,,,,,,
j,3.7154,0,17,17,22,1,61115c3a1e102dd290e754d6,ORORROO,ORORROR,22.02732763,21.57657071,series_0,61115c3a1e102dd290e754d6,Kobieta,18,2021-09-06_19h04.04.475,rantool2,2021.1.4,Win32,60.80136195,6135e006383e6ea6c3d06a28,61364958c8aa96abf0bb02c6,,,,,,,,
j,3.1331,0,18,18,45,1,61115c3a1e102dd290e754d6,RORRORO,RORRORR,20.78182524,21.22513037,series_1,61115c3a1e102dd290e754d6,Kobieta,18,2021-09-06_19h04.04.475,rantool2,2021.1.4,Win32,60.80136195,6135e006383e6ea6c3d06a28,61364958c8aa96abf0bb02c6,,,,,,,,
f,0.9591,0,19,19,23,1,61115c3a1e102dd290e754d6,ORORRRO,ORORRRR,22.1285618,21.9921709,series_0,61115c3a1e102dd290e754d6,Kobieta,18,2021-09-06_19h04.04.475,rantool2,2021.1.4,Win32,60.80136195,6135e006383e6ea6c3d06a28,61364958c8aa96abf0bb02c6,,,,,,,,
f,2.5016,0,20,20,26,1,61115c3a1e102dd290e754d6,ORROROO,ORROROR,22.02732763,21.71443381,series_0,61115c3a1e102dd290e754d6,Kobieta,18,2021-09-06_19h04.04.475,rantool2,2021.1.4,Win32,60.80136195,6135e006383e6ea6c3d06a28,61364958c8aa96abf0bb02c6,,,,,,,,
j,1.982,0,21,21,48,1,61115c3a1e102dd290e754d6,RROOOOO,RROOOOR,20.90986523,22.15934078,series_1,61115c3a1e102dd290e754d6,Kobieta,18,2021-09-06_19h04.04.475,rantool2,2021.1.4,Win32,60.80136195,6135e006383e6ea6c3d06a28,61364958c8aa96abf0bb02c6,,,,,,,,
j,0.2164,0,22,22,12,1,61115c3a1e102dd290e754d6,OORROOO,OORROOR,21.30250474,22.02786418,series_1,61115c3a1e102dd290e754d6,Kobieta,18,2021-09-06_19h04.04.475,rantool2,2021.1.4,Win32,60.80136195,6135e006383e6ea6c3d06a28,61364958c8aa96abf0bb02c6,,,,,,,,
f,2.0612,0,23,23,3,1,61115c3a1e102dd290e754d6,OOOORRO,OOOORRR,20.90986523,21.74922619,series_1,61115c3a1e102dd290e754d6,Kobieta,18,2021-09-06_19h04.04.475,rantool2,2021.1.4,Win32,60.80136195,6135e006383e6ea6c3d06a28,61364958c8aa96abf0bb02c6,,,,,,,,
j,1.8486,0,24,24,15,1,61115c3a1e102dd290e754d6,OORRRRO,OORRRRR,22.10108823,21.74922619,series_0,61115c3a1e102dd290e754d6,Kobieta,18,2021-09-06_19h04.04.475,rantool2,2021.1.4,Win32,60.80136195,6135e006383e6ea6c3d06a28,61364958c8aa96abf0bb02c6,,,,,,,,
j,3.1644,0,25,25,52,1,61115c3a1e102dd290e754d6,RROROOO,RROROOR,22.18365867,22.11097995,series_0,61115c3a1e102dd290e754d6,Kobieta,18,2021-09-06_19h04.04.475,rantool2,2021.1.4,Win32,60.80136195,6135e006383e6ea6c3d06a28,61364958c8aa96abf0bb02c6,,,,,,,,
j,0.7557,0,26,26,20,1,61115c3a1e102dd290e754d6,OROROOO,OROROOR,21.31236711,21.90565814,series_1,61115c3a1e102dd290e754d6,Kobieta,18,2021-09-06_19h04.04.475,rantool2,2021.1.4,Win32,60.80136195,6135e006383e6ea6c3d06a28,61364958c8aa96abf0bb02c6,,,,,,,,
f,0.9285,0,27,27,2,1,61115c3a1e102dd290e754d6,OOOOROO,OOOOROR,20.43051175,21.02936224,series_1,61115c3a1e102dd290e754d6,Kobieta,18,2021-09-06_19h04.04.475,rantool2,2021.1.4,Win32,60.80136195,6135e006383e6ea6c3d06a28,61364958c8aa96abf0bb02c6,,,,,,,,
f,2.9146,0,28,28,32,1,61115c3a1e102dd290e754d6,ROOOOOO,ROOOOOR,19.92253567,21.27974287,series_1,61115c3a1e102dd290e754d6,Kobieta,18,2021-09-06_19h04.04.475,rantool2,2021.1.4,Win32,60.80136195,6135e006383e6ea6c3d06a28,61364958c8aa96abf0bb02c6,,,,,,,,
f,2.2493,0,29,29,1,1,61115c3a1e102dd290e754d6,OOOOORO,OOOOORR,19.92253567,20.74050628,series_1,61115c3a1e102dd290e754d6,Kobieta,18,2021-09-06_19h04.04.475,rantool2,2021.1.4,Win32,60.80136195,6135e006383e6ea6c3d06a28,61364958c8aa96abf0bb02c6,,,,,,,,
j,1.0203,0,30,30,8,1,61115c3a1e102dd290e754d6,OOROOOO,OOROOOR,19.91402015,20.89823192,series_1,61115c3a1e102dd290e754d6,Kobieta,18,2021-09-06_19h04.04.475,rantool2,2021.1.4,Win32,60.80136195,6135e006383e6ea6c3d06a28,61364958c8aa96abf0bb02c6,,,,,,,,
f,4.5757,0,31,31,57,1,61115c3a1e102dd290e754d6,RRROORO,RRROORR,21.82425538,22.07102821,series_1,61115c3a1e102dd290e754d6,Kobieta,18,2021-09-06_19h04.04.475,rantool2,2021.1.4,Win32,60.80136195,6135e006383e6ea6c3d06a28,61364958c8aa96abf0bb02c6,,,,,,,,
j,1.1782,0,32,32,33,1,61115c3a1e102dd290e754d6,ROOOORO,ROOOORR,20.83779602,22.03072203,series_1,61115c3a1e102dd290e754d6,Kobieta,18,2021-09-06_19h04.04.475,rantool2,2021.1.4,Win32,60.80136195,6135e006383e6ea6c3d06a28,61364958c8aa96abf0bb02c6,,,,,,,,
f,1.1832,0,33,33,9,1,61115c3a1e102dd290e754d6,OOROORO,OOROORR,21.07991943,22.2428857,series_1,61115c3a1e102dd290e754d6,Kobieta,18,2021-09-06_19h04.04.475,rantool2,2021.1.4,Win32,60.80136195,6135e006383e6ea6c3d06a28,61364958c8aa96abf0bb02c6,,,,,,,,
f,1.1367,0,34,34,58,1,61115c3a1e102dd290e754d6,RRROROO,RRROROR,22.1285618,21.37121559,series_0,61115c3a1e102dd290e754d6,Kobieta,18,2021-09-06_19h04.04.475,rantool2,2021.1.4,Win32,60.80136195,6135e006383e6ea6c3d06a28,61364958c8aa96abf0bb02c6,,,,,,,,
j,0.7416,0,35,35,21,1,61115c3a1e102dd290e754d6,ORORORO,ORORORR,20.39515459,22.06781359,series_1,61115c3a1e102dd290e754d6,Kobieta,18,2021-09-06_19h04.04.475,rantool2,2021.1.4,Win32,60.80136195,6135e006383e6ea6c3d06a28,61364958c8aa96abf0bb02c6,,,,,,,,
f,2.2607,0,36,36,31,1,61115c3a1e102dd290e754d6,ORRRRRO,ORRRRRR,22.16413392,20.74050628,series_0,61115c3a1e102dd290e754d6,Kobieta,18,2021-09-06_19h04.04.475,rantool2,2021.1.4,Win32,60.80136195,6135e006383e6ea6c3d06a28,61364958c8aa96abf0bb02c6,,,,,,,,
j,3.7471,0,37,37,34,1,61115c3a1e102dd290e754d6,ROOOROO,ROOOROR,21.03750787,21.24781509,series_1,61115c3a1e102dd290e754d6,Kobieta,18,2021-09-06_19h04.04.475,rantool2,2021.1.4,Win32,60.80136195,6135e006383e6ea6c3d06a28,61364958c8aa96abf0bb02c6,,,,,,,,
j,2.0878,0,38,38,38,1,61115c3a1e102dd290e754d6,ROORROO,ROORROR,21.79500819,21.36812781,series_0,61115c3a1e102dd290e754d6,Kobieta,18,2021-09-06_19h04.04.475,rantool2,2021.1.4,Win32,60.80136195,6135e006383e6ea6c3d06a28,61364958c8aa96abf0bb02c6,,,,,,,,
f,2.0537,0,39,39,43,1,61115c3a1e102dd290e754d6,RORORRO,RORORRR,20.71309134,21.07490964,series_1,61115c3a1e102dd290e754d6,Kobieta,18,2021-09-06_19h04.04.475,rantool2,2021.1.4,Win32,60.80136195,6135e006383e6ea6c3d06a28,61364958c8aa96abf0bb02c6,,,,,,,,
j,1.366,0,40,40,25,1,61115c3a1e102dd290e754d6,ORROORO,ORROORR,21.79500819,22.61624387,series_1,61115c3a1e102dd290e754d6,Kobieta,18,2021-09-06_19h04.04.475,rantool2,2021.1.4,Win32,60.80136195,6135e006383e6ea6c3d06a28,61364958c8aa96abf0bb02c6,,,,,,,,
j,1.2315,0,41,41,37,1,61115c3a1e102dd290e754d6,ROORORO,ROORORR,20.42602454,21.57657071,series_1,61115c3a1e102dd290e754d6,Kobieta,18,2021-09-06_19h04.04.475,rantool2,2021.1.4,Win32,60.80136195,6135e006383e6ea6c3d06a28,61364958c8aa96abf0bb02c6,,,,,,,,
f,1.1098,0,42,42,30,1,61115c3a1e102dd290e754d6,ORRRROO,ORRRROR,22.46748491,22.03072203,series_0,61115c3a1e102dd290e754d6,Kobieta,18,2021-09-06_19h04.04.475,rantool2,2021.1.4,Win32,60.80136195,6135e006383e6ea6c3d06a28,61364958c8aa96abf0bb02c6,,,,,,,,
j,1.2273,0,43,43,44,1,61115c3a1e102dd290e754d6,RORROOO,RORROOR,21.66733484,22.02566557,series_1,61115c3a1e102dd290e754d6,Kobieta,18,2021-09-06_19h04.04.475,rantool2,2021.1.4,Win32,60.80136195,6135e006383e6ea6c3d06a28,61364958c8aa96abf0bb02c6,,,,,,,,
f,2.1151,0,44,44,14,1,61115c3a1e102dd290e754d6,OORRROO,OORRROR,22.24142883,22.16977179,series_0,61115c3a1e102dd290e754d6,Kobieta,18,2021-09-06_19h04.04.475,rantool2,2021.1.4,Win32,60.80136195,6135e006383e6ea6c3d06a28,61364958c8aa96abf0bb02c6,,,,,,,,
j,1.369,0,45,45,55,1,61115c3a1e102dd290e754d6,RRORRRO,RRORRRR,21.56657303,21.21223021,series_0,61115c3a1e102dd290e754d6,Kobieta,18,2021-09-06_19h04.04.475,rantool2,2021.1.4,Win32,60.80136195,6135e006383e6ea6c3d06a28,61364958c8aa96abf0bb02c6,,,,,,,,
j,1.3548,0,46,46,13,1,61115c3a1e102dd290e754d6,OORRORO,OORRORR,21.66733484,22.11181017,series_1,61115c3a1e102dd290e754d6,Kobieta,18,2021-09-06_19h04.04.475,rantool2,2021.1.4,Win32,60.80136195,6135e006383e6ea6c3d06a28,61364958c8aa96abf0bb02c6,,,,,,,,
f,2.8651,0,47,47,60,1,61115c3a1e102dd290e754d6,RRRROOO,RRRROOR,22.10108823,22.15934078,series_1,61115c3a1e102dd290e754d6,Kobieta,18,2021-09-06_19h04.04.475,rantool2,2021.1.4,Win32,60.80136195,6135e006383e6ea6c3d06a28,61364958c8aa96abf0bb02c6,,,,,,,,
j,2.3149,0,48,48,19,1,61115c3a1e102dd290e754d6,OROORRO,OROORRR,21.73568164,22.11181017,series_1,61115c3a1e102dd290e754d6,Kobieta,18,2021-09-06_19h04.04.475,rantool2,2021.1.4,Win32,60.80136195,6135e006383e6ea6c3d06a28,61364958c8aa96abf0bb02c6,,,,,,,,
j,1.3078,0,49,49,40,1,61115c3a1e102dd290e754d6,ROROOOO,ROROOOR,20.87963819,21.37121559,series_1,61115c3a1e102dd290e754d6,Kobieta,18,2021-09-06_19h04.04.475,rantool2,2021.1.4,Win32,60.80136195,6135e006383e6ea6c3d06a28,61364958c8aa96abf0bb02c6,,,,,,,,
f,0.6854,0,50,50,47,1,61115c3a1e102dd290e754d6,RORRRRO,RORRRRR,21.81333602,21.02936224,series_0,61115c3a1e102dd290e754d6,Kobieta,18,2021-09-06_19h04.04.475,rantool2,2021.1.4,Win32,60.80136195,6135e006383e6ea6c3d06a28,61364958c8aa96abf0bb02c6,,,,,,,,
f,2.1322,0,51,51,28,1,61115c3a1e102dd290e754d6,ORRROOO,ORRROOR,22.24142883,22.53364006,series_1,61115c3a1e102dd290e754d6,Kobieta,18,2021-09-06_19h04.04.475,rantool2,2021.1.4,Win32,60.80136195,6135e006383e6ea6c3d06a28,61364958c8aa96abf0bb02c6,,,,,,,,
j,0.9285,0,52,52,5,1,61115c3a1e102dd290e754d6,OOORORO,OOORORR,20.87963819,21.9921709,series_1,61115c3a1e102dd290e754d6,Kobieta,18,2021-09-06_19h04.04.475,rantool2,2021.1.4,Win32,60.80136195,6135e006383e6ea6c3d06a28,61364958c8aa96abf0bb02c6,,,,,,,,
f,1.033,0,53,53,54,1,61115c3a1e102dd290e754d6,RRORROO,RRORROR,21.55250791,20.9984461,series_0,61115c3a1e102dd290e754d6,Kobieta,18,2021-09-06_19h04.04.475,rantool2,2021.1.4,Win32,60.80136195,6135e006383e6ea6c3d06a28,61364958c8aa96abf0bb02c6,,,,,,,,
f,1.1157,0,54,54,63,1,61115c3a1e102dd290e754d6,RRRRRRO,RRRRRRR,21.35278725,19.62521613,series_0,61115c3a1e102dd290e754d6,Kobieta,18,2021-09-06_19h04.04.475,rantool2,2021.1.4,Win32,60.80136195,6135e006383e6ea6c3d06a28,61364958c8aa96abf0bb02c6,,,,,,,,
j,2.1908,0,55,55,0,1,61115c3a1e102dd290e754d6,OOOOOOO,OOOOOOR,18.52739004,19.62521613,series_1,61115c3a1e102dd290e754d6,Kobieta,18,2021-09-06_19h04.04.475,rantool2,2021.1.4,Win32,60.80136195,6135e006383e6ea6c3d06a28,61364958c8aa96abf0bb02c6,,,,,,,,
f,4.7463,0,56,56,41,1,61115c3a1e102dd290e754d6,ROROORO,ROROORR,20.42602454,21.71443381,series_1,61115c3a1e102dd290e754d6,Kobieta,18,2021-09-06_19h04.04.475,rantool2,2021.1.4,Win32,60.80136195,6135e006383e6ea6c3d06a28,61364958c8aa96abf0bb02c6,,,,,,,,
f,3.5866,0,57,57,10,1,61115c3a1e102dd290e754d6,OOROROO,OOROROR,21.31236711,21.07490964,series_0,61115c3a1e102dd290e754d6,Kobieta,18,2021-09-06_19h04.04.475,rantool2,2021.1.4,Win32,60.80136195,6135e006383e6ea6c3d06a28,61364958c8aa96abf0bb02c6,,,,,,,,
j,2.1487,0,58,58,49,1,61115c3a1e102dd290e754d6,RROOORO,RROOORR,21.76276513,22.53364006,series_1,61115c3a1e102dd290e754d6,Kobieta,18,2021-09-06_19h04.04.475,rantool2,2021.1.4,Win32,60.80136195,6135e006383e6ea6c3d06a28,61364958c8aa96abf0bb02c6,,,,,,,,
j,3.0483,0,59,59,62,1,61115c3a1e102dd290e754d6,RRRRROO,RRRRROR,22.16413392,21.27974287,series_0,61115c3a1e102dd290e754d6,Kobieta,18,2021-09-06_19h04.04.475,rantool2,2021.1.4,Win32,60.80136195,6135e006383e6ea6c3d06a28,61364958c8aa96abf0bb02c6,,,,,,,,
j,1.8436,0,60,60,16,1,61115c3a1e102dd290e754d6,OROOOOO,OROOOOR,20.43051175,21.17347734,series_1,61115c3a1e102dd290e754d6,Kobieta,18,2021-09-06_19h04.04.475,rantool2,2021.1.4,Win32,60.80136195,6135e006383e6ea6c3d06a28,61364958c8aa96abf0bb02c6,,,,,,,,
f,2.6651,0,61,61,56,1,61115c3a1e102dd290e754d6,RRROOOO,RRROOOR,21.6194508,22.31681875,series_1,61115c3a1e102dd290e754d6,Kobieta,18,2021-09-06_19h04.04.475,rantool2,2021.1.4,Win32,60.80136195,6135e006383e6ea6c3d06a28,61364958c8aa96abf0bb02c6,,,,,,,,
j,2.2692,0,62,62,61,1,61115c3a1e102dd290e754d6,RRRRORO,RRRRORR,21.81333602,21.17347734,series_0,61115c3a1e102dd290e754d6,Kobieta,18,2021-09-06_19h04.04.475,rantool2,2021.1.4,Win32,60.80136195,6135e006383e6ea6c3d06a28,61364958c8aa96abf0bb02c6,,,,,,,,
f,2.5149,0,63,63,46,1,61115c3a1e102dd290e754d6,RORRROO,RORRROR,22.00300695,21.24781509,series_0,61115c3a1e102dd290e754d6,Kobieta,18,2021-09-06_19h04.04.475,rantool2,2021.1.4,Win32,60.80136195,6135e006383e6ea6c3d06a28,61364958c8aa96abf0bb02c6,,,,,,,,
,,,,,,,61115c3a1e102dd290e754d6,,,,,,61115c3a1e102dd290e754d6,Kobieta,18,2021-09-06_19h04.04.475,rantool2,2021.1.4,Win32,60.80136195,6135e006383e6ea6c3d06a28,61364958c8aa96abf0bb02c6,"[""period""]",0,[1.085899999998503],0,0,0,0,1
,,,,,,,61115c3a1e102dd290e754d6,,,,,,61115c3a1e102dd290e754d6,Kobieta,18,2021-09-06_19h04.04.475,rantool2,2021.1.4,Win32,60.80136195,6135e006383e6ea6c3d06a28,61364958c8aa96abf0bb02c6,"[""comma"",""comma""]",0,"[0.5003000000007773,0.8661999999992531]",1,0,1,0,1
,,,,,,,61115c3a1e102dd290e754d6,,,,,,61115c3a1e102dd290e754d6,Kobieta,18,2021-09-06_19h04.04.475,rantool2,2021.1.4,Win32,60.80136195,6135e006383e6ea6c3d06a28,61364958c8aa96abf0bb02c6,"[""period""]",0,[0.28370000000296614],2,0,2,0,1
,,,,,,,61115c3a1e102dd290e754d6,,,,,,61115c3a1e102dd290e754d6,Kobieta,18,2021-09-06_19h04.04.475,rantool2,2021.1.4,Win32,60.80136195,6135e006383e6ea6c3d06a28,61364958c8aa96abf0bb02c6,"[""period""]",0,[0.3058000000007155],3,0,3,0,1
,,,,,,,61115c3a1e102dd290e754d6,,,,,,61115c3a1e102dd290e754d6,Kobieta,18,2021-09-06_19h04.04.475,rantool2,2021.1.4,Win32,60.80136195,6135e006383e6ea6c3d06a28,61364958c8aa96abf0bb02c6,"[""comma""]",0,[0.44999999999998863],4,0,4,0,1
,,,,,,,61115c3a1e102dd290e754d6,,,,,,61115c3a1e102dd290e754d6,Kobieta,18,2021-09-06_19h04.04.475,rantool2,2021.1.4,Win32,60.80136195,6135e006383e6ea6c3d06a28,61364958c8aa96abf0bb02c6,"[""period""]",0,[0.33490000000222153],5,0,5,0,1
,,,,,,,61115c3a1e102dd290e754d6,,,,,,61115c3a1e102dd290e754d6,Kobieta,18,2021-09-06_19h04.04.475,rantool2,2021.1.4,Win32,60.80136195,6135e006383e6ea6c3d06a28,61364958c8aa96abf0bb02c6,"[""period""]",0,[0.2998999999985017],6,0,6,0,1
,,,,,,,61115c3a1e102dd290e754d6,,,,,,61115c3a1e102dd290e754d6,Kobieta,18,2021-09-06_19h04.04.475,rantool2,2021.1.4,Win32,60.80136195,6135e006383e6ea6c3d06a28,61364958c8aa96abf0bb02c6,"[""comma""]",0,[0.5555999999978098],7,0,7,0,1
,,,,,,,61115c3a1e102dd290e754d6,,,,,,61115c3a1e102dd290e754d6,Kobieta,18,2021-09-06_19h04.04.475,rantool2,2021.1.4,Win32,60.80136195,6135e006383e6ea6c3d06a28,61364958c8aa96abf0bb02c6,"[""comma""]",0,[0.5091999999992822],8,0,8,0,1
,,,,,,,61115c3a1e102dd290e754d6,,,,,,61115c3a1e102dd290e754d6,Kobieta,18,2021-09-06_19h04.04.475,rantool2,2021.1.4,Win32,60.80136195,6135e006383e6ea6c3d06a28,61364958c8aa96abf0bb02c6,"[""comma""]",0,[0.3768999999984999],9,0,9,0,1
,,,,,,,61115c3a1e102dd290e754d6,,,,,,61115c3a1e102dd290e754d6,Kobieta,18,2021-09-06_19h04.04.475,rantool2,2021.1.4,Win32,60.80136195,6135e006383e6ea6c3d06a28,61364958c8aa96abf0bb02c6,"[""period""]",0,[0.34980000000075506],10,0,10,0,1
,,,,,,,61115c3a1e102dd290e754d6,,,,,,61115c3a1e102dd290e754d6,Kobieta,18,2021-09-06_19h04.04.475,rantool2,2021.1.4,Win32,60.80136195,6135e006383e6ea6c3d06a28,61364958c8aa96abf0bb02c6,"[""period""]",0,[0.5179000000022143],11,0,11,0,1
,,,,,,,61115c3a1e102dd290e754d6,,,,,,61115c3a1e102dd290e754d6,Kobieta,18,2021-09-06_19h04.04.475,rantool2,2021.1.4,Win32,60.80136195,6135e006383e6ea6c3d06a28,61364958c8aa96abf0bb02c6,"[""comma""]",0,[0.3806999999992513],12,0,12,0,1
,,,,,,,61115c3a1e102dd290e754d6,,,,,,61115c3a1e102dd290e754d6,Kobieta,18,2021-09-06_19h04.04.475,rantool2,2021.1.4,Win32,60.80136195,6135e006383e6ea6c3d06a28,61364958c8aa96abf0bb02c6,"[""period""]",0,[0.3165999999977771],13,0,13,0,1
,,,,,,,61115c3a1e102dd290e754d6,,,,,,61115c3a1e102dd290e754d6,Kobieta,18,2021-09-06_19h04.04.475,rantool2,2021.1.4,Win32,60.80136195,6135e006383e6ea6c3d06a28,61364958c8aa96abf0bb02c6,"[""period""]",0,[0.34710000000148966],14,0,14,0,1
,,,,,,,61115c3a1e102dd290e754d6,,,,,,61115c3a1e102dd290e754d6,Kobieta,18,2021-09-06_19h04.04.475,rantool2,2021.1.4,Win32,60.80136195,6135e006383e6ea6c3d06a28,61364958c8aa96abf0bb02c6,"[""period""]",0,[0.25060000000149785],15,0,15,0,1
,,,,,,,61115c3a1e102dd290e754d6,,,,,,61115c3a1e102dd290e754d6,Kobieta,18,2021-09-06_19h04.04.475,rantool2,2021.1.4,Win32,60.80136195,6135e006383e6ea6c3d06a28,61364958c8aa96abf0bb02c6,"[""comma""]",0,[0.2330999999977621],16,0,16,0,1
,,,,,,,61115c3a1e102dd290e754d6,,,,,,61115c3a1e102dd290e754d6,Kobieta,18,2021-09-06_19h04.04.475,rantool2,2021.1.4,Win32,60.80136195,6135e006383e6ea6c3d06a28,61364958c8aa96abf0bb02c6,"[""comma""]",0,[0.10050000000001091],17,0,17,0,1
,,,,,,,61115c3a1e102dd290e754d6,,,,,,61115c3a1e102dd290e754d6,Kobieta,18,2021-09-06_19h04.04.475,rantool2,2021.1.4,Win32,60.80136195,6135e006383e6ea6c3d06a28,61364958c8aa96abf0bb02c6,"[""comma""]",0,[0.3663999999985208],18,0,18,0,1
,,,,,,,61115c3a1e102dd290e754d6,,,,,,61115c3a1e102dd290e754d6,Kobieta,18,2021-09-06_19h04.04.475,rantool2,2021.1.4,Win32,60.80136195,6135e006383e6ea6c3d06a28,61364958c8aa96abf0bb02c6,"[""period""]",0,[0.2171000000014942],19,0,19,0,1
,,,,,,,61115c3a1e102dd290e754d6,,,,,,61115c3a1e102dd290e754d6,Kobieta,18,2021-09-06_19h04.04.475,rantool2,2021.1.4,Win32,60.80136195,6135e006383e6ea6c3d06a28,61364958c8aa96abf0bb02c6,"[""comma""]",0,[0.9326000000015142],20,0,20,0,1
,,,,,,,61115c3a1e102dd290e754d6,,,,,,61115c3a1e102dd290e754d6,Kobieta,18,2021-09-06_19h04.04.475,rantool2,2021.1.4,Win32,60.80136195,6135e006383e6ea6c3d06a28,61364958c8aa96abf0bb02c6,"[""comma""]",0,[0.22420000000295204],21,0,21,0,1
,,,,,,,61115c3a1e102dd290e754d6,,,,,,61115c3a1e102dd290e754d6,Kobieta,18,2021-09-06_19h04.04.475,rantool2,2021.1.4,Win32,60.80136195,6135e006383e6ea6c3d06a28,61364958c8aa96abf0bb02c6,"[""period""]",0,[0.11780000000072732],22,0,22,0,1
,,,,,,,61115c3a1e102dd290e754d6,,,,,,61115c3a1e102dd290e754d6,Kobieta,18,2021-09-06_19h04.04.475,rantool2,2021.1.4,Win32,60.80136195,6135e006383e6ea6c3d06a28,61364958c8aa96abf0bb02c6,"[""period""]",0,[0.2370999999977812],23,0,23,0,1
,,,,,,,61115c3a1e102dd290e754d6,,,,,,61115c3a1e102dd290e754d6,Kobieta,18,2021-09-06_19h04.04.475,rantool2,2021.1.4,Win32,60.80136195,6135e006383e6ea6c3d06a28,61364958c8aa96abf0bb02c6,"[""period""]",0,[0.2568000000007373],24,0,24,0,1
,,,,,,,61115c3a1e102dd290e754d6,,,,,,61115c3a1e102dd290e754d6,Kobieta,18,2021-09-06_19h04.04.475,rantool2,2021.1.4,Win32,60.80136195,6135e006383e6ea6c3d06a28,61364958c8aa96abf0bb02c6,"[""comma""]",0,[0.3666000000014833],25,0,25,0,1
,,,,,,,61115c3a1e102dd290e754d6,,,,,,61115c3a1e102dd290e754d6,Kobieta,18,2021-09-06_19h04.04.475,rantool2,2021.1.4,Win32,60.80136195,6135e006383e6ea6c3d06a28,61364958c8aa96abf0bb02c6,"[""period""]",0,[0.18060000000144782],26,0,26,0,1
,,,,,,,61115c3a1e102dd290e754d6,,,,,,61115c3a1e102dd290e754d6,Kobieta,18,2021-09-06_19h04.04.475,rantool2,2021.1.4,Win32,60.80136195,6135e006383e6ea6c3d06a28,61364958c8aa96abf0bb02c6,"[""comma""]",0,[0.11290000000224154],27,0,27,0,1
,,,,,,,61115c3a1e102dd290e754d6,,,,,,61115c3a1e102dd290e754d6,Kobieta,18,2021-09-06_19h04.04.475,rantool2,2021.1.4,Win32,60.80136195,6135e006383e6ea6c3d06a28,61364958c8aa96abf0bb02c6,"[""comma""]",0,[0.20030000000070913],28,0,28,0,1
,,,,,,,61115c3a1e102dd290e754d6,,,,,,61115c3a1e102dd290e754d6,Kobieta,18,2021-09-06_19h04.04.475,rantool2,2021.1.4,Win32,60.80136195,6135e006383e6ea6c3d06a28,61364958c8aa96abf0bb02c6,"[""period""]",0,[0.07490000000223063],29,0,29,0,1
,,,,,,,61115c3a1e102dd290e754d6,,,,,,61115c3a1e102dd290e754d6,Kobieta,18,2021-09-06_19h04.04.475,rantool2,2021.1.4,Win32,60.80136195,6135e006383e6ea6c3d06a28,61364958c8aa96abf0bb02c6,"[""period"",""period""]",0,"[0.15100000000001046,1.5826000000014915]",30,0,30,0,1
,,,,,,,61115c3a1e102dd290e754d6,,,,,,61115c3a1e102dd290e754d6,Kobieta,18,2021-09-06_19h04.04.475,rantool2,2021.1.4,Win32,60.80136195,6135e006383e6ea6c3d06a28,61364958c8aa96abf0bb02c6,"[""period""]",0,[0.6173000000007391],31,0,31,0,1
,,,,,,,61115c3a1e102dd290e754d6,,,,,,61115c3a1e102dd290e754d6,Kobieta,18,2021-09-06_19h04.04.475,rantool2,2021.1.4,Win32,60.80136195,6135e006383e6ea6c3d06a28,61364958c8aa96abf0bb02c6,"[""period"",""period""]",0,"[0.23410000000149012,0.722500000000025]",32,0,32,0,1
,,,,,,,61115c3a1e102dd290e754d6,,,,,,61115c3a1e102dd290e754d6,Kobieta,18,2021-09-06_19h04.04.475,rantool2,2021.1.4,Win32,60.80136195,6135e006383e6ea6c3d06a28,61364958c8aa96abf0bb02c6,"[""comma""]",0,[0.236099999997748],33,0,33,0,1
,,,,,,,61115c3a1e102dd290e754d6,,,,,,61115c3a1e102dd290e754d6,Kobieta,18,2021-09-06_19h04.04.475,rantool2,2021.1.4,Win32,60.80136195,6135e006383e6ea6c3d06a28,61364958c8aa96abf0bb02c6,"[""comma""]",0,[0.2330000000000041],34,0,34,0,1
,,,,,,,61115c3a1e102dd290e754d6,,,,,,61115c3a1e102dd290e754d6,Kobieta,18,2021-09-06_19h04.04.475,rantool2,2021.1.4,Win32,60.80136195,6135e006383e6ea6c3d06a28,61364958c8aa96abf0bb02c6,"[""comma""]",0,[0.22729999999705797],35,0,35,0,1
,,,,,,,61115c3a1e102dd290e754d6,,,,,,61115c3a1e102dd290e754d6,Kobieta,18,2021-09-06_19h04.04.475,rantool2,2021.1.4,Win32,60.80136195,6135e006383e6ea6c3d06a28,61364958c8aa96abf0bb02c6,"[""comma""]",0,[0.26539999999846486],36,0,36,0,1
,,,,,,,61115c3a1e102dd290e754d6,,,,,,61115c3a1e102dd290e754d6,Kobieta,18,2021-09-06_19h04.04.475,rantool2,2021.1.4,Win32,60.80136195,6135e006383e6ea6c3d06a28,61364958c8aa96abf0bb02c6,"[""period""]",0,[0.283899999998539],37,0,37,0,1
,,,,,,,61115c3a1e102dd290e754d6,,,,,,61115c3a1e102dd290e754d6,Kobieta,18,2021-09-06_19h04.04.475,rantool2,2021.1.4,Win32,60.80136195,6135e006383e6ea6c3d06a28,61364958c8aa96abf0bb02c6,"[""comma""]",0,[0.2174000000022147],38,0,38,0,1
,,,,,,,61115c3a1e102dd290e754d6,,,,,,61115c3a1e102dd290e754d6,Kobieta,18,2021-09-06_19h04.04.475,rantool2,2021.1.4,Win32,60.80136195,6135e006383e6ea6c3d06a28,61364958c8aa96abf0bb02c6,"[""period"",""comma""]",0,"[0.18359999999779575,1.898899999998548]",39,0,39,0,1
,,,,,,,61115c3a1e102dd290e754d6,,,,,,61115c3a1e102dd290e754d6,Kobieta,18,2021-09-06_19h04.04.475,rantool2,2021.1.4,Win32,60.80136195,6135e006383e6ea6c3d06a28,61364958c8aa96abf0bb02c6,"[""comma""]",0,[0.8333000000007473],40,0,40,0,1
,,,,,,,61115c3a1e102dd290e754d6,,,,,,61115c3a1e102dd290e754d6,Kobieta,18,2021-09-06_19h04.04.475,rantool2,2021.1.4,Win32,60.80136195,6135e006383e6ea6c3d06a28,61364958c8aa96abf0bb02c6,"[""comma""]",0,[0.20600000000001728],41,0,41,0,1
,,,,,,,61115c3a1e102dd290e754d6,,,,,,61115c3a1e102dd290e754d6,Kobieta,18,2021-09-06_19h04.04.475,rantool2,2021.1.4,Win32,60.80136195,6135e006383e6ea6c3d06a28,61364958c8aa96abf0bb02c6,"[""comma""]",0,[0.2831999999992263],42,0,42,0,1
,,,,,,,61115c3a1e102dd290e754d6,,,,,,61115c3a1e102dd290e754d6,Kobieta,18,2021-09-06_19h04.04.475,rantool2,2021.1.4,Win32,60.80136195,6135e006383e6ea6c3d06a28,61364958c8aa96abf0bb02c6,"[""period""]",0,[0.11330000000072005],43,0,43,0,1
,,,,,,,61115c3a1e102dd290e754d6,,,,,,61115c3a1e102dd290e754d6,Kobieta,18,2021-09-06_19h04.04.475,rantool2,2021.1.4,Win32,60.80136195,6135e006383e6ea6c3d06a28,61364958c8aa96abf0bb02c6,"[""period""]",0,[0.17359999999780484],44,0,44,0,1
,,,,,,,61115c3a1e102dd290e754d6,,,,,,61115c3a1e102dd290e754d6,Kobieta,18,2021-09-06_19h04.04.475,rantool2,2021.1.4,Win32,60.80136195,6135e006383e6ea6c3d06a28,61364958c8aa96abf0bb02c6,"[""period""]",0,[0.28380000000072414],45,0,45,0,1
,,,,,,,61115c3a1e102dd290e754d6,,,,,,61115c3a1e102dd290e754d6,Kobieta,18,2021-09-06_19h04.04.475,rantool2,2021.1.4,Win32,60.80136195,6135e006383e6ea6c3d06a28,61364958c8aa96abf0bb02c6,"[""comma""]",0,[0.1831000000015024],46,0,46,0,1
,,,,,,,61115c3a1e102dd290e754d6,,,,,,61115c3a1e102dd290e754d6,Kobieta,18,2021-09-06_19h04.04.475,rantool2,2021.1.4,Win32,60.80136195,6135e006383e6ea6c3d06a28,61364958c8aa96abf0bb02c6,"[""comma""]",0,[0.11199999999996635],47,0,47,0,1
,,,,,,,61115c3a1e102dd290e754d6,,,,,,61115c3a1e102dd290e754d6,Kobieta,18,2021-09-06_19h04.04.475,rantool2,2021.1.4,Win32,60.80136195,6135e006383e6ea6c3d06a28,61364958c8aa96abf0bb02c6,"[""period""]",0,[0.09619999999927131],48,0,48,0,1
,,,,,,,61115c3a1e102dd290e754d6,,,,,,61115c3a1e102dd290e754d6,Kobieta,18,2021-09-06_19h04.04.475,rantool2,2021.1.4,Win32,60.80136195,6135e006383e6ea6c3d06a28,61364958c8aa96abf0bb02c6,"[""comma""]",0,[0.1764999999999759],49,0,49,0,1
,,,,,,,61115c3a1e102dd290e754d6,,,,,,61115c3a1e102dd290e754d6,Kobieta,18,2021-09-06_19h04.04.475,rantool2,2021.1.4,Win32,60.80136195,6135e006383e6ea6c3d06a28,61364958c8aa96abf0bb02c6,"[""period""]",0,[0.24120000000294795],50,0,50,0,1
,,,,,,,61115c3a1e102dd290e754d6,,,,,,61115c3a1e102dd290e754d6,Kobieta,18,2021-09-06_19h04.04.475,rantool2,2021.1.4,Win32,60.80136195,6135e006383e6ea6c3d06a28,61364958c8aa96abf0bb02c6,"[""comma""]",0,[0.22160000000150148],51,0,51,0,1
,,,,,,,61115c3a1e102dd290e754d6,,,,,,61115c3a1e102dd290e754d6,Kobieta,18,2021-09-06_19h04.04.475,rantool2,2021.1.4,Win32,60.80136195,6135e006383e6ea6c3d06a28,61364958c8aa96abf0bb02c6,"[""period""]",0,[0.08349999999995816],52,0,52,0,1
,,,,,,,61115c3a1e102dd290e754d6,,,,,,61115c3a1e102dd290e754d6,Kobieta,18,2021-09-06_19h04.04.475,rantool2,2021.1.4,Win32,60.80136195,6135e006383e6ea6c3d06a28,61364958c8aa96abf0bb02c6,"[""comma""]",0,[0.27350000000001273],53,0,53,0,1
,,,,,,,61115c3a1e102dd290e754d6,,,,,,61115c3a1e102dd290e754d6,Kobieta,18,2021-09-06_19h04.04.475,rantool2,2021.1.4,Win32,60.80136195,6135e006383e6ea6c3d06a28,61364958c8aa96abf0bb02c6,"[""period"",""comma""]",0,"[0.20979999999701704,1.8597999999970511]",54,0,54,0,1
,,,,,,,61115c3a1e102dd290e754d6,,,,,,61115c3a1e102dd290e754d6,Kobieta,18,2021-09-06_19h04.04.475,rantool2,2021.1.4,Win32,60.80136195,6135e006383e6ea6c3d06a28,61364958c8aa96abf0bb02c6,0,0,,55,0,55,0,1
,,,,,,,61115c3a1e102dd290e754d6,,,,,,61115c3a1e102dd290e754d6,Kobieta,18,2021-09-06_19h04.04.475,rantool2,2021.1.4,Win32,60.80136195,6135e006383e6ea6c3d06a28,61364958c8aa96abf0bb02c6,"[""comma""]",0,[0.10030000000074324],56,0,56,0,1
,,,,,,,61115c3a1e102dd290e754d6,,,,,,61115c3a1e102dd290e754d6,Kobieta,18,2021-09-06_19h04.04.475,rantool2,2021.1.4,Win32,60.80136195,6135e006383e6ea6c3d06a28,61364958c8aa96abf0bb02c6,"[""period""]",0,[0.2332000000029666],57,0,57,0,1
,,,,,,,61115c3a1e102dd290e754d6,,,,,,61115c3a1e102dd290e754d6,Kobieta,18,2021-09-06_19h04.04.475,rantool2,2021.1.4,Win32,60.80136195,6135e006383e6ea6c3d06a28,61364958c8aa96abf0bb02c6,"[""comma""]",0,[0.29120000000301616],58,0,58,0,1
,,,,,,,61115c3a1e102dd290e754d6,,,,,,61115c3a1e102dd290e754d6,Kobieta,18,2021-09-06_19h04.04.475,rantool2,2021.1.4,Win32,60.80136195,6135e006383e6ea6c3d06a28,61364958c8aa96abf0bb02c6,"[""period""]",0,[0.263599999997723],59,0,59,0,1
,,,,,,,61115c3a1e102dd290e754d6,,,,,,61115c3a1e102dd290e754d6,Kobieta,18,2021-09-06_19h04.04.475,rantool2,2021.1.4,Win32,60.80136195,6135e006383e6ea6c3d06a28,61364958c8aa96abf0bb02c6,"[""comma""]",0,[0.08320000000298933],60,0,60,0,1
,,,,,,,61115c3a1e102dd290e754d6,,,,,,61115c3a1e102dd290e754d6,Kobieta,18,2021-09-06_19h04.04.475,rantool2,2021.1.4,Win32,60.80136195,6135e006383e6ea6c3d06a28,61364958c8aa96abf0bb02c6,"[""period"",""period""]",0,"[0.00819999999924903,0.7326999999992267]",61,0,61,0,1
,,,,,,,61115c3a1e102dd290e754d6,,,,,,61115c3a1e102dd290e754d6,Kobieta,18,2021-09-06_19h04.04.475,rantool2,2021.1.4,Win32,60.80136195,6135e006383e6ea6c3d06a28,61364958c8aa96abf0bb02c6,"[""comma""]",0,[0.2788999999984867],62,0,62,0,1
,,,,,,,61115c3a1e102dd290e754d6,,,,,,61115c3a1e102dd290e754d6,Kobieta,18,2021-09-06_19h04.04.475,rantool2,2021.1.4,Win32,60.80136195,6135e006383e6ea6c3d06a28,61364958c8aa96abf0bb02c6,"[""period"",""comma""]",0,"[0.45439999999848624,1.8100999999977603]",63,0,63,0,1
,,,,,,,61115c3a1e102dd290e754d6,,,,,,61115c3a1e102dd290e754d6,Kobieta,18,2021-09-06_19h04.04.475,rantool2,2021.1.4,Win32,60.80136195,6135e006383e6ea6c3d06a28,61364958c8aa96abf0bb02c6,"[""comma""]",0,[0.4226999999992813],64,0,64,0,1
,,,,,,,61115c3a1e102dd290e754d6,,,,,,61115c3a1e102dd290e754d6,Kobieta,18,2021-09-06_19h04.04.475,rantool2,2021.1.4,Win32,60.80136195,6135e006383e6ea6c3d06a28,61364958c8aa96abf0bb02c6,"[""period""]",0,[0.1570999999977971],65,0,65,0,1
,,,,,,,61115c3a1e102dd290e754d6,,,,,,61115c3a1e102dd290e754d6,Kobieta,18,2021-09-06_19h04.04.475,rantool2,2021.1.4,Win32,60.80136195,6135e006383e6ea6c3d06a28,61364958c8aa96abf0bb02c6,"[""period""]",0,[0.26200000000000045],66,0,66,0,1
,,,,,,,61115c3a1e102dd290e754d6,,,,,,61115c3a1e102dd290e754d6,Kobieta,18,2021-09-06_19h04.04.475,rantool2,2021.1.4,Win32,60.80136195,6135e006383e6ea6c3d06a28,61364958c8aa96abf0bb02c6,"[""period""]",0,[0.2801999999992404],67,0,67,0,1
,,,,,,,61115c3a1e102dd290e754d6,,,,,,61115c3a1e102dd290e754d6,Kobieta,18,2021-09-06_19h04.04.475,rantool2,2021.1.4,Win32,60.80136195,6135e006383e6ea6c3d06a28,61364958c8aa96abf0bb02c6,"[""period""]",0,[0.29629999999701795],68,0,68,0,1
,,,,,,,61115c3a1e102dd290e754d6,,,,,,61115c3a1e102dd290e754d6,Kobieta,18,2021-09-06_19h04.04.475,rantool2,2021.1.4,Win32,60.80136195,6135e006383e6ea6c3d06a28,61364958c8aa96abf0bb02c6,"[""period""]",0,[0.2777999999970575],69,0,69,0,1
,,,,,,,61115c3a1e102dd290e754d6,,,,,,61115c3a1e102dd290e754d6,Kobieta,18,2021-09-06_19h04.04.475,rantool2,2021.1.4,Win32,60.80136195,6135e006383e6ea6c3d06a28,61364958c8aa96abf0bb02c6,"[""comma"",""comma""]",0,"[0.07259999999780575,0.9000999999977921]",70,0,70,0,1
,,,,,,,61115c3a1e102dd290e754d6,,,,,,61115c3a1e102dd290e754d6,Kobieta,18,2021-09-06_19h04.04.475,rantool2,2021.1.4,Win32,60.80136195,6135e006383e6ea6c3d06a28,61364958c8aa96abf0bb02c6,"[""comma""]",0,[0.22830000000072914],71,0,71,0,1
,,,,,,,61115c3a1e102dd290e754d6,,,,,,61115c3a1e102dd290e754d6,Kobieta,18,2021-09-06_19h04.04.475,rantool2,2021.1.4,Win32,60.80136195,6135e006383e6ea6c3d06a28,61364958c8aa96abf0bb02c6,"[""period""]",0,[0.2670999999977539],72,0,72,0,1
,,,,,,,61115c3a1e102dd290e754d6,,,,,,61115c3a1e102dd290e754d6,Kobieta,18,2021-09-06_19h04.04.475,rantool2,2021.1.4,Win32,60.80136195,6135e006383e6ea6c3d06a28,61364958c8aa96abf0bb02c6,"[""comma""]",0,[0.23289999999855127],73,0,73,0,1
,,,,,,,61115c3a1e102dd290e754d6,,,,,,61115c3a1e102dd290e754d6,Kobieta,18,2021-09-06_19h04.04.475,rantool2,2021.1.4,Win32,60.80136195,6135e006383e6ea6c3d06a28,61364958c8aa96abf0bb02c6,"[""comma"",""comma""]",0,"[0.23339999999853944,1.782000000000039]",74,0,74,0,1
,,,,,,,61115c3a1e102dd290e754d6,,,,,,61115c3a1e102dd290e754d6,Kobieta,18,2021-09-06_19h04.04.475,rantool2,2021.1.4,Win32,60.80136195,6135e006383e6ea6c3d06a28,61364958c8aa96abf0bb02c6,"[""comma""]",0,[0.3343000000007237],75,0,75,0,1
,,,,,,,61115c3a1e102dd290e754d6,,,,,,61115c3a1e102dd290e754d6,Kobieta,18,2021-09-06_19h04.04.475,rantool2,2021.1.4,Win32,60.80136195,6135e006383e6ea6c3d06a28,61364958c8aa96abf0bb02c6,"[""comma"",""comma""]",0,"[0.033999999999991815,0.5165999999977657]",76,0,76,0,1
,,,,,,,61115c3a1e102dd290e754d6,,,,,,61115c3a1e102dd290e754d6,Kobieta,18,2021-09-06_19h04.04.475,rantool2,2021.1.4,Win32,60.80136195,6135e006383e6ea6c3d06a28,61364958c8aa96abf0bb02c6,"[""comma""]",0,[0.6620000000000346],77,0,77,0,1
,,,,,,,61115c3a1e102dd290e754d6,,,,,,61115c3a1e102dd290e754d6,Kobieta,18,2021-09-06_19h04.04.475,rantool2,2021.1.4,Win32,60.80136195,6135e006383e6ea6c3d06a28,61364958c8aa96abf0bb02c6,"[""period"",""period""]",0,"[-0.024099999997758914,0.6324999999999932]",78,0,78,0,1
,,,,,,,61115c3a1e102dd290e754d6,,,,,,61115c3a1e102dd290e754d6,Kobieta,18,2021-09-06_19h04.04.475,rantool2,2021.1.4,Win32,60.80136195,6135e006383e6ea6c3d06a28,61364958c8aa96abf0bb02c6,"[""period""]",0,[0.7536999999992986],79,0,79,0,1
,,,,,,,61115c3a1e102dd290e754d6,,,,,,61115c3a1e102dd290e754d6,Kobieta,18,2021-09-06_19h04.04.475,rantool2,2021.1.4,Win32,60.80136195,6135e006383e6ea6c3d06a28,61364958c8aa96abf0bb02c6,"[""comma""]",0,[0.26739999999853126],80,0,80,0,1
,,,,,,,61115c3a1e102dd290e754d6,,,,,,61115c3a1e102dd290e754d6,Kobieta,18,2021-09-06_19h04.04.475,rantool2,2021.1.4,Win32,60.80136195,6135e006383e6ea6c3d06a28,61364958c8aa96abf0bb02c6,"[""period""]",0,[0.2839000000022338],81,0,81,0,1
,,,,,,,61115c3a1e102dd290e754d6,,,,,,61115c3a1e102dd290e754d6,Kobieta,18,2021-09-06_19h04.04.475,rantool2,2021.1.4,Win32,60.80136195,6135e006383e6ea6c3d06a28,61364958c8aa96abf0bb02c6,"[""comma""]",0,[0.03550000000001319],82,0,82,0,1
,,,,,,,61115c3a1e102dd290e754d6,,,,,,61115c3a1e102dd290e754d6,Kobieta,18,2021-09-06_19h04.04.475,rantool2,2021.1.4,Win32,60.80136195,6135e006383e6ea6c3d06a28,61364958c8aa96abf0bb02c6,"[""period""]",0,[0.28949999999997544],83,0,83,0,1
,,,,,,,61115c3a1e102dd290e754d6,,,,,,61115c3a1e102dd290e754d6,Kobieta,18,2021-09-06_19h04.04.475,rantool2,2021.1.4,Win32,60.80136195,6135e006383e6ea6c3d06a28,61364958c8aa96abf0bb02c6,"[""period""]",0,[0.23380000000076961],84,0,84,0,1
,,,,,,,61115c3a1e102dd290e754d6,,,,,,61115c3a1e102dd290e754d6,Kobieta,18,2021-09-06_19h04.04.475,rantool2,2021.1.4,Win32,60.80136195,6135e006383e6ea6c3d06a28,61364958c8aa96abf0bb02c6,"[""comma""]",0,[0.30049999999999955],85,0,85,0,1
,,,,,,,61115c3a1e102dd290e754d6,,,,,,61115c3a1e102dd290e754d6,Kobieta,18,2021-09-06_19h04.04.475,rantool2,2021.1.4,Win32,60.80136195,6135e006383e6ea6c3d06a28,61364958c8aa96abf0bb02c6,"[""comma""]",0,[0.21690000000228338],86,0,86,0,1
,,,,,,,61115c3a1e102dd290e754d6,,,,,,61115c3a1e102dd290e754d6,Kobieta,18,2021-09-06_19h04.04.475,rantool2,2021.1.4,Win32,60.80136195,6135e006383e6ea6c3d06a28,61364958c8aa96abf0bb02c6,"[""period""]",0,[0.520599999997728],87,0,87,0,1
,,,,,,,61115c3a1e102dd290e754d6,,,,,,61115c3a1e102dd290e754d6,Kobieta,18,2021-09-06_19h04.04.475,rantool2,2021.1.4,Win32,60.80136195,6135e006383e6ea6c3d06a28,61364958c8aa96abf0bb02c6,"[""comma""]",0,[-0.02210000000150103],88,0,88,0,1
,,,,,,,61115c3a1e102dd290e754d6,,,,,,61115c3a1e102dd290e754d6,Kobieta,18,2021-09-06_19h04.04.475,rantool2,2021.1.4,Win32,60.80136195,6135e006383e6ea6c3d06a28,61364958c8aa96abf0bb02c6,"[""comma""]",0,[0.10390000000222699],89,0,89,0,1
,,,,,,,61115c3a1e102dd290e754d6,,,,,,61115c3a1e102dd290e754d6,Kobieta,18,2021-09-06_19h04.04.475,rantool2,2021.1.4,Win32,60.80136195,6135e006383e6ea6c3d06a28,61364958c8aa96abf0bb02c6,"[""comma""]",0,[0.18769999999926767],90,0,90,0,1
,,,,,,,61115c3a1e102dd290e754d6,,,,,,61115c3a1e102dd290e754d6,Kobieta,18,2021-09-06_19h04.04.475,rantool2,2021.1.4,Win32,60.80136195,6135e006383e6ea6c3d06a28,61364958c8aa96abf0bb02c6,"[""period""]",0,[0.1831999999992604],91,0,91,0,1
,,,,,,,61115c3a1e102dd290e754d6,,,,,,61115c3a1e102dd290e754d6,Kobieta,18,2021-09-06_19h04.04.475,rantool2,2021.1.4,Win32,60.80136195,6135e006383e6ea6c3d06a28,61364958c8aa96abf0bb02c6,"[""period""]",0,[0.24200000000001864],92,0,92,0,1
,,,,,,,61115c3a1e102dd290e754d6,,,,,,61115c3a1e102dd290e754d6,Kobieta,18,2021-09-06_19h04.04.475,rantool2,2021.1.4,Win32,60.80136195,6135e006383e6ea6c3d06a28,61364958c8aa96abf0bb02c6,"[""comma""]",0,[0.292699999999229],93,0,93,0,1
,,,,,,,61115c3a1e102dd290e754d6,,,,,,61115c3a1e102dd290e754d6,Kobieta,18,2021-09-06_19h04.04.475,rantool2,2021.1.4,Win32,60.80136195,6135e006383e6ea6c3d06a28,61364958c8aa96abf0bb02c6,"[""period""]",0,[0.3276999999993109],94,0,94,0,1
,,,,,,,61115c3a1e102dd290e754d6,,,,,,61115c3a1e102dd290e754d6,Kobieta,18,2021-09-06_19h04.04.475,rantool2,2021.1.4,Win32,60.80136195,6135e006383e6ea6c3d06a28,61364958c8aa96abf0bb02c6,"[""comma""]",0,[0.2623999999985358],95,0,95,0,1
,,,,,,,61115c3a1e102dd290e754d6,,,,,,61115c3a1e102dd290e754d6,Kobieta,18,2021-09-06_19h04.04.475,rantool2,2021.1.4,Win32,60.80136195,6135e006383e6ea6c3d06a28,61364958c8aa96abf0bb02c6,"[""period""]",0,[0.2503000000007205],96,0,96,0,1
,,,,,,,61115c3a1e102dd290e754d6,,,,,,61115c3a1e102dd290e754d6,Kobieta,18,2021-09-06_19h04.04.475,rantool2,2021.1.4,Win32,60.80136195,6135e006383e6ea6c3d06a28,61364958c8aa96abf0bb02c6,"[""period""]",0,[0.3331999999992945],97,0,97,0,1
,,,,,,,61115c3a1e102dd290e754d6,,,,,,61115c3a1e102dd290e754d6,Kobieta,18,2021-09-06_19h04.04.475,rantool2,2021.1.4,Win32,60.80136195,6135e006383e6ea6c3d06a28,61364958c8aa96abf0bb02c6,"[""period""]",0,[0.3331000000015365],98,0,98,0,1
,,,,,,,61115c3a1e102dd290e754d6,,,,,,61115c3a1e102dd290e754d6,Kobieta,18,2021-09-06_19h04.04.475,rantool2,2021.1.4,Win32,60.80136195,6135e006383e6ea6c3d06a28,61364958c8aa96abf0bb02c6,"[""period""]",0,[0.6131000000014524],99,0,99,0,1
,,,,,,,61115c3a1e102dd290e754d6,,,,,,61115c3a1e102dd290e754d6,Kobieta,18,2021-09-06_19h04.04.475,rantool2,2021.1.4,Win32,60.80136195,6135e006383e6ea6c3d06a28,61364958c8aa96abf0bb02c6,"[""comma"",""period""]",0,"[0.15180000000071914,1.6326000000015028]",100,0,100,0,1
,,,,,,,61115c3a1e102dd290e754d6,,,,,,61115c3a1e102dd290e754d6,Kobieta,18,2021-09-06_19h04.04.475,rantool2,2021.1.4,Win32,60.80136195,6135e006383e6ea6c3d06a28,61364958c8aa96abf0bb02c6,"[""period""]",0,[0.3513999999984776],101,0,101,0,1
,,,,,,,61115c3a1e102dd290e754d6,,,,,,61115c3a1e102dd290e754d6,Kobieta,18,2021-09-06_19h04.04.475,rantool2,2021.1.4,Win32,60.80136195,6135e006383e6ea6c3d06a28,61364958c8aa96abf0bb02c6,"[""comma""]",0,[0.013699999999289503],102,0,102,0,1
,,,,,,,61115c3a1e102dd290e754d6,,,,,,61115c3a1e102dd290e754d6,Kobieta,18,2021-09-06_19h04.04.475,rantool2,2021.1.4,Win32,60.80136195,6135e006383e6ea6c3d06a28,61364958c8aa96abf0bb02c6,"[""comma""]",0,[0.3498000000008119],103,0,103,0,1
,,,,,,,61115c3a1e102dd290e754d6,,,,,,61115c3a1e102dd290e754d6,Kobieta,18,2021-09-06_19h04.04.475,rantool2,2021.1.4,Win32,60.80136195,6135e006383e6ea6c3d06a28,61364958c8aa96abf0bb02c6,"[""period""]",0,[0.2618000000007896],104,0,104,0,1
,,,,,,,61115c3a1e102dd290e754d6,,,,,,61115c3a1e102dd290e754d6,Kobieta,18,2021-09-06_19h04.04.475,rantool2,2021.1.4,Win32,60.80136195,6135e006383e6ea6c3d06a28,61364958c8aa96abf0bb02c6,"[""comma""]",0,[0.25],105,0,105,0,1
,,,,,,,61115c3a1e102dd290e754d6,,,,,,61115c3a1e102dd290e754d6,Kobieta,18,2021-09-06_19h04.04.475,rantool2,2021.1.4,Win32,60.80136195,6135e006383e6ea6c3d06a28,61364958c8aa96abf0bb02c6,"[""period""]",0,[0.23379999999701795],106,0,106,0,1
,,,,,,,61115c3a1e102dd290e754d6,,,,,,61115c3a1e102dd290e754d6,Kobieta,18,2021-09-06_19h04.04.475,rantool2,2021.1.4,Win32,60.80136195,6135e006383e6ea6c3d06a28,61364958c8aa96abf0bb02c6,"[""comma""]",0,[0.28089999999849624],107,0,107,0,1
,,,,,,,61115c3a1e102dd290e754d6,,,,,,61115c3a1e102dd290e754d6,Kobieta,18,2021-09-06_19h04.04.475,rantool2,2021.1.4,Win32,60.80136195,6135e006383e6ea6c3d06a28,61364958c8aa96abf0bb02c6,"[""period""]",0,[0.2857999999969252],108,0,108,0,1
,,,,,,,61115c3a1e102dd290e754d6,,,,,,61115c3a1e102dd290e754d6,Kobieta,18,2021-09-06_19h04.04.475,rantool2,2021.1.4,Win32,60.80136195,6135e006383e6ea6c3d06a28,61364958c8aa96abf0bb02c6,"[""period"",""comma""]",0,"[0.003599999997732084,1.7161999999992759]",109,0,109,0,1
,,,,,,,61115c3a1e102dd290e754d6,,,,,,61115c3a1e102dd290e754d6,Kobieta,18,2021-09-06_19h04.04.475,rantool2,2021.1.4,Win32,60.80136195,6135e006383e6ea6c3d06a28,61364958c8aa96abf0bb02c6,"[""comma""]",0,[0.40649999999993724],110,0,110,0,1
,,,,,,,61115c3a1e102dd290e754d6,,,,,,61115c3a1e102dd290e754d6,Kobieta,18,2021-09-06_19h04.04.475,rantool2,2021.1.4,Win32,60.80136195,6135e006383e6ea6c3d06a28,61364958c8aa96abf0bb02c6,"[""period""]",0,[0.3293999999985999],111,0,111,0,1
,,,,,,,61115c3a1e102dd290e754d6,,,,,,61115c3a1e102dd290e754d6,Kobieta,18,2021-09-06_19h04.04.475,rantool2,2021.1.4,Win32,60.80136195,6135e006383e6ea6c3d06a28,61364958c8aa96abf0bb02c6,"[""period"",""comma""]",0,"[0.10400000000004184,1.8931999999992968]",112,0,112,0,1
,,,,,,,61115c3a1e102dd290e754d6,,,,,,61115c3a1e102dd290e754d6,Kobieta,18,2021-09-06_19h04.04.475,rantool2,2021.1.4,Win32,60.80136195,6135e006383e6ea6c3d06a28,61364958c8aa96abf0bb02c6,"[""comma""]",0,[0.3499000000023216],113,0,113,0,1
,,,,,,,61115c3a1e102dd290e754d6,,,,,,61115c3a1e102dd290e754d6,Kobieta,18,2021-09-06_19h04.04.475,rantool2,2021.1.4,Win32,60.80136195,6135e006383e6ea6c3d06a28,61364958c8aa96abf0bb02c6,"[""period""]",0,[0.2706000000015365],114,0,114,0,1
,,,,,,,61115c3a1e102dd290e754d6,,,,,,61115c3a1e102dd290e754d6,Kobieta,18,2021-09-06_19h04.04.475,rantool2,2021.1.4,Win32,60.80136195,6135e006383e6ea6c3d06a28,61364958c8aa96abf0bb02c6,"[""period""]",0,[0.3668000000006941],115,0,115,0,1
,,,,,,,61115c3a1e102dd290e754d6,,,,,,61115c3a1e102dd290e754d6,Kobieta,18,2021-09-06_19h04.04.475,rantool2,2021.1.4,Win32,60.80136195,6135e006383e6ea6c3d06a28,61364958c8aa96abf0bb02c6,"[""comma""]",0,[0.29990000000225336],116,0,116,0,1
,,,,,,,61115c3a1e102dd290e754d6,,,,,,61115c3a1e102dd290e754d6,Kobieta,18,2021-09-06_19h04.04.475,rantool2,2021.1.4,Win32,60.80136195,6135e006383e6ea6c3d06a28,61364958c8aa96abf0bb02c6,"[""comma""]",0,[0.2675000000000409],117,0,117,0,1
,,,,,,,61115c3a1e102dd290e754d6,,,,,,61115c3a1e102dd290e754d6,Kobieta,18,2021-09-06_19h04.04.475,rantool2,2021.1.4,Win32,60.80136195,6135e006383e6ea6c3d06a28,61364958c8aa96abf0bb02c6,"[""comma""]",0,[0.2746000000014419],118,0,118,0,1
,,,,,,,61115c3a1e102dd290e754d6,,,,,,61115c3a1e102dd290e754d6,Kobieta,18,2021-09-06_19h04.04.475,rantool2,2021.1.4,Win32,60.80136195,6135e006383e6ea6c3d06a28,61364958c8aa96abf0bb02c6,"[""comma""]",0,[0.45189999999843167],119,0,119,0,1
