key_resp_5.keys,key_resp_5.corr,key_resp_5.rt,trials.thisRepN,trials.thisTrialN,trials.thisN,trials.thisIndex,trials.ran,id*,Płeć*,Wiek*,date,expName,psychopyVersion,OS,frameRate,id,STUDY_ID,SESSION_ID,key_resp_7.keys,key_resp_7.rt,trials_2.thisRepN,trials_2.thisTrialN,trials_2.thisN,trials_2.thisIndex,trials_2.ran,series_0,series_1,acss_0,acss_1,comparison
"[""comma""]",0,[0.9700999999940478],0,0,0,0,1,60edbdf42216cc299770590c,Mężczyzna,22,2021-07-13_21h05.39.624,rantool2,2021.1.4,Win32,60.11060351,60edbdf42216cc299770590c,60d9d14f4a8a35a482e0d9bf,60ede371d734d3c9fd8d7691,,,,,,,,,,,,
"[""period""]",0,[0.3789000000059559],1,0,1,0,1,60edbdf42216cc299770590c,Mężczyzna,22,2021-07-13_21h05.39.624,rantool2,2021.1.4,Win32,60.11060351,60edbdf42216cc299770590c,60d9d14f4a8a35a482e0d9bf,60ede371d734d3c9fd8d7691,,,,,,,,,,,,
"[""comma""]",0,[0.35129999999701056],2,0,2,0,1,60edbdf42216cc299770590c,Mężczyzna,22,2021-07-13_21h05.39.624,rantool2,2021.1.4,Win32,60.11060351,60edbdf42216cc299770590c,60d9d14f4a8a35a482e0d9bf,60ede371d734d3c9fd8d7691,,,,,,,,,,,,
"[""comma""]",0,[0.3067000000029907],3,0,3,0,1,60edbdf42216cc299770590c,Mężczyzna,22,2021-07-13_21h05.39.624,rantool2,2021.1.4,Win32,60.11060351,60edbdf42216cc299770590c,60d9d14f4a8a35a482e0d9bf,60ede371d734d3c9fd8d7691,,,,,,,,,,,,
"[""period""]",0,[0.3397999999970267],4,0,4,0,1,60edbdf42216cc299770590c,Mężczyzna,22,2021-07-13_21h05.39.624,rantool2,2021.1.4,Win32,60.11060351,60edbdf42216cc299770590c,60d9d14f4a8a35a482e0d9bf,60ede371d734d3c9fd8d7691,,,,,,,,,,,,
"[""comma""]",0,[0.267799999997024],5,0,5,0,1,60edbdf42216cc299770590c,Mężczyzna,22,2021-07-13_21h05.39.624,rantool2,2021.1.4,Win32,60.11060351,60edbdf42216cc299770590c,60d9d14f4a8a35a482e0d9bf,60ede371d734d3c9fd8d7691,,,,,,,,,,,,
"[""period""]",0,[0.25149999999999295],6,0,6,0,1,60edbdf42216cc299770590c,Mężczyzna,22,2021-07-13_21h05.39.624,rantool2,2021.1.4,Win32,60.11060351,60edbdf42216cc299770590c,60d9d14f4a8a35a482e0d9bf,60ede371d734d3c9fd8d7691,,,,,,,,,,,,
"[""comma""]",0,[0.2753999999910519],7,0,7,0,1,60edbdf42216cc299770590c,Mężczyzna,22,2021-07-13_21h05.39.624,rantool2,2021.1.4,Win32,60.11060351,60edbdf42216cc299770590c,60d9d14f4a8a35a482e0d9bf,60ede371d734d3c9fd8d7691,,,,,,,,,,,,
"[""period""]",0,[0.2532000000029768],8,0,8,0,1,60edbdf42216cc299770590c,Mężczyzna,22,2021-07-13_21h05.39.624,rantool2,2021.1.4,Win32,60.11060351,60edbdf42216cc299770590c,60d9d14f4a8a35a482e0d9bf,60ede371d734d3c9fd8d7691,,,,,,,,,,,,
"[""comma""]",0,[0.2604999999999933],9,0,9,0,1,60edbdf42216cc299770590c,Mężczyzna,22,2021-07-13_21h05.39.624,rantool2,2021.1.4,Win32,60.11060351,60edbdf42216cc299770590c,60d9d14f4a8a35a482e0d9bf,60ede371d734d3c9fd8d7691,,,,,,,,,,,,
"[""period""]",0,[0.2365000000000066],10,0,10,0,1,60edbdf42216cc299770590c,Mężczyzna,22,2021-07-13_21h05.39.624,rantool2,2021.1.4,Win32,60.11060351,60edbdf42216cc299770590c,60d9d14f4a8a35a482e0d9bf,60ede371d734d3c9fd8d7691,,,,,,,,,,,,
"[""period""]",0,[0.3332000000029751],11,0,11,0,1,60edbdf42216cc299770590c,Mężczyzna,22,2021-07-13_21h05.39.624,rantool2,2021.1.4,Win32,60.11060351,60edbdf42216cc299770590c,60d9d14f4a8a35a482e0d9bf,60ede371d734d3c9fd8d7691,,,,,,,,,,,,
"[""comma""]",0,[0.38450000000000273],12,0,12,0,1,60edbdf42216cc299770590c,Mężczyzna,22,2021-07-13_21h05.39.624,rantool2,2021.1.4,Win32,60.11060351,60edbdf42216cc299770590c,60d9d14f4a8a35a482e0d9bf,60ede371d734d3c9fd8d7691,,,,,,,,,,,,
"[""period""]",0,[0.30939999999105794],13,0,13,0,1,60edbdf42216cc299770590c,Mężczyzna,22,2021-07-13_21h05.39.624,rantool2,2021.1.4,Win32,60.11060351,60edbdf42216cc299770590c,60d9d14f4a8a35a482e0d9bf,60ede371d734d3c9fd8d7691,,,,,,,,,,,,
"[""comma""]",0,[0.26970000000298455],14,0,14,0,1,60edbdf42216cc299770590c,Mężczyzna,22,2021-07-13_21h05.39.624,rantool2,2021.1.4,Win32,60.11060351,60edbdf42216cc299770590c,60d9d14f4a8a35a482e0d9bf,60ede371d734d3c9fd8d7691,,,,,,,,,,,,
"[""period""]",0,[0.30100000000000193],15,0,15,0,1,60edbdf42216cc299770590c,Mężczyzna,22,2021-07-13_21h05.39.624,rantool2,2021.1.4,Win32,60.11060351,60edbdf42216cc299770590c,60d9d14f4a8a35a482e0d9bf,60ede371d734d3c9fd8d7691,,,,,,,,,,,,
"[""comma"",""period""]",0,"[0.2612000000029866,0.2775000000000034]",16,0,16,0,1,60edbdf42216cc299770590c,Mężczyzna,22,2021-07-13_21h05.39.624,rantool2,2021.1.4,Win32,60.11060351,60edbdf42216cc299770590c,60d9d14f4a8a35a482e0d9bf,60ede371d734d3c9fd8d7691,,,,,,,,,,,,
"[""period""]",0,[0.2620999999940494],17,0,17,0,1,60edbdf42216cc299770590c,Mężczyzna,22,2021-07-13_21h05.39.624,rantool2,2021.1.4,Win32,60.11060351,60edbdf42216cc299770590c,60d9d14f4a8a35a482e0d9bf,60ede371d734d3c9fd8d7691,,,,,,,,,,,,
"[""comma""]",0,[0.1847000000029908],18,0,18,0,1,60edbdf42216cc299770590c,Mężczyzna,22,2021-07-13_21h05.39.624,rantool2,2021.1.4,Win32,60.11060351,60edbdf42216cc299770590c,60d9d14f4a8a35a482e0d9bf,60ede371d734d3c9fd8d7691,,,,,,,,,,,,
"[""period""]",0,[0.11040000000595285],19,0,19,0,1,60edbdf42216cc299770590c,Mężczyzna,22,2021-07-13_21h05.39.624,rantool2,2021.1.4,Win32,60.11060351,60edbdf42216cc299770590c,60d9d14f4a8a35a482e0d9bf,60ede371d734d3c9fd8d7691,,,,,,,,,,,,
"[""comma""]",0,[0.07090000000594898],20,0,20,0,1,60edbdf42216cc299770590c,Mężczyzna,22,2021-07-13_21h05.39.624,rantool2,2021.1.4,Win32,60.11060351,60edbdf42216cc299770590c,60d9d14f4a8a35a482e0d9bf,60ede371d734d3c9fd8d7691,,,,,,,,,,,,
"[""period""]",0,[0.2550999999940444],21,0,21,0,1,60edbdf42216cc299770590c,Mężczyzna,22,2021-07-13_21h05.39.624,rantool2,2021.1.4,Win32,60.11060351,60edbdf42216cc299770590c,60d9d14f4a8a35a482e0d9bf,60ede371d734d3c9fd8d7691,,,,,,,,,,,,
"[""comma""]",0,[0.26759999999403306],22,0,22,0,1,60edbdf42216cc299770590c,Mężczyzna,22,2021-07-13_21h05.39.624,rantool2,2021.1.4,Win32,60.11060351,60edbdf42216cc299770590c,60d9d14f4a8a35a482e0d9bf,60ede371d734d3c9fd8d7691,,,,,,,,,,,,
"[""period""]",0,[0.25549999999999784],23,0,23,0,1,60edbdf42216cc299770590c,Mężczyzna,22,2021-07-13_21h05.39.624,rantool2,2021.1.4,Win32,60.11060351,60edbdf42216cc299770590c,60d9d14f4a8a35a482e0d9bf,60ede371d734d3c9fd8d7691,,,,,,,,,,,,
"[""comma""]",0,[0.2672999999970216],24,0,24,0,1,60edbdf42216cc299770590c,Mężczyzna,22,2021-07-13_21h05.39.624,rantool2,2021.1.4,Win32,60.11060351,60edbdf42216cc299770590c,60d9d14f4a8a35a482e0d9bf,60ede371d734d3c9fd8d7691,,,,,,,,,,,,
"[""period""]",0,[0.31119999998807657],25,0,25,0,1,60edbdf42216cc299770590c,Mężczyzna,22,2021-07-13_21h05.39.624,rantool2,2021.1.4,Win32,60.11060351,60edbdf42216cc299770590c,60d9d14f4a8a35a482e0d9bf,60ede371d734d3c9fd8d7691,,,,,,,,,,,,
"[""comma""]",0,[0.2797000000030039],26,0,26,0,1,60edbdf42216cc299770590c,Mężczyzna,22,2021-07-13_21h05.39.624,rantool2,2021.1.4,Win32,60.11060351,60edbdf42216cc299770590c,60d9d14f4a8a35a482e0d9bf,60ede371d734d3c9fd8d7691,,,,,,,,,,,,
"[""period""]",0,[0.26809999999403544],27,0,27,0,1,60edbdf42216cc299770590c,Mężczyzna,22,2021-07-13_21h05.39.624,rantool2,2021.1.4,Win32,60.11060351,60edbdf42216cc299770590c,60d9d14f4a8a35a482e0d9bf,60ede371d734d3c9fd8d7691,,,,,,,,,,,,
"[""comma""]",0,[0.28819999998808044],28,0,28,0,1,60edbdf42216cc299770590c,Mężczyzna,22,2021-07-13_21h05.39.624,rantool2,2021.1.4,Win32,60.11060351,60edbdf42216cc299770590c,60d9d14f4a8a35a482e0d9bf,60ede371d734d3c9fd8d7691,,,,,,,,,,,,
"[""period""]",0,[0.3205000000000098],29,0,29,0,1,60edbdf42216cc299770590c,Mężczyzna,22,2021-07-13_21h05.39.624,rantool2,2021.1.4,Win32,60.11060351,60edbdf42216cc299770590c,60d9d14f4a8a35a482e0d9bf,60ede371d734d3c9fd8d7691,,,,,,,,,,,,
"[""period""]",0,[0.38489999999106317],30,0,30,0,1,60edbdf42216cc299770590c,Mężczyzna,22,2021-07-13_21h05.39.624,rantool2,2021.1.4,Win32,60.11060351,60edbdf42216cc299770590c,60d9d14f4a8a35a482e0d9bf,60ede371d734d3c9fd8d7691,,,,,,,,,,,,
"[""period""]",0,[0.4350000000000023],31,0,31,0,1,60edbdf42216cc299770590c,Mężczyzna,22,2021-07-13_21h05.39.624,rantool2,2021.1.4,Win32,60.11060351,60edbdf42216cc299770590c,60d9d14f4a8a35a482e0d9bf,60ede371d734d3c9fd8d7691,,,,,,,,,,,,
"[""period""]",0,[0.5928999999910616],32,0,32,0,1,60edbdf42216cc299770590c,Mężczyzna,22,2021-07-13_21h05.39.624,rantool2,2021.1.4,Win32,60.11060351,60edbdf42216cc299770590c,60d9d14f4a8a35a482e0d9bf,60ede371d734d3c9fd8d7691,,,,,,,,,,,,
"[""comma""]",0,[0.3696000000089157],33,0,33,0,1,60edbdf42216cc299770590c,Mężczyzna,22,2021-07-13_21h05.39.624,rantool2,2021.1.4,Win32,60.11060351,60edbdf42216cc299770590c,60d9d14f4a8a35a482e0d9bf,60ede371d734d3c9fd8d7691,,,,,,,,,,,,
"[""period""]",0,[0.2973999999910575],34,0,34,0,1,60edbdf42216cc299770590c,Mężczyzna,22,2021-07-13_21h05.39.624,rantool2,2021.1.4,Win32,60.11060351,60edbdf42216cc299770590c,60d9d14f4a8a35a482e0d9bf,60ede371d734d3c9fd8d7691,,,,,,,,,,,,
"[""comma""]",0,[0.3010999999940225],35,0,35,0,1,60edbdf42216cc299770590c,Mężczyzna,22,2021-07-13_21h05.39.624,rantool2,2021.1.4,Win32,60.11060351,60edbdf42216cc299770590c,60d9d14f4a8a35a482e0d9bf,60ede371d734d3c9fd8d7691,,,,,,,,,,,,
"[""period""]",0,[0.2900999999940268],36,0,36,0,1,60edbdf42216cc299770590c,Mężczyzna,22,2021-07-13_21h05.39.624,rantool2,2021.1.4,Win32,60.11060351,60edbdf42216cc299770590c,60d9d14f4a8a35a482e0d9bf,60ede371d734d3c9fd8d7691,,,,,,,,,,,,
"[""comma""]",0,[0.36209999999405795],37,0,37,0,1,60edbdf42216cc299770590c,Mężczyzna,22,2021-07-13_21h05.39.624,rantool2,2021.1.4,Win32,60.11060351,60edbdf42216cc299770590c,60d9d14f4a8a35a482e0d9bf,60ede371d734d3c9fd8d7691,,,,,,,,,,,,
"[""period""]",0,[0.37020000000296704],38,0,38,0,1,60edbdf42216cc299770590c,Mężczyzna,22,2021-07-13_21h05.39.624,rantool2,2021.1.4,Win32,60.11060351,60edbdf42216cc299770590c,60d9d14f4a8a35a482e0d9bf,60ede371d734d3c9fd8d7691,,,,,,,,,,,,
"[""comma""]",0,[0.37880000001192116],39,0,39,0,1,60edbdf42216cc299770590c,Mężczyzna,22,2021-07-13_21h05.39.624,rantool2,2021.1.4,Win32,60.11060351,60edbdf42216cc299770590c,60d9d14f4a8a35a482e0d9bf,60ede371d734d3c9fd8d7691,,,,,,,,,,,,
"[""period""]",0,[0.31820000000297455],40,0,40,0,1,60edbdf42216cc299770590c,Mężczyzna,22,2021-07-13_21h05.39.624,rantool2,2021.1.4,Win32,60.11060351,60edbdf42216cc299770590c,60d9d14f4a8a35a482e0d9bf,60ede371d734d3c9fd8d7691,,,,,,,,,,,,
"[""comma""]",0,[0.2593000000119048],41,0,41,0,1,60edbdf42216cc299770590c,Mężczyzna,22,2021-07-13_21h05.39.624,rantool2,2021.1.4,Win32,60.11060351,60edbdf42216cc299770590c,60d9d14f4a8a35a482e0d9bf,60ede371d734d3c9fd8d7691,,,,,,,,,,,,
"[""period""]",0,[0.2681999999880986],42,0,42,0,1,60edbdf42216cc299770590c,Mężczyzna,22,2021-07-13_21h05.39.624,rantool2,2021.1.4,Win32,60.11060351,60edbdf42216cc299770590c,60d9d14f4a8a35a482e0d9bf,60ede371d734d3c9fd8d7691,,,,,,,,,,,,
"[""comma""]",0,[0.09129999999700544],43,0,43,0,1,60edbdf42216cc299770590c,Mężczyzna,22,2021-07-13_21h05.39.624,rantool2,2021.1.4,Win32,60.11060351,60edbdf42216cc299770590c,60d9d14f4a8a35a482e0d9bf,60ede371d734d3c9fd8d7691,,,,,,,,,,,,
"[""comma""]",0,[0.24290000000596024],44,0,44,0,1,60edbdf42216cc299770590c,Mężczyzna,22,2021-07-13_21h05.39.624,rantool2,2021.1.4,Win32,60.11060351,60edbdf42216cc299770590c,60d9d14f4a8a35a482e0d9bf,60ede371d734d3c9fd8d7691,,,,,,,,,,,,
"[""period""]",0,[0.26829999999702636],45,0,45,0,1,60edbdf42216cc299770590c,Mężczyzna,22,2021-07-13_21h05.39.624,rantool2,2021.1.4,Win32,60.11060351,60edbdf42216cc299770590c,60d9d14f4a8a35a482e0d9bf,60ede371d734d3c9fd8d7691,,,,,,,,,,,,
"[""period""]",0,[0.3008000000119182],46,0,46,0,1,60edbdf42216cc299770590c,Mężczyzna,22,2021-07-13_21h05.39.624,rantool2,2021.1.4,Win32,60.11060351,60edbdf42216cc299770590c,60d9d14f4a8a35a482e0d9bf,60ede371d734d3c9fd8d7691,,,,,,,,,,,,
"[""comma""]",0,[0.2437000000029741],47,0,47,0,1,60edbdf42216cc299770590c,Mężczyzna,22,2021-07-13_21h05.39.624,rantool2,2021.1.4,Win32,60.11060351,60edbdf42216cc299770590c,60d9d14f4a8a35a482e0d9bf,60ede371d734d3c9fd8d7691,,,,,,,,,,,,
"[""comma""]",0,[0.25290000000597956],48,0,48,0,1,60edbdf42216cc299770590c,Mężczyzna,22,2021-07-13_21h05.39.624,rantool2,2021.1.4,Win32,60.11060351,60edbdf42216cc299770590c,60d9d14f4a8a35a482e0d9bf,60ede371d734d3c9fd8d7691,,,,,,,,,,,,
"[""comma""]",0,[0.2602000000029818],49,0,49,0,1,60edbdf42216cc299770590c,Mężczyzna,22,2021-07-13_21h05.39.624,rantool2,2021.1.4,Win32,60.11060351,60edbdf42216cc299770590c,60d9d14f4a8a35a482e0d9bf,60ede371d734d3c9fd8d7691,,,,,,,,,,,,
"[""comma""]",0,[0.26040000000597274],50,0,50,0,1,60edbdf42216cc299770590c,Mężczyzna,22,2021-07-13_21h05.39.624,rantool2,2021.1.4,Win32,60.11060351,60edbdf42216cc299770590c,60d9d14f4a8a35a482e0d9bf,60ede371d734d3c9fd8d7691,,,,,,,,,,,,
"[""comma""]",0,[0.2687000000029798],51,0,51,0,1,60edbdf42216cc299770590c,Mężczyzna,22,2021-07-13_21h05.39.624,rantool2,2021.1.4,Win32,60.11060351,60edbdf42216cc299770590c,60d9d14f4a8a35a482e0d9bf,60ede371d734d3c9fd8d7691,,,,,,,,,,,,
"[""period""]",0,[0.2526000000089539],52,0,52,0,1,60edbdf42216cc299770590c,Mężczyzna,22,2021-07-13_21h05.39.624,rantool2,2021.1.4,Win32,60.11060351,60edbdf42216cc299770590c,60d9d14f4a8a35a482e0d9bf,60ede371d734d3c9fd8d7691,,,,,,,,,,,,
"[""comma""]",0,[0.2690999999940402],53,0,53,0,1,60edbdf42216cc299770590c,Mężczyzna,22,2021-07-13_21h05.39.624,rantool2,2021.1.4,Win32,60.11060351,60edbdf42216cc299770590c,60d9d14f4a8a35a482e0d9bf,60ede371d734d3c9fd8d7691,,,,,,,,,,,,
"[""period""]",0,[0.28259999999406205],54,0,54,0,1,60edbdf42216cc299770590c,Mężczyzna,22,2021-07-13_21h05.39.624,rantool2,2021.1.4,Win32,60.11060351,60edbdf42216cc299770590c,60d9d14f4a8a35a482e0d9bf,60ede371d734d3c9fd8d7691,,,,,,,,,,,,
"[""comma""]",0,[0.11819999998809294],55,0,55,0,1,60edbdf42216cc299770590c,Mężczyzna,22,2021-07-13_21h05.39.624,rantool2,2021.1.4,Win32,60.11060351,60edbdf42216cc299770590c,60d9d14f4a8a35a482e0d9bf,60ede371d734d3c9fd8d7691,,,,,,,,,,,,
"[""period""]",0,[0.2691000000089332],56,0,56,0,1,60edbdf42216cc299770590c,Mężczyzna,22,2021-07-13_21h05.39.624,rantool2,2021.1.4,Win32,60.11060351,60edbdf42216cc299770590c,60d9d14f4a8a35a482e0d9bf,60ede371d734d3c9fd8d7691,,,,,,,,,,,,
"[""period""]",0,[0.2617000000029748],57,0,57,0,1,60edbdf42216cc299770590c,Mężczyzna,22,2021-07-13_21h05.39.624,rantool2,2021.1.4,Win32,60.11060351,60edbdf42216cc299770590c,60d9d14f4a8a35a482e0d9bf,60ede371d734d3c9fd8d7691,,,,,,,,,,,,
"[""comma""]",0,[0.07800000000000296],58,0,58,0,1,60edbdf42216cc299770590c,Mężczyzna,22,2021-07-13_21h05.39.624,rantool2,2021.1.4,Win32,60.11060351,60edbdf42216cc299770590c,60d9d14f4a8a35a482e0d9bf,60ede371d734d3c9fd8d7691,,,,,,,,,,,,
"[""period""]",0,[0.11000000000001364],59,0,59,0,1,60edbdf42216cc299770590c,Mężczyzna,22,2021-07-13_21h05.39.624,rantool2,2021.1.4,Win32,60.11060351,60edbdf42216cc299770590c,60d9d14f4a8a35a482e0d9bf,60ede371d734d3c9fd8d7691,,,,,,,,,,,,
"[""comma""]",0,[0.23420000000297136],60,0,60,0,1,60edbdf42216cc299770590c,Mężczyzna,22,2021-07-13_21h05.39.624,rantool2,2021.1.4,Win32,60.11060351,60edbdf42216cc299770590c,60d9d14f4a8a35a482e0d9bf,60ede371d734d3c9fd8d7691,,,,,,,,,,,,
"[""period""]",0,[0.23829999999702522],61,0,61,0,1,60edbdf42216cc299770590c,Mężczyzna,22,2021-07-13_21h05.39.624,rantool2,2021.1.4,Win32,60.11060351,60edbdf42216cc299770590c,60d9d14f4a8a35a482e0d9bf,60ede371d734d3c9fd8d7691,,,,,,,,,,,,
"[""comma""]",0,[0.2949999999999875],62,0,62,0,1,60edbdf42216cc299770590c,Mężczyzna,22,2021-07-13_21h05.39.624,rantool2,2021.1.4,Win32,60.11060351,60edbdf42216cc299770590c,60d9d14f4a8a35a482e0d9bf,60ede371d734d3c9fd8d7691,,,,,,,,,,,,
"[""period""]",0,[0.2632999999970309],63,0,63,0,1,60edbdf42216cc299770590c,Mężczyzna,22,2021-07-13_21h05.39.624,rantool2,2021.1.4,Win32,60.11060351,60edbdf42216cc299770590c,60d9d14f4a8a35a482e0d9bf,60ede371d734d3c9fd8d7691,,,,,,,,,,,,
"[""period""]",0,[0.2880000000000109],64,0,64,0,1,60edbdf42216cc299770590c,Mężczyzna,22,2021-07-13_21h05.39.624,rantool2,2021.1.4,Win32,60.11060351,60edbdf42216cc299770590c,60d9d14f4a8a35a482e0d9bf,60ede371d734d3c9fd8d7691,,,,,,,,,,,,
"[""comma""]",0,[0.25109999999403954],65,0,65,0,1,60edbdf42216cc299770590c,Mężczyzna,22,2021-07-13_21h05.39.624,rantool2,2021.1.4,Win32,60.11060351,60edbdf42216cc299770590c,60d9d14f4a8a35a482e0d9bf,60ede371d734d3c9fd8d7691,,,,,,,,,,,,
"[""period""]",0,[0.271900000005985],66,0,66,0,1,60edbdf42216cc299770590c,Mężczyzna,22,2021-07-13_21h05.39.624,rantool2,2021.1.4,Win32,60.11060351,60edbdf42216cc299770590c,60d9d14f4a8a35a482e0d9bf,60ede371d734d3c9fd8d7691,,,,,,,,,,,,
"[""period""]",0,[0.27179999999702886],67,0,67,0,1,60edbdf42216cc299770590c,Mężczyzna,22,2021-07-13_21h05.39.624,rantool2,2021.1.4,Win32,60.11060351,60edbdf42216cc299770590c,60d9d14f4a8a35a482e0d9bf,60ede371d734d3c9fd8d7691,,,,,,,,,,,,
"[""period""]",0,[0.2515999999940277],68,0,68,0,1,60edbdf42216cc299770590c,Mężczyzna,22,2021-07-13_21h05.39.624,rantool2,2021.1.4,Win32,60.11060351,60edbdf42216cc299770590c,60d9d14f4a8a35a482e0d9bf,60ede371d734d3c9fd8d7691,,,,,,,,,,,,
"[""comma""]",0,[0.25099999999997635],69,0,69,0,1,60edbdf42216cc299770590c,Mężczyzna,22,2021-07-13_21h05.39.624,rantool2,2021.1.4,Win32,60.11060351,60edbdf42216cc299770590c,60d9d14f4a8a35a482e0d9bf,60ede371d734d3c9fd8d7691,,,,,,,,,,,,
"[""comma""]",0,[0.25710000000896116],70,0,70,0,1,60edbdf42216cc299770590c,Mężczyzna,22,2021-07-13_21h05.39.624,rantool2,2021.1.4,Win32,60.11060351,60edbdf42216cc299770590c,60d9d14f4a8a35a482e0d9bf,60ede371d734d3c9fd8d7691,,,,,,,,,,,,
"[""period"",""comma""]",0,"[0.20159999999404477,1.952799999997012]",71,0,71,0,1,60edbdf42216cc299770590c,Mężczyzna,22,2021-07-13_21h05.39.624,rantool2,2021.1.4,Win32,60.11060351,60edbdf42216cc299770590c,60d9d14f4a8a35a482e0d9bf,60ede371d734d3c9fd8d7691,,,,,,,,,,,,
0,0,,72,0,72,0,1,60edbdf42216cc299770590c,Mężczyzna,22,2021-07-13_21h05.39.624,rantool2,2021.1.4,Win32,60.11060351,60edbdf42216cc299770590c,60d9d14f4a8a35a482e0d9bf,60ede371d734d3c9fd8d7691,,,,,,,,,,,,
"[""period""]",0,[0.24060000000895343],73,0,73,0,1,60edbdf42216cc299770590c,Mężczyzna,22,2021-07-13_21h05.39.624,rantool2,2021.1.4,Win32,60.11060351,60edbdf42216cc299770590c,60d9d14f4a8a35a482e0d9bf,60ede371d734d3c9fd8d7691,,,,,,,,,,,,
"[""comma""]",0,[0.1779000000059625],74,0,74,0,1,60edbdf42216cc299770590c,Mężczyzna,22,2021-07-13_21h05.39.624,rantool2,2021.1.4,Win32,60.11060351,60edbdf42216cc299770590c,60d9d14f4a8a35a482e0d9bf,60ede371d734d3c9fd8d7691,,,,,,,,,,,,
"[""period""]",0,[0.2511999999880743],75,0,75,0,1,60edbdf42216cc299770590c,Mężczyzna,22,2021-07-13_21h05.39.624,rantool2,2021.1.4,Win32,60.11060351,60edbdf42216cc299770590c,60d9d14f4a8a35a482e0d9bf,60ede371d734d3c9fd8d7691,,,,,,,,,,,,
"[""comma""]",0,[0.05150000000000432],76,0,76,0,1,60edbdf42216cc299770590c,Mężczyzna,22,2021-07-13_21h05.39.624,rantool2,2021.1.4,Win32,60.11060351,60edbdf42216cc299770590c,60d9d14f4a8a35a482e0d9bf,60ede371d734d3c9fd8d7691,,,,,,,,,,,,
"[""period""]",0,[0.2581999999880793],77,0,77,0,1,60edbdf42216cc299770590c,Mężczyzna,22,2021-07-13_21h05.39.624,rantool2,2021.1.4,Win32,60.11060351,60edbdf42216cc299770590c,60d9d14f4a8a35a482e0d9bf,60ede371d734d3c9fd8d7691,,,,,,,,,,,,
"[""comma""]",0,[0.2513999999910652],78,0,78,0,1,60edbdf42216cc299770590c,Mężczyzna,22,2021-07-13_21h05.39.624,rantool2,2021.1.4,Win32,60.11060351,60edbdf42216cc299770590c,60d9d14f4a8a35a482e0d9bf,60ede371d734d3c9fd8d7691,,,,,,,,,,,,
"[""period""]",0,[0.19479999999703068],79,0,79,0,1,60edbdf42216cc299770590c,Mężczyzna,22,2021-07-13_21h05.39.624,rantool2,2021.1.4,Win32,60.11060351,60edbdf42216cc299770590c,60d9d14f4a8a35a482e0d9bf,60ede371d734d3c9fd8d7691,,,,,,,,,,,,
"[""comma""]",0,[0.17879999999701113],80,0,80,0,1,60edbdf42216cc299770590c,Mężczyzna,22,2021-07-13_21h05.39.624,rantool2,2021.1.4,Win32,60.11060351,60edbdf42216cc299770590c,60d9d14f4a8a35a482e0d9bf,60ede371d734d3c9fd8d7691,,,,,,,,,,,,
"[""period""]",0,[0.23489999999105748],81,0,81,0,1,60edbdf42216cc299770590c,Mężczyzna,22,2021-07-13_21h05.39.624,rantool2,2021.1.4,Win32,60.11060351,60edbdf42216cc299770590c,60d9d14f4a8a35a482e0d9bf,60ede371d734d3c9fd8d7691,,,,,,,,,,,,
"[""comma""]",0,[0.27470000000298],82,0,82,0,1,60edbdf42216cc299770590c,Mężczyzna,22,2021-07-13_21h05.39.624,rantool2,2021.1.4,Win32,60.11060351,60edbdf42216cc299770590c,60d9d14f4a8a35a482e0d9bf,60ede371d734d3c9fd8d7691,,,,,,,,,,,,
"[""period""]",0,[0.2908999999910691],83,0,83,0,1,60edbdf42216cc299770590c,Mężczyzna,22,2021-07-13_21h05.39.624,rantool2,2021.1.4,Win32,60.11060351,60edbdf42216cc299770590c,60d9d14f4a8a35a482e0d9bf,60ede371d734d3c9fd8d7691,,,,,,,,,,,,
"[""comma""]",0,[0.25939999999104657],84,0,84,0,1,60edbdf42216cc299770590c,Mężczyzna,22,2021-07-13_21h05.39.624,rantool2,2021.1.4,Win32,60.11060351,60edbdf42216cc299770590c,60d9d14f4a8a35a482e0d9bf,60ede371d734d3c9fd8d7691,,,,,,,,,,,,
"[""period""]",0,[0.3392999999970243],85,0,85,0,1,60edbdf42216cc299770590c,Mężczyzna,22,2021-07-13_21h05.39.624,rantool2,2021.1.4,Win32,60.11060351,60edbdf42216cc299770590c,60d9d14f4a8a35a482e0d9bf,60ede371d734d3c9fd8d7691,,,,,,,,,,,,
"[""comma""]",0,[0.19650000000001455],86,0,86,0,1,60edbdf42216cc299770590c,Mężczyzna,22,2021-07-13_21h05.39.624,rantool2,2021.1.4,Win32,60.11060351,60edbdf42216cc299770590c,60d9d14f4a8a35a482e0d9bf,60ede371d734d3c9fd8d7691,,,,,,,,,,,,
"[""period""]",0,[0.3012999999970134],87,0,87,0,1,60edbdf42216cc299770590c,Mężczyzna,22,2021-07-13_21h05.39.624,rantool2,2021.1.4,Win32,60.11060351,60edbdf42216cc299770590c,60d9d14f4a8a35a482e0d9bf,60ede371d734d3c9fd8d7691,,,,,,,,,,,,
"[""comma""]",0,[0.06829999999703773],88,0,88,0,1,60edbdf42216cc299770590c,Mężczyzna,22,2021-07-13_21h05.39.624,rantool2,2021.1.4,Win32,60.11060351,60edbdf42216cc299770590c,60d9d14f4a8a35a482e0d9bf,60ede371d734d3c9fd8d7691,,,,,,,,,,,,
"[""period""]",0,[0.000599999994051359],89,0,89,0,1,60edbdf42216cc299770590c,Mężczyzna,22,2021-07-13_21h05.39.624,rantool2,2021.1.4,Win32,60.11060351,60edbdf42216cc299770590c,60d9d14f4a8a35a482e0d9bf,60ede371d734d3c9fd8d7691,,,,,,,,,,,,
"[""comma""]",0,[0.10139999999103111],90,0,90,0,1,60edbdf42216cc299770590c,Mężczyzna,22,2021-07-13_21h05.39.624,rantool2,2021.1.4,Win32,60.11060351,60edbdf42216cc299770590c,60d9d14f4a8a35a482e0d9bf,60ede371d734d3c9fd8d7691,,,,,,,,,,,,
"[""period""]",0,[0.11830000001191365],91,0,91,0,1,60edbdf42216cc299770590c,Mężczyzna,22,2021-07-13_21h05.39.624,rantool2,2021.1.4,Win32,60.11060351,60edbdf42216cc299770590c,60d9d14f4a8a35a482e0d9bf,60ede371d734d3c9fd8d7691,,,,,,,,,,,,
"[""comma""]",0,[0.22929999999706752],92,0,92,0,1,60edbdf42216cc299770590c,Mężczyzna,22,2021-07-13_21h05.39.624,rantool2,2021.1.4,Win32,60.11060351,60edbdf42216cc299770590c,60d9d14f4a8a35a482e0d9bf,60ede371d734d3c9fd8d7691,,,,,,,,,,,,
"[""period""]",0,[0.18959999999407273],93,0,93,0,1,60edbdf42216cc299770590c,Mężczyzna,22,2021-07-13_21h05.39.624,rantool2,2021.1.4,Win32,60.11060351,60edbdf42216cc299770590c,60d9d14f4a8a35a482e0d9bf,60ede371d734d3c9fd8d7691,,,,,,,,,,,,
"[""period""]",0,[0.2619000000059373],94,0,94,0,1,60edbdf42216cc299770590c,Mężczyzna,22,2021-07-13_21h05.39.624,rantool2,2021.1.4,Win32,60.11060351,60edbdf42216cc299770590c,60d9d14f4a8a35a482e0d9bf,60ede371d734d3c9fd8d7691,,,,,,,,,,,,
"[""comma""]",0,[0.24610000000893706],95,0,95,0,1,60edbdf42216cc299770590c,Mężczyzna,22,2021-07-13_21h05.39.624,rantool2,2021.1.4,Win32,60.11060351,60edbdf42216cc299770590c,60d9d14f4a8a35a482e0d9bf,60ede371d734d3c9fd8d7691,,,,,,,,,,,,
"[""period""]",0,[0.29370000000295704],96,0,96,0,1,60edbdf42216cc299770590c,Mężczyzna,22,2021-07-13_21h05.39.624,rantool2,2021.1.4,Win32,60.11060351,60edbdf42216cc299770590c,60d9d14f4a8a35a482e0d9bf,60ede371d734d3c9fd8d7691,,,,,,,,,,,,
"[""comma""]",0,[0.2782000000029825],97,0,97,0,1,60edbdf42216cc299770590c,Mężczyzna,22,2021-07-13_21h05.39.624,rantool2,2021.1.4,Win32,60.11060351,60edbdf42216cc299770590c,60d9d14f4a8a35a482e0d9bf,60ede371d734d3c9fd8d7691,,,,,,,,,,,,
"[""period""]",0,[0.2699999999999818],98,0,98,0,1,60edbdf42216cc299770590c,Mężczyzna,22,2021-07-13_21h05.39.624,rantool2,2021.1.4,Win32,60.11060351,60edbdf42216cc299770590c,60d9d14f4a8a35a482e0d9bf,60ede371d734d3c9fd8d7691,,,,,,,,,,,,
"[""comma""]",0,[0.29470000000299024],99,0,99,0,1,60edbdf42216cc299770590c,Mężczyzna,22,2021-07-13_21h05.39.624,rantool2,2021.1.4,Win32,60.11060351,60edbdf42216cc299770590c,60d9d14f4a8a35a482e0d9bf,60ede371d734d3c9fd8d7691,,,,,,,,,,,,
"[""period""]",0,[0.30320000000295977],100,0,100,0,1,60edbdf42216cc299770590c,Mężczyzna,22,2021-07-13_21h05.39.624,rantool2,2021.1.4,Win32,60.11060351,60edbdf42216cc299770590c,60d9d14f4a8a35a482e0d9bf,60ede371d734d3c9fd8d7691,,,,,,,,,,,,
"[""comma""]",0,[0.5586999999880504],101,0,101,0,1,60edbdf42216cc299770590c,Mężczyzna,22,2021-07-13_21h05.39.624,rantool2,2021.1.4,Win32,60.11060351,60edbdf42216cc299770590c,60d9d14f4a8a35a482e0d9bf,60ede371d734d3c9fd8d7691,,,,,,,,,,,,
"[""period""]",0,[0.2711000000089143],102,0,102,0,1,60edbdf42216cc299770590c,Mężczyzna,22,2021-07-13_21h05.39.624,rantool2,2021.1.4,Win32,60.11060351,60edbdf42216cc299770590c,60d9d14f4a8a35a482e0d9bf,60ede371d734d3c9fd8d7691,,,,,,,,,,,,
"[""comma""]",0,[0.2629999999999768],103,0,103,0,1,60edbdf42216cc299770590c,Mężczyzna,22,2021-07-13_21h05.39.624,rantool2,2021.1.4,Win32,60.11060351,60edbdf42216cc299770590c,60d9d14f4a8a35a482e0d9bf,60ede371d734d3c9fd8d7691,,,,,,,,,,,,
"[""period""]",0,[0.3348999999910234],104,0,104,0,1,60edbdf42216cc299770590c,Mężczyzna,22,2021-07-13_21h05.39.624,rantool2,2021.1.4,Win32,60.11060351,60edbdf42216cc299770590c,60d9d14f4a8a35a482e0d9bf,60ede371d734d3c9fd8d7691,,,,,,,,,,,,
"[""comma""]",0,[0.3595999999940318],105,0,105,0,1,60edbdf42216cc299770590c,Mężczyzna,22,2021-07-13_21h05.39.624,rantool2,2021.1.4,Win32,60.11060351,60edbdf42216cc299770590c,60d9d14f4a8a35a482e0d9bf,60ede371d734d3c9fd8d7691,,,,,,,,,,,,
"[""period""]",0,[0.48739999999111205],106,0,106,0,1,60edbdf42216cc299770590c,Mężczyzna,22,2021-07-13_21h05.39.624,rantool2,2021.1.4,Win32,60.11060351,60edbdf42216cc299770590c,60d9d14f4a8a35a482e0d9bf,60ede371d734d3c9fd8d7691,,,,,,,,,,,,
"[""comma""]",0,[0.5040000000000191],107,0,107,0,1,60edbdf42216cc299770590c,Mężczyzna,22,2021-07-13_21h05.39.624,rantool2,2021.1.4,Win32,60.11060351,60edbdf42216cc299770590c,60d9d14f4a8a35a482e0d9bf,60ede371d734d3c9fd8d7691,,,,,,,,,,,,
"[""period""]",0,[0.5037999999969998],108,0,108,0,1,60edbdf42216cc299770590c,Mężczyzna,22,2021-07-13_21h05.39.624,rantool2,2021.1.4,Win32,60.11060351,60edbdf42216cc299770590c,60d9d14f4a8a35a482e0d9bf,60ede371d734d3c9fd8d7691,,,,,,,,,,,,
"[""comma""]",0,[0.3046000000089748],109,0,109,0,1,60edbdf42216cc299770590c,Mężczyzna,22,2021-07-13_21h05.39.624,rantool2,2021.1.4,Win32,60.11060351,60edbdf42216cc299770590c,60d9d14f4a8a35a482e0d9bf,60ede371d734d3c9fd8d7691,,,,,,,,,,,,
"[""period""]",0,[0.4247000000029857],110,0,110,0,1,60edbdf42216cc299770590c,Mężczyzna,22,2021-07-13_21h05.39.624,rantool2,2021.1.4,Win32,60.11060351,60edbdf42216cc299770590c,60d9d14f4a8a35a482e0d9bf,60ede371d734d3c9fd8d7691,,,,,,,,,,,,
"[""comma""]",0,[0.008000000000038199],111,0,111,0,1,60edbdf42216cc299770590c,Mężczyzna,22,2021-07-13_21h05.39.624,rantool2,2021.1.4,Win32,60.11060351,60edbdf42216cc299770590c,60d9d14f4a8a35a482e0d9bf,60ede371d734d3c9fd8d7691,,,,,,,,,,,,
"[""period""]",0,[0.2411000000089416],112,0,112,0,1,60edbdf42216cc299770590c,Mężczyzna,22,2021-07-13_21h05.39.624,rantool2,2021.1.4,Win32,60.11060351,60edbdf42216cc299770590c,60d9d14f4a8a35a482e0d9bf,60ede371d734d3c9fd8d7691,,,,,,,,,,,,
"[""comma""]",0,[0.18509999999406546],113,0,113,0,1,60edbdf42216cc299770590c,Mężczyzna,22,2021-07-13_21h05.39.624,rantool2,2021.1.4,Win32,60.11060351,60edbdf42216cc299770590c,60d9d14f4a8a35a482e0d9bf,60ede371d734d3c9fd8d7691,,,,,,,,,,,,
"[""period""]",0,[0.33730000001190774],114,0,114,0,1,60edbdf42216cc299770590c,Mężczyzna,22,2021-07-13_21h05.39.624,rantool2,2021.1.4,Win32,60.11060351,60edbdf42216cc299770590c,60d9d14f4a8a35a482e0d9bf,60ede371d734d3c9fd8d7691,,,,,,,,,,,,
"[""comma""]",0,[0.28430000001191047],115,0,115,0,1,60edbdf42216cc299770590c,Mężczyzna,22,2021-07-13_21h05.39.624,rantool2,2021.1.4,Win32,60.11060351,60edbdf42216cc299770590c,60d9d14f4a8a35a482e0d9bf,60ede371d734d3c9fd8d7691,,,,,,,,,,,,
"[""comma""]",0,[0.2677000000029466],116,0,116,0,1,60edbdf42216cc299770590c,Mężczyzna,22,2021-07-13_21h05.39.624,rantool2,2021.1.4,Win32,60.11060351,60edbdf42216cc299770590c,60d9d14f4a8a35a482e0d9bf,60ede371d734d3c9fd8d7691,,,,,,,,,,,,
"[""period""]",0,[0.2514000000059582],117,0,117,0,1,60edbdf42216cc299770590c,Mężczyzna,22,2021-07-13_21h05.39.624,rantool2,2021.1.4,Win32,60.11060351,60edbdf42216cc299770590c,60d9d14f4a8a35a482e0d9bf,60ede371d734d3c9fd8d7691,,,,,,,,,,,,
"[""period""]",0,[0.1334000000059632],118,0,118,0,1,60edbdf42216cc299770590c,Mężczyzna,22,2021-07-13_21h05.39.624,rantool2,2021.1.4,Win32,60.11060351,60edbdf42216cc299770590c,60d9d14f4a8a35a482e0d9bf,60ede371d734d3c9fd8d7691,,,,,,,,,,,,
"[""comma""]",0,[0.13850000000002183],119,0,119,0,1,60edbdf42216cc299770590c,Mężczyzna,22,2021-07-13_21h05.39.624,rantool2,2021.1.4,Win32,60.11060351,60edbdf42216cc299770590c,60d9d14f4a8a35a482e0d9bf,60ede371d734d3c9fd8d7691,,,,,,,,,,,,
,,,,,,,,60edbdf42216cc299770590c,Mężczyzna,22,2021-07-13_21h05.39.624,rantool2,2021.1.4,Win32,60.11060351,60edbdf42216cc299770590c,60d9d14f4a8a35a482e0d9bf,60ede371d734d3c9fd8d7691,f,0.9337,0,0,0,10,1,OOROROO,OOROROR,21.31236711,21.07490964,series_0
,,,,,,,,60edbdf42216cc299770590c,Mężczyzna,22,2021-07-13_21h05.39.624,rantool2,2021.1.4,Win32,60.11060351,60edbdf42216cc299770590c,60d9d14f4a8a35a482e0d9bf,60ede371d734d3c9fd8d7691,j,1.3343,0,1,1,30,1,ORRRROO,ORRRROR,22.46748491,22.03072203,series_0
,,,,,,,,60edbdf42216cc299770590c,Mężczyzna,22,2021-07-13_21h05.39.624,rantool2,2021.1.4,Win32,60.11060351,60edbdf42216cc299770590c,60d9d14f4a8a35a482e0d9bf,60ede371d734d3c9fd8d7691,j,1.6225,0,2,2,32,1,ROOOOOO,ROOOOOR,19.92253567,21.27974287,series_1
,,,,,,,,60edbdf42216cc299770590c,Mężczyzna,22,2021-07-13_21h05.39.624,rantool2,2021.1.4,Win32,60.11060351,60edbdf42216cc299770590c,60d9d14f4a8a35a482e0d9bf,60ede371d734d3c9fd8d7691,f,1.7655,0,3,3,45,1,RORRORO,RORRORR,20.78182524,21.22513037,series_1
,,,,,,,,60edbdf42216cc299770590c,Mężczyzna,22,2021-07-13_21h05.39.624,rantool2,2021.1.4,Win32,60.11060351,60edbdf42216cc299770590c,60d9d14f4a8a35a482e0d9bf,60ede371d734d3c9fd8d7691,j,1.3095,0,4,4,28,1,ORRROOO,ORRROOR,22.24142883,22.53364006,series_1
,,,,,,,,60edbdf42216cc299770590c,Mężczyzna,22,2021-07-13_21h05.39.624,rantool2,2021.1.4,Win32,60.11060351,60edbdf42216cc299770590c,60d9d14f4a8a35a482e0d9bf,60ede371d734d3c9fd8d7691,f,3.5702,0,5,5,39,1,ROORRRO,ROORRRR,21.82425538,21.38562617,series_0
,,,,,,,,60edbdf42216cc299770590c,Mężczyzna,22,2021-07-13_21h05.39.624,rantool2,2021.1.4,Win32,60.11060351,60edbdf42216cc299770590c,60d9d14f4a8a35a482e0d9bf,60ede371d734d3c9fd8d7691,j,2.282,0,6,6,61,1,RRRRORO,RRRRORR,21.81333602,21.17347734,series_0
,,,,,,,,60edbdf42216cc299770590c,Mężczyzna,22,2021-07-13_21h05.39.624,rantool2,2021.1.4,Win32,60.11060351,60edbdf42216cc299770590c,60d9d14f4a8a35a482e0d9bf,60ede371d734d3c9fd8d7691,f,1.5027,0,7,7,16,1,OROOOOO,OROOOOR,20.43051175,21.17347734,series_1
,,,,,,,,60edbdf42216cc299770590c,Mężczyzna,22,2021-07-13_21h05.39.624,rantool2,2021.1.4,Win32,60.11060351,60edbdf42216cc299770590c,60d9d14f4a8a35a482e0d9bf,60ede371d734d3c9fd8d7691,j,1.7702,0,8,8,47,1,RORRRRO,RORRRRR,21.81333602,21.02936224,series_0
,,,,,,,,60edbdf42216cc299770590c,Mężczyzna,22,2021-07-13_21h05.39.624,rantool2,2021.1.4,Win32,60.11060351,60edbdf42216cc299770590c,60d9d14f4a8a35a482e0d9bf,60ede371d734d3c9fd8d7691,f,1.9868,0,9,9,6,1,OOORROO,OOORROR,21.12383932,21.38562617,series_1
,,,,,,,,60edbdf42216cc299770590c,Mężczyzna,22,2021-07-13_21h05.39.624,rantool2,2021.1.4,Win32,60.11060351,60edbdf42216cc299770590c,60d9d14f4a8a35a482e0d9bf,60ede371d734d3c9fd8d7691,j,1.4987,0,10,10,24,1,ORROOOO,ORROOOR,21.12383932,22.07102821,series_1
,,,,,,,,60edbdf42216cc299770590c,Mężczyzna,22,2021-07-13_21h05.39.624,rantool2,2021.1.4,Win32,60.11060351,60edbdf42216cc299770590c,60d9d14f4a8a35a482e0d9bf,60ede371d734d3c9fd8d7691,f,1.7114,0,11,11,20,1,OROROOO,OROROOR,21.31236711,21.90565814,series_1
,,,,,,,,60edbdf42216cc299770590c,Mężczyzna,22,2021-07-13_21h05.39.624,rantool2,2021.1.4,Win32,60.11060351,60edbdf42216cc299770590c,60d9d14f4a8a35a482e0d9bf,60ede371d734d3c9fd8d7691,j,1.026,0,12,12,41,1,ROROORO,ROROORR,20.42602454,21.71443381,series_1
,,,,,,,,60edbdf42216cc299770590c,Mężczyzna,22,2021-07-13_21h05.39.624,rantool2,2021.1.4,Win32,60.11060351,60edbdf42216cc299770590c,60d9d14f4a8a35a482e0d9bf,60ede371d734d3c9fd8d7691,f,1.6671,0,13,13,34,1,ROOOROO,ROOOROR,21.03750787,21.24781509,series_1
,,,,,,,,60edbdf42216cc299770590c,Mężczyzna,22,2021-07-13_21h05.39.624,rantool2,2021.1.4,Win32,60.11060351,60edbdf42216cc299770590c,60d9d14f4a8a35a482e0d9bf,60ede371d734d3c9fd8d7691,j,1.5183,0,14,14,3,1,OOOORRO,OOOORRR,20.90986523,21.74922619,series_1
,,,,,,,,60edbdf42216cc299770590c,Mężczyzna,22,2021-07-13_21h05.39.624,rantool2,2021.1.4,Win32,60.11060351,60edbdf42216cc299770590c,60d9d14f4a8a35a482e0d9bf,60ede371d734d3c9fd8d7691,j,2.8398,0,15,15,5,1,OOORORO,OOORORR,20.87963819,21.9921709,series_1
,,,,,,,,60edbdf42216cc299770590c,Mężczyzna,22,2021-07-13_21h05.39.624,rantool2,2021.1.4,Win32,60.11060351,60edbdf42216cc299770590c,60d9d14f4a8a35a482e0d9bf,60ede371d734d3c9fd8d7691,f,1.134,0,16,16,31,1,ORRRRRO,ORRRRRR,22.16413392,20.74050628,series_0
,,,,,,,,60edbdf42216cc299770590c,Mężczyzna,22,2021-07-13_21h05.39.624,rantool2,2021.1.4,Win32,60.11060351,60edbdf42216cc299770590c,60d9d14f4a8a35a482e0d9bf,60ede371d734d3c9fd8d7691,j,1.0336,0,17,17,26,1,ORROROO,ORROROR,22.02732763,21.71443381,series_0
,,,,,,,,60edbdf42216cc299770590c,Mężczyzna,22,2021-07-13_21h05.39.624,rantool2,2021.1.4,Win32,60.11060351,60edbdf42216cc299770590c,60d9d14f4a8a35a482e0d9bf,60ede371d734d3c9fd8d7691,f,1.0791,0,18,18,19,1,OROORRO,OROORRR,21.73568164,22.11181017,series_1
,,,,,,,,60edbdf42216cc299770590c,Mężczyzna,22,2021-07-13_21h05.39.624,rantool2,2021.1.4,Win32,60.11060351,60edbdf42216cc299770590c,60d9d14f4a8a35a482e0d9bf,60ede371d734d3c9fd8d7691,j,2.5404,0,19,19,60,1,RRRROOO,RRRROOR,22.10108823,22.15934078,series_1
,,,,,,,,60edbdf42216cc299770590c,Mężczyzna,22,2021-07-13_21h05.39.624,rantool2,2021.1.4,Win32,60.11060351,60edbdf42216cc299770590c,60d9d14f4a8a35a482e0d9bf,60ede371d734d3c9fd8d7691,f,1.1896,0,20,20,56,1,RRROOOO,RRROOOR,21.6194508,22.31681875,series_1
,,,,,,,,60edbdf42216cc299770590c,Mężczyzna,22,2021-07-13_21h05.39.624,rantool2,2021.1.4,Win32,60.11060351,60edbdf42216cc299770590c,60d9d14f4a8a35a482e0d9bf,60ede371d734d3c9fd8d7691,j,1.2379,0,21,21,18,1,OROOROO,OROOROR,20.84860893,21.22513037,series_1
,,,,,,,,60edbdf42216cc299770590c,Mężczyzna,22,2021-07-13_21h05.39.624,rantool2,2021.1.4,Win32,60.11060351,60edbdf42216cc299770590c,60d9d14f4a8a35a482e0d9bf,60ede371d734d3c9fd8d7691,j,1.6126,0,22,22,14,1,OORRROO,OORRROR,22.24142883,22.16977179,series_0
,,,,,,,,60edbdf42216cc299770590c,Mężczyzna,22,2021-07-13_21h05.39.624,rantool2,2021.1.4,Win32,60.11060351,60edbdf42216cc299770590c,60d9d14f4a8a35a482e0d9bf,60ede371d734d3c9fd8d7691,f,1.2195,0,23,23,40,1,ROROOOO,ROROOOR,20.87963819,21.37121559,series_1
,,,,,,,,60edbdf42216cc299770590c,Mężczyzna,22,2021-07-13_21h05.39.624,rantool2,2021.1.4,Win32,60.11060351,60edbdf42216cc299770590c,60d9d14f4a8a35a482e0d9bf,60ede371d734d3c9fd8d7691,f,1.3342,0,24,24,27,1,ORRORRO,ORRORRR,21.55250791,22.2428857,series_1
,,,,,,,,60edbdf42216cc299770590c,Mężczyzna,22,2021-07-13_21h05.39.624,rantool2,2021.1.4,Win32,60.11060351,60edbdf42216cc299770590c,60d9d14f4a8a35a482e0d9bf,60ede371d734d3c9fd8d7691,j,1.1724,0,25,25,57,1,RRROORO,RRROORR,21.82425538,22.07102821,series_1
,,,,,,,,60edbdf42216cc299770590c,Mężczyzna,22,2021-07-13_21h05.39.624,rantool2,2021.1.4,Win32,60.11060351,60edbdf42216cc299770590c,60d9d14f4a8a35a482e0d9bf,60ede371d734d3c9fd8d7691,f,0.9402,0,26,26,15,1,OORRRRO,OORRRRR,22.10108823,21.74922619,series_0
,,,,,,,,60edbdf42216cc299770590c,Mężczyzna,22,2021-07-13_21h05.39.624,rantool2,2021.1.4,Win32,60.11060351,60edbdf42216cc299770590c,60d9d14f4a8a35a482e0d9bf,60ede371d734d3c9fd8d7691,f,2.1756,0,27,27,35,1,ROOORRO,ROOORRR,21.76276513,22.16977179,series_1
,,,,,,,,60edbdf42216cc299770590c,Mężczyzna,22,2021-07-13_21h05.39.624,rantool2,2021.1.4,Win32,60.11060351,60edbdf42216cc299770590c,60d9d14f4a8a35a482e0d9bf,60ede371d734d3c9fd8d7691,j,1.2173,0,28,28,0,1,OOOOOOO,OOOOOOR,18.52739004,19.62521613,series_1
,,,,,,,,60edbdf42216cc299770590c,Mężczyzna,22,2021-07-13_21h05.39.624,rantool2,2021.1.4,Win32,60.11060351,60edbdf42216cc299770590c,60d9d14f4a8a35a482e0d9bf,60ede371d734d3c9fd8d7691,f,1.2549,0,29,29,9,1,OOROORO,OOROORR,21.07991943,22.2428857,series_1
,,,,,,,,60edbdf42216cc299770590c,Mężczyzna,22,2021-07-13_21h05.39.624,rantool2,2021.1.4,Win32,60.11060351,60edbdf42216cc299770590c,60d9d14f4a8a35a482e0d9bf,60ede371d734d3c9fd8d7691,j,1.3825,0,30,30,23,1,ORORRRO,ORORRRR,22.1285618,21.9921709,series_0
,,,,,,,,60edbdf42216cc299770590c,Mężczyzna,22,2021-07-13_21h05.39.624,rantool2,2021.1.4,Win32,60.11060351,60edbdf42216cc299770590c,60d9d14f4a8a35a482e0d9bf,60ede371d734d3c9fd8d7691,f,1.2054,0,31,31,53,1,RRORORO,RRORORR,20.71309134,21.90565814,series_1
,,,,,,,,60edbdf42216cc299770590c,Mężczyzna,22,2021-07-13_21h05.39.624,rantool2,2021.1.4,Win32,60.11060351,60edbdf42216cc299770590c,60d9d14f4a8a35a482e0d9bf,60ede371d734d3c9fd8d7691,j,1.8934,0,32,32,2,1,OOOOROO,OOOOROR,20.43051175,21.02936224,series_1
,,,,,,,,60edbdf42216cc299770590c,Mężczyzna,22,2021-07-13_21h05.39.624,rantool2,2021.1.4,Win32,60.11060351,60edbdf42216cc299770590c,60d9d14f4a8a35a482e0d9bf,60ede371d734d3c9fd8d7691,f,1.1047,0,33,33,63,1,RRRRRRO,RRRRRRR,21.35278725,19.62521613,series_0
,,,,,,,,60edbdf42216cc299770590c,Mężczyzna,22,2021-07-13_21h05.39.624,rantool2,2021.1.4,Win32,60.11060351,60edbdf42216cc299770590c,60d9d14f4a8a35a482e0d9bf,60ede371d734d3c9fd8d7691,j,1.1082,0,34,34,22,1,ORORROO,ORORROR,22.02732763,21.57657071,series_0
,,,,,,,,60edbdf42216cc299770590c,Mężczyzna,22,2021-07-13_21h05.39.624,rantool2,2021.1.4,Win32,60.11060351,60edbdf42216cc299770590c,60d9d14f4a8a35a482e0d9bf,60ede371d734d3c9fd8d7691,f,1.249,0,35,35,1,1,OOOOORO,OOOOORR,19.92253567,20.74050628,series_1
,,,,,,,,60edbdf42216cc299770590c,Mężczyzna,22,2021-07-13_21h05.39.624,rantool2,2021.1.4,Win32,60.11060351,60edbdf42216cc299770590c,60d9d14f4a8a35a482e0d9bf,60ede371d734d3c9fd8d7691,f,1.1245,0,36,36,17,1,OROOORO,OROOORR,21.03750787,22.12173012,series_1
,,,,,,,,60edbdf42216cc299770590c,Mężczyzna,22,2021-07-13_21h05.39.624,rantool2,2021.1.4,Win32,60.11060351,60edbdf42216cc299770590c,60d9d14f4a8a35a482e0d9bf,60ede371d734d3c9fd8d7691,j,1.0397,0,37,37,25,1,ORROORO,ORROORR,21.79500819,22.61624387,series_1
,,,,,,,,60edbdf42216cc299770590c,Mężczyzna,22,2021-07-13_21h05.39.624,rantool2,2021.1.4,Win32,60.11060351,60edbdf42216cc299770590c,60d9d14f4a8a35a482e0d9bf,60ede371d734d3c9fd8d7691,f,1.031,0,38,38,13,1,OORRORO,OORRORR,21.66733484,22.11181017,series_1
,,,,,,,,60edbdf42216cc299770590c,Mężczyzna,22,2021-07-13_21h05.39.624,rantool2,2021.1.4,Win32,60.11060351,60edbdf42216cc299770590c,60d9d14f4a8a35a482e0d9bf,60ede371d734d3c9fd8d7691,j,0.9875,0,39,39,33,1,ROOOORO,ROOOORR,20.83779602,22.03072203,series_1
,,,,,,,,60edbdf42216cc299770590c,Mężczyzna,22,2021-07-13_21h05.39.624,rantool2,2021.1.4,Win32,60.11060351,60edbdf42216cc299770590c,60d9d14f4a8a35a482e0d9bf,60ede371d734d3c9fd8d7691,j,1.5081,0,40,40,54,1,RRORROO,RRORROR,21.55250791,20.9984461,series_0
,,,,,,,,60edbdf42216cc299770590c,Mężczyzna,22,2021-07-13_21h05.39.624,rantool2,2021.1.4,Win32,60.11060351,60edbdf42216cc299770590c,60d9d14f4a8a35a482e0d9bf,60ede371d734d3c9fd8d7691,f,0.888,0,41,41,37,1,ROORORO,ROORORR,20.42602454,21.57657071,series_1
,,,,,,,,60edbdf42216cc299770590c,Mężczyzna,22,2021-07-13_21h05.39.624,rantool2,2021.1.4,Win32,60.11060351,60edbdf42216cc299770590c,60d9d14f4a8a35a482e0d9bf,60ede371d734d3c9fd8d7691,j,0.5824,0,42,42,38,1,ROORROO,ROORROR,21.79500819,21.36812781,series_0
,,,,,,,,60edbdf42216cc299770590c,Mężczyzna,22,2021-07-13_21h05.39.624,rantool2,2021.1.4,Win32,60.11060351,60edbdf42216cc299770590c,60d9d14f4a8a35a482e0d9bf,60ede371d734d3c9fd8d7691,f,0.9081,0,43,43,48,1,RROOOOO,RROOOOR,20.90986523,22.15934078,series_1
,,,,,,,,60edbdf42216cc299770590c,Mężczyzna,22,2021-07-13_21h05.39.624,rantool2,2021.1.4,Win32,60.11060351,60edbdf42216cc299770590c,60d9d14f4a8a35a482e0d9bf,60ede371d734d3c9fd8d7691,j,0.9437,0,44,44,12,1,OORROOO,OORROOR,21.30250474,22.02786418,series_1
,,,,,,,,60edbdf42216cc299770590c,Mężczyzna,22,2021-07-13_21h05.39.624,rantool2,2021.1.4,Win32,60.11060351,60edbdf42216cc299770590c,60d9d14f4a8a35a482e0d9bf,60ede371d734d3c9fd8d7691,f,0.9373,0,45,45,49,1,RROOORO,RROOORR,21.76276513,22.53364006,series_1
,,,,,,,,60edbdf42216cc299770590c,Mężczyzna,22,2021-07-13_21h05.39.624,rantool2,2021.1.4,Win32,60.11060351,60edbdf42216cc299770590c,60d9d14f4a8a35a482e0d9bf,60ede371d734d3c9fd8d7691,j,0.7713,0,46,46,8,1,OOROOOO,OOROOOR,19.91402015,20.89823192,series_1
,,,,,,,,60edbdf42216cc299770590c,Mężczyzna,22,2021-07-13_21h05.39.624,rantool2,2021.1.4,Win32,60.11060351,60edbdf42216cc299770590c,60d9d14f4a8a35a482e0d9bf,60ede371d734d3c9fd8d7691,f,2.3731,0,47,47,7,1,OOORRRO,OOORRRR,21.6194508,21.899017,series_1
,,,,,,,,60edbdf42216cc299770590c,Mężczyzna,22,2021-07-13_21h05.39.624,rantool2,2021.1.4,Win32,60.11060351,60edbdf42216cc299770590c,60d9d14f4a8a35a482e0d9bf,60ede371d734d3c9fd8d7691,f,1.2372,0,48,48,11,1,OORORRO,OORORRR,22.18365867,22.6797523,series_1
,,,,,,,,60edbdf42216cc299770590c,Mężczyzna,22,2021-07-13_21h05.39.624,rantool2,2021.1.4,Win32,60.11060351,60edbdf42216cc299770590c,60d9d14f4a8a35a482e0d9bf,60ede371d734d3c9fd8d7691,f,1.765,0,49,49,51,1,RROORRO,RROORRR,21.89852628,22.02786418,series_1
,,,,,,,,60edbdf42216cc299770590c,Mężczyzna,22,2021-07-13_21h05.39.624,rantool2,2021.1.4,Win32,60.11060351,60edbdf42216cc299770590c,60d9d14f4a8a35a482e0d9bf,60ede371d734d3c9fd8d7691,j,1.7822,0,50,50,44,1,RORROOO,RORROOR,21.66733484,22.02566557,series_1
,,,,,,,,60edbdf42216cc299770590c,Mężczyzna,22,2021-07-13_21h05.39.624,rantool2,2021.1.4,Win32,60.11060351,60edbdf42216cc299770590c,60d9d14f4a8a35a482e0d9bf,60ede371d734d3c9fd8d7691,f,1.2847,0,51,51,58,1,RRROROO,RRROROR,22.1285618,21.37121559,series_0
,,,,,,,,60edbdf42216cc299770590c,Mężczyzna,22,2021-07-13_21h05.39.624,rantool2,2021.1.4,Win32,60.11060351,60edbdf42216cc299770590c,60d9d14f4a8a35a482e0d9bf,60ede371d734d3c9fd8d7691,j,1.3683,0,52,52,42,1,ROROROO,ROROROR,20.39515459,19.8361834,series_0
,,,,,,,,60edbdf42216cc299770590c,Mężczyzna,22,2021-07-13_21h05.39.624,rantool2,2021.1.4,Win32,60.11060351,60edbdf42216cc299770590c,60d9d14f4a8a35a482e0d9bf,60ede371d734d3c9fd8d7691,f,1.2658,0,53,53,36,1,ROOROOO,ROOROOR,21.07991943,20.9984461,series_0
,,,,,,,,60edbdf42216cc299770590c,Mężczyzna,22,2021-07-13_21h05.39.624,rantool2,2021.1.4,Win32,60.11060351,60edbdf42216cc299770590c,60d9d14f4a8a35a482e0d9bf,60ede371d734d3c9fd8d7691,j,2.1578,0,54,54,59,1,RRRORRO,RRRORRR,21.56657303,20.89823192,series_0
,,,,,,,,60edbdf42216cc299770590c,Mężczyzna,22,2021-07-13_21h05.39.624,rantool2,2021.1.4,Win32,60.11060351,60edbdf42216cc299770590c,60d9d14f4a8a35a482e0d9bf,60ede371d734d3c9fd8d7691,f,2.8232,0,55,55,50,1,RROOROO,RROOROR,21.73568164,22.02566557,series_1
,,,,,,,,60edbdf42216cc299770590c,Mężczyzna,22,2021-07-13_21h05.39.624,rantool2,2021.1.4,Win32,60.11060351,60edbdf42216cc299770590c,60d9d14f4a8a35a482e0d9bf,60ede371d734d3c9fd8d7691,j,3.9274,0,56,56,21,1,ORORORO,ORORORR,20.39515459,22.06781359,series_1
,,,,,,,,60edbdf42216cc299770590c,Mężczyzna,22,2021-07-13_21h05.39.624,rantool2,2021.1.4,Win32,60.11060351,60edbdf42216cc299770590c,60d9d14f4a8a35a482e0d9bf,60ede371d734d3c9fd8d7691,f,1.2018,0,57,57,4,1,OOOROOO,OOOROOR,19.91402015,21.21223021,series_1
,,,,,,,,60edbdf42216cc299770590c,Mężczyzna,22,2021-07-13_21h05.39.624,rantool2,2021.1.4,Win32,60.11060351,60edbdf42216cc299770590c,60d9d14f4a8a35a482e0d9bf,60ede371d734d3c9fd8d7691,j,2.618,0,58,58,52,1,RROROOO,RROROOR,22.18365867,22.11097995,series_0
,,,,,,,,60edbdf42216cc299770590c,Mężczyzna,22,2021-07-13_21h05.39.624,rantool2,2021.1.4,Win32,60.11060351,60edbdf42216cc299770590c,60d9d14f4a8a35a482e0d9bf,60ede371d734d3c9fd8d7691,f,1.9358,0,59,59,62,1,RRRRROO,RRRRROR,22.16413392,21.27974287,series_0
,,,,,,,,60edbdf42216cc299770590c,Mężczyzna,22,2021-07-13_21h05.39.624,rantool2,2021.1.4,Win32,60.11060351,60edbdf42216cc299770590c,60d9d14f4a8a35a482e0d9bf,60ede371d734d3c9fd8d7691,f,3.6188,0,60,60,29,1,ORRRORO,ORRRORR,22.00300695,22.12173012,series_1
,,,,,,,,60edbdf42216cc299770590c,Mężczyzna,22,2021-07-13_21h05.39.624,rantool2,2021.1.4,Win32,60.11060351,60edbdf42216cc299770590c,60d9d14f4a8a35a482e0d9bf,60ede371d734d3c9fd8d7691,j,1.7154,0,61,61,43,1,RORORRO,RORORRR,20.71309134,21.07490964,series_1
,,,,,,,,60edbdf42216cc299770590c,Mężczyzna,22,2021-07-13_21h05.39.624,rantool2,2021.1.4,Win32,60.11060351,60edbdf42216cc299770590c,60d9d14f4a8a35a482e0d9bf,60ede371d734d3c9fd8d7691,f,0.94,0,62,62,55,1,RRORRRO,RRORRRR,21.56657303,21.21223021,series_0
,,,,,,,,60edbdf42216cc299770590c,Mężczyzna,22,2021-07-13_21h05.39.624,rantool2,2021.1.4,Win32,60.11060351,60edbdf42216cc299770590c,60d9d14f4a8a35a482e0d9bf,60ede371d734d3c9fd8d7691,j,3.3255,0,63,63,46,1,RORRROO,RORRROR,22.00300695,21.24781509,series_0
