key_resp_7.keys,key_resp_7.rt,trials_2.thisRepN,trials_2.thisTrialN,trials_2.thisN,trials_2.thisIndex,trials_2.ran,id,series_0,series_1,acss_0,acss_1,comparison,id*,Płeć*,Wiek*,date,expName,psychopyVersion,OS,frameRate,STUDY_ID,SESSION_ID,key_resp_5.keys,key_resp_5.corr,key_resp_5.rt,trials.thisRepN,trials.thisTrialN,trials.thisN,trials.thisIndex,trials.ran
j,1.2523,0,0,0,15,1,5e8a061b497d61038af39539,OORRRRO,OORRRRR,22.10108823,21.74922619,series_0,5e8a061b497d61038af39539,Mężczyzna,19,2021-09-06_19h02.29.646,rantool2,2021.1.4,Win32,59.91611744,6135e006383e6ea6c3d06a28,6136493191d3de7c0d887431,,,,,,,,
f,1.7365,0,1,1,54,1,5e8a061b497d61038af39539,RRORROO,RRORROR,21.55250791,20.9984461,series_0,5e8a061b497d61038af39539,Mężczyzna,19,2021-09-06_19h02.29.646,rantool2,2021.1.4,Win32,59.91611744,6135e006383e6ea6c3d06a28,6136493191d3de7c0d887431,,,,,,,,
f,1.6255,0,2,2,63,1,5e8a061b497d61038af39539,RRRRRRO,RRRRRRR,21.35278725,19.62521613,series_0,5e8a061b497d61038af39539,Mężczyzna,19,2021-09-06_19h02.29.646,rantool2,2021.1.4,Win32,59.91611744,6135e006383e6ea6c3d06a28,6136493191d3de7c0d887431,,,,,,,,
f,2.5246,0,3,3,6,1,5e8a061b497d61038af39539,OOORROO,OOORROR,21.12383932,21.38562617,series_1,5e8a061b497d61038af39539,Mężczyzna,19,2021-09-06_19h02.29.646,rantool2,2021.1.4,Win32,59.91611744,6135e006383e6ea6c3d06a28,6136493191d3de7c0d887431,,,,,,,,
f,2.8609,0,4,4,55,1,5e8a061b497d61038af39539,RRORRRO,RRORRRR,21.56657303,21.21223021,series_0,5e8a061b497d61038af39539,Mężczyzna,19,2021-09-06_19h02.29.646,rantool2,2021.1.4,Win32,59.91611744,6135e006383e6ea6c3d06a28,6136493191d3de7c0d887431,,,,,,,,
f,2.3616,0,5,5,32,1,5e8a061b497d61038af39539,ROOOOOO,ROOOOOR,19.92253567,21.27974287,series_1,5e8a061b497d61038af39539,Mężczyzna,19,2021-09-06_19h02.29.646,rantool2,2021.1.4,Win32,59.91611744,6135e006383e6ea6c3d06a28,6136493191d3de7c0d887431,,,,,,,,
j,2.1243,0,6,6,40,1,5e8a061b497d61038af39539,ROROOOO,ROROOOR,20.87963819,21.37121559,series_1,5e8a061b497d61038af39539,Mężczyzna,19,2021-09-06_19h02.29.646,rantool2,2021.1.4,Win32,59.91611744,6135e006383e6ea6c3d06a28,6136493191d3de7c0d887431,,,,,,,,
f,2.4554,0,7,7,7,1,5e8a061b497d61038af39539,OOORRRO,OOORRRR,21.6194508,21.899017,series_1,5e8a061b497d61038af39539,Mężczyzna,19,2021-09-06_19h02.29.646,rantool2,2021.1.4,Win32,59.91611744,6135e006383e6ea6c3d06a28,6136493191d3de7c0d887431,,,,,,,,
j,2.2707,0,8,8,62,1,5e8a061b497d61038af39539,RRRRROO,RRRRROR,22.16413392,21.27974287,series_0,5e8a061b497d61038af39539,Mężczyzna,19,2021-09-06_19h02.29.646,rantool2,2021.1.4,Win32,59.91611744,6135e006383e6ea6c3d06a28,6136493191d3de7c0d887431,,,,,,,,
j,2.5509,0,9,9,17,1,5e8a061b497d61038af39539,OROOORO,OROOORR,21.03750787,22.12173012,series_1,5e8a061b497d61038af39539,Mężczyzna,19,2021-09-06_19h02.29.646,rantool2,2021.1.4,Win32,59.91611744,6135e006383e6ea6c3d06a28,6136493191d3de7c0d887431,,,,,,,,
j,1.6961,0,10,10,48,1,5e8a061b497d61038af39539,RROOOOO,RROOOOR,20.90986523,22.15934078,series_1,5e8a061b497d61038af39539,Mężczyzna,19,2021-09-06_19h02.29.646,rantool2,2021.1.4,Win32,59.91611744,6135e006383e6ea6c3d06a28,6136493191d3de7c0d887431,,,,,,,,
f,1.1344,0,11,11,56,1,5e8a061b497d61038af39539,RRROOOO,RRROOOR,21.6194508,22.31681875,series_1,5e8a061b497d61038af39539,Mężczyzna,19,2021-09-06_19h02.29.646,rantool2,2021.1.4,Win32,59.91611744,6135e006383e6ea6c3d06a28,6136493191d3de7c0d887431,,,,,,,,
f,1.6914,0,12,12,51,1,5e8a061b497d61038af39539,RROORRO,RROORRR,21.89852628,22.02786418,series_1,5e8a061b497d61038af39539,Mężczyzna,19,2021-09-06_19h02.29.646,rantool2,2021.1.4,Win32,59.91611744,6135e006383e6ea6c3d06a28,6136493191d3de7c0d887431,,,,,,,,
f,1.3111,0,13,13,10,1,5e8a061b497d61038af39539,OOROROO,OOROROR,21.31236711,21.07490964,series_0,5e8a061b497d61038af39539,Mężczyzna,19,2021-09-06_19h02.29.646,rantool2,2021.1.4,Win32,59.91611744,6135e006383e6ea6c3d06a28,6136493191d3de7c0d887431,,,,,,,,
j,1.4875,0,14,14,35,1,5e8a061b497d61038af39539,ROOORRO,ROOORRR,21.76276513,22.16977179,series_1,5e8a061b497d61038af39539,Mężczyzna,19,2021-09-06_19h02.29.646,rantool2,2021.1.4,Win32,59.91611744,6135e006383e6ea6c3d06a28,6136493191d3de7c0d887431,,,,,,,,
f,1.6013,0,15,15,21,1,5e8a061b497d61038af39539,ORORORO,ORORORR,20.39515459,22.06781359,series_1,5e8a061b497d61038af39539,Mężczyzna,19,2021-09-06_19h02.29.646,rantool2,2021.1.4,Win32,59.91611744,6135e006383e6ea6c3d06a28,6136493191d3de7c0d887431,,,,,,,,
j,2.1074,0,16,16,2,1,5e8a061b497d61038af39539,OOOOROO,OOOOROR,20.43051175,21.02936224,series_1,5e8a061b497d61038af39539,Mężczyzna,19,2021-09-06_19h02.29.646,rantool2,2021.1.4,Win32,59.91611744,6135e006383e6ea6c3d06a28,6136493191d3de7c0d887431,,,,,,,,
f,1.6795,0,17,17,61,1,5e8a061b497d61038af39539,RRRRORO,RRRRORR,21.81333602,21.17347734,series_0,5e8a061b497d61038af39539,Mężczyzna,19,2021-09-06_19h02.29.646,rantool2,2021.1.4,Win32,59.91611744,6135e006383e6ea6c3d06a28,6136493191d3de7c0d887431,,,,,,,,
j,1.9748,0,18,18,60,1,5e8a061b497d61038af39539,RRRROOO,RRRROOR,22.10108823,22.15934078,series_1,5e8a061b497d61038af39539,Mężczyzna,19,2021-09-06_19h02.29.646,rantool2,2021.1.4,Win32,59.91611744,6135e006383e6ea6c3d06a28,6136493191d3de7c0d887431,,,,,,,,
f,1.8011,0,19,19,29,1,5e8a061b497d61038af39539,ORRRORO,ORRRORR,22.00300695,22.12173012,series_1,5e8a061b497d61038af39539,Mężczyzna,19,2021-09-06_19h02.29.646,rantool2,2021.1.4,Win32,59.91611744,6135e006383e6ea6c3d06a28,6136493191d3de7c0d887431,,,,,,,,
f,1.5683,0,20,20,41,1,5e8a061b497d61038af39539,ROROORO,ROROORR,20.42602454,21.71443381,series_1,5e8a061b497d61038af39539,Mężczyzna,19,2021-09-06_19h02.29.646,rantool2,2021.1.4,Win32,59.91611744,6135e006383e6ea6c3d06a28,6136493191d3de7c0d887431,,,,,,,,
j,1.0939,0,21,21,27,1,5e8a061b497d61038af39539,ORRORRO,ORRORRR,21.55250791,22.2428857,series_1,5e8a061b497d61038af39539,Mężczyzna,19,2021-09-06_19h02.29.646,rantool2,2021.1.4,Win32,59.91611744,6135e006383e6ea6c3d06a28,6136493191d3de7c0d887431,,,,,,,,
j,1.0768,0,22,22,30,1,5e8a061b497d61038af39539,ORRRROO,ORRRROR,22.46748491,22.03072203,series_0,5e8a061b497d61038af39539,Mężczyzna,19,2021-09-06_19h02.29.646,rantool2,2021.1.4,Win32,59.91611744,6135e006383e6ea6c3d06a28,6136493191d3de7c0d887431,,,,,,,,
f,0.973,0,23,23,12,1,5e8a061b497d61038af39539,OORROOO,OORROOR,21.30250474,22.02786418,series_1,5e8a061b497d61038af39539,Mężczyzna,19,2021-09-06_19h02.29.646,rantool2,2021.1.4,Win32,59.91611744,6135e006383e6ea6c3d06a28,6136493191d3de7c0d887431,,,,,,,,
f,1.433,0,24,24,26,1,5e8a061b497d61038af39539,ORROROO,ORROROR,22.02732763,21.71443381,series_0,5e8a061b497d61038af39539,Mężczyzna,19,2021-09-06_19h02.29.646,rantool2,2021.1.4,Win32,59.91611744,6135e006383e6ea6c3d06a28,6136493191d3de7c0d887431,,,,,,,,
j,1.3187,0,25,25,20,1,5e8a061b497d61038af39539,OROROOO,OROROOR,21.31236711,21.90565814,series_1,5e8a061b497d61038af39539,Mężczyzna,19,2021-09-06_19h02.29.646,rantool2,2021.1.4,Win32,59.91611744,6135e006383e6ea6c3d06a28,6136493191d3de7c0d887431,,,,,,,,
j,1.442,0,26,26,23,1,5e8a061b497d61038af39539,ORORRRO,ORORRRR,22.1285618,21.9921709,series_0,5e8a061b497d61038af39539,Mężczyzna,19,2021-09-06_19h02.29.646,rantool2,2021.1.4,Win32,59.91611744,6135e006383e6ea6c3d06a28,6136493191d3de7c0d887431,,,,,,,,
j,2.0447,0,27,27,47,1,5e8a061b497d61038af39539,RORRRRO,RORRRRR,21.81333602,21.02936224,series_0,5e8a061b497d61038af39539,Mężczyzna,19,2021-09-06_19h02.29.646,rantool2,2021.1.4,Win32,59.91611744,6135e006383e6ea6c3d06a28,6136493191d3de7c0d887431,,,,,,,,
f,1.8557,0,28,28,22,1,5e8a061b497d61038af39539,ORORROO,ORORROR,22.02732763,21.57657071,series_0,5e8a061b497d61038af39539,Mężczyzna,19,2021-09-06_19h02.29.646,rantool2,2021.1.4,Win32,59.91611744,6135e006383e6ea6c3d06a28,6136493191d3de7c0d887431,,,,,,,,
f,2.3428,0,29,29,46,1,5e8a061b497d61038af39539,RORRROO,RORRROR,22.00300695,21.24781509,series_0,5e8a061b497d61038af39539,Mężczyzna,19,2021-09-06_19h02.29.646,rantool2,2021.1.4,Win32,59.91611744,6135e006383e6ea6c3d06a28,6136493191d3de7c0d887431,,,,,,,,
j,2.5232,0,30,30,34,1,5e8a061b497d61038af39539,ROOOROO,ROOOROR,21.03750787,21.24781509,series_1,5e8a061b497d61038af39539,Mężczyzna,19,2021-09-06_19h02.29.646,rantool2,2021.1.4,Win32,59.91611744,6135e006383e6ea6c3d06a28,6136493191d3de7c0d887431,,,,,,,,
f,2.4037,0,31,31,58,1,5e8a061b497d61038af39539,RRROROO,RRROROR,22.1285618,21.37121559,series_0,5e8a061b497d61038af39539,Mężczyzna,19,2021-09-06_19h02.29.646,rantool2,2021.1.4,Win32,59.91611744,6135e006383e6ea6c3d06a28,6136493191d3de7c0d887431,,,,,,,,
f,1.9034,0,32,32,49,1,5e8a061b497d61038af39539,RROOORO,RROOORR,21.76276513,22.53364006,series_1,5e8a061b497d61038af39539,Mężczyzna,19,2021-09-06_19h02.29.646,rantool2,2021.1.4,Win32,59.91611744,6135e006383e6ea6c3d06a28,6136493191d3de7c0d887431,,,,,,,,
f,3.8486,0,33,33,45,1,5e8a061b497d61038af39539,RORRORO,RORRORR,20.78182524,21.22513037,series_1,5e8a061b497d61038af39539,Mężczyzna,19,2021-09-06_19h02.29.646,rantool2,2021.1.4,Win32,59.91611744,6135e006383e6ea6c3d06a28,6136493191d3de7c0d887431,,,,,,,,
j,1.8633,0,34,34,36,1,5e8a061b497d61038af39539,ROOROOO,ROOROOR,21.07991943,20.9984461,series_0,5e8a061b497d61038af39539,Mężczyzna,19,2021-09-06_19h02.29.646,rantool2,2021.1.4,Win32,59.91611744,6135e006383e6ea6c3d06a28,6136493191d3de7c0d887431,,,,,,,,
j,2.3188,0,35,35,14,1,5e8a061b497d61038af39539,OORRROO,OORRROR,22.24142883,22.16977179,series_0,5e8a061b497d61038af39539,Mężczyzna,19,2021-09-06_19h02.29.646,rantool2,2021.1.4,Win32,59.91611744,6135e006383e6ea6c3d06a28,6136493191d3de7c0d887431,,,,,,,,
f,2.3062,0,36,36,57,1,5e8a061b497d61038af39539,RRROORO,RRROORR,21.82425538,22.07102821,series_1,5e8a061b497d61038af39539,Mężczyzna,19,2021-09-06_19h02.29.646,rantool2,2021.1.4,Win32,59.91611744,6135e006383e6ea6c3d06a28,6136493191d3de7c0d887431,,,,,,,,
j,1.5238,0,37,37,38,1,5e8a061b497d61038af39539,ROORROO,ROORROR,21.79500819,21.36812781,series_0,5e8a061b497d61038af39539,Mężczyzna,19,2021-09-06_19h02.29.646,rantool2,2021.1.4,Win32,59.91611744,6135e006383e6ea6c3d06a28,6136493191d3de7c0d887431,,,,,,,,
f,1.9815,0,38,38,11,1,5e8a061b497d61038af39539,OORORRO,OORORRR,22.18365867,22.6797523,series_1,5e8a061b497d61038af39539,Mężczyzna,19,2021-09-06_19h02.29.646,rantool2,2021.1.4,Win32,59.91611744,6135e006383e6ea6c3d06a28,6136493191d3de7c0d887431,,,,,,,,
f,1.5796,0,39,39,8,1,5e8a061b497d61038af39539,OOROOOO,OOROOOR,19.91402015,20.89823192,series_1,5e8a061b497d61038af39539,Mężczyzna,19,2021-09-06_19h02.29.646,rantool2,2021.1.4,Win32,59.91611744,6135e006383e6ea6c3d06a28,6136493191d3de7c0d887431,,,,,,,,
j,1.5511,0,40,40,0,1,5e8a061b497d61038af39539,OOOOOOO,OOOOOOR,18.52739004,19.62521613,series_1,5e8a061b497d61038af39539,Mężczyzna,19,2021-09-06_19h02.29.646,rantool2,2021.1.4,Win32,59.91611744,6135e006383e6ea6c3d06a28,6136493191d3de7c0d887431,,,,,,,,
j,2.9874,0,41,41,59,1,5e8a061b497d61038af39539,RRRORRO,RRRORRR,21.56657303,20.89823192,series_0,5e8a061b497d61038af39539,Mężczyzna,19,2021-09-06_19h02.29.646,rantool2,2021.1.4,Win32,59.91611744,6135e006383e6ea6c3d06a28,6136493191d3de7c0d887431,,,,,,,,
j,2.1681,0,42,42,43,1,5e8a061b497d61038af39539,RORORRO,RORORRR,20.71309134,21.07490964,series_1,5e8a061b497d61038af39539,Mężczyzna,19,2021-09-06_19h02.29.646,rantool2,2021.1.4,Win32,59.91611744,6135e006383e6ea6c3d06a28,6136493191d3de7c0d887431,,,,,,,,
f,1.7451,0,43,43,39,1,5e8a061b497d61038af39539,ROORRRO,ROORRRR,21.82425538,21.38562617,series_0,5e8a061b497d61038af39539,Mężczyzna,19,2021-09-06_19h02.29.646,rantool2,2021.1.4,Win32,59.91611744,6135e006383e6ea6c3d06a28,6136493191d3de7c0d887431,,,,,,,,
j,1.3832,0,44,44,4,1,5e8a061b497d61038af39539,OOOROOO,OOOROOR,19.91402015,21.21223021,series_1,5e8a061b497d61038af39539,Mężczyzna,19,2021-09-06_19h02.29.646,rantool2,2021.1.4,Win32,59.91611744,6135e006383e6ea6c3d06a28,6136493191d3de7c0d887431,,,,,,,,
j,2.0763,0,45,45,25,1,5e8a061b497d61038af39539,ORROORO,ORROORR,21.79500819,22.61624387,series_1,5e8a061b497d61038af39539,Mężczyzna,19,2021-09-06_19h02.29.646,rantool2,2021.1.4,Win32,59.91611744,6135e006383e6ea6c3d06a28,6136493191d3de7c0d887431,,,,,,,,
j,1.3975,0,46,46,52,1,5e8a061b497d61038af39539,RROROOO,RROROOR,22.18365867,22.11097995,series_0,5e8a061b497d61038af39539,Mężczyzna,19,2021-09-06_19h02.29.646,rantool2,2021.1.4,Win32,59.91611744,6135e006383e6ea6c3d06a28,6136493191d3de7c0d887431,,,,,,,,
j,1.5889,0,47,47,33,1,5e8a061b497d61038af39539,ROOOORO,ROOOORR,20.83779602,22.03072203,series_1,5e8a061b497d61038af39539,Mężczyzna,19,2021-09-06_19h02.29.646,rantool2,2021.1.4,Win32,59.91611744,6135e006383e6ea6c3d06a28,6136493191d3de7c0d887431,,,,,,,,
j,1.4567,0,48,48,24,1,5e8a061b497d61038af39539,ORROOOO,ORROOOR,21.12383932,22.07102821,series_1,5e8a061b497d61038af39539,Mężczyzna,19,2021-09-06_19h02.29.646,rantool2,2021.1.4,Win32,59.91611744,6135e006383e6ea6c3d06a28,6136493191d3de7c0d887431,,,,,,,,
f,1.3787,0,49,49,31,1,5e8a061b497d61038af39539,ORRRRRO,ORRRRRR,22.16413392,20.74050628,series_0,5e8a061b497d61038af39539,Mężczyzna,19,2021-09-06_19h02.29.646,rantool2,2021.1.4,Win32,59.91611744,6135e006383e6ea6c3d06a28,6136493191d3de7c0d887431,,,,,,,,
f,0.9666,0,50,50,53,1,5e8a061b497d61038af39539,RRORORO,RRORORR,20.71309134,21.90565814,series_1,5e8a061b497d61038af39539,Mężczyzna,19,2021-09-06_19h02.29.646,rantool2,2021.1.4,Win32,59.91611744,6135e006383e6ea6c3d06a28,6136493191d3de7c0d887431,,,,,,,,
f,1.8415,0,51,51,5,1,5e8a061b497d61038af39539,OOORORO,OOORORR,20.87963819,21.9921709,series_1,5e8a061b497d61038af39539,Mężczyzna,19,2021-09-06_19h02.29.646,rantool2,2021.1.4,Win32,59.91611744,6135e006383e6ea6c3d06a28,6136493191d3de7c0d887431,,,,,,,,
j,1.3861,0,52,52,44,1,5e8a061b497d61038af39539,RORROOO,RORROOR,21.66733484,22.02566557,series_1,5e8a061b497d61038af39539,Mężczyzna,19,2021-09-06_19h02.29.646,rantool2,2021.1.4,Win32,59.91611744,6135e006383e6ea6c3d06a28,6136493191d3de7c0d887431,,,,,,,,
f,2.4383,0,53,53,13,1,5e8a061b497d61038af39539,OORRORO,OORRORR,21.66733484,22.11181017,series_1,5e8a061b497d61038af39539,Mężczyzna,19,2021-09-06_19h02.29.646,rantool2,2021.1.4,Win32,59.91611744,6135e006383e6ea6c3d06a28,6136493191d3de7c0d887431,,,,,,,,
f,1.5032,0,54,54,3,1,5e8a061b497d61038af39539,OOOORRO,OOOORRR,20.90986523,21.74922619,series_1,5e8a061b497d61038af39539,Mężczyzna,19,2021-09-06_19h02.29.646,rantool2,2021.1.4,Win32,59.91611744,6135e006383e6ea6c3d06a28,6136493191d3de7c0d887431,,,,,,,,
j,1.4686,0,55,55,9,1,5e8a061b497d61038af39539,OOROORO,OOROORR,21.07991943,22.2428857,series_1,5e8a061b497d61038af39539,Mężczyzna,19,2021-09-06_19h02.29.646,rantool2,2021.1.4,Win32,59.91611744,6135e006383e6ea6c3d06a28,6136493191d3de7c0d887431,,,,,,,,
f,1.1044,0,56,56,19,1,5e8a061b497d61038af39539,OROORRO,OROORRR,21.73568164,22.11181017,series_1,5e8a061b497d61038af39539,Mężczyzna,19,2021-09-06_19h02.29.646,rantool2,2021.1.4,Win32,59.91611744,6135e006383e6ea6c3d06a28,6136493191d3de7c0d887431,,,,,,,,
j,1.0471,0,57,57,18,1,5e8a061b497d61038af39539,OROOROO,OROOROR,20.84860893,21.22513037,series_1,5e8a061b497d61038af39539,Mężczyzna,19,2021-09-06_19h02.29.646,rantool2,2021.1.4,Win32,59.91611744,6135e006383e6ea6c3d06a28,6136493191d3de7c0d887431,,,,,,,,
j,1.0208,0,58,58,1,1,5e8a061b497d61038af39539,OOOOORO,OOOOORR,19.92253567,20.74050628,series_1,5e8a061b497d61038af39539,Mężczyzna,19,2021-09-06_19h02.29.646,rantool2,2021.1.4,Win32,59.91611744,6135e006383e6ea6c3d06a28,6136493191d3de7c0d887431,,,,,,,,
f,0.9295,0,59,59,42,1,5e8a061b497d61038af39539,ROROROO,ROROROR,20.39515459,19.8361834,series_0,5e8a061b497d61038af39539,Mężczyzna,19,2021-09-06_19h02.29.646,rantool2,2021.1.4,Win32,59.91611744,6135e006383e6ea6c3d06a28,6136493191d3de7c0d887431,,,,,,,,
j,1.159,0,60,60,50,1,5e8a061b497d61038af39539,RROOROO,RROOROR,21.73568164,22.02566557,series_1,5e8a061b497d61038af39539,Mężczyzna,19,2021-09-06_19h02.29.646,rantool2,2021.1.4,Win32,59.91611744,6135e006383e6ea6c3d06a28,6136493191d3de7c0d887431,,,,,,,,
j,1.6831,0,61,61,37,1,5e8a061b497d61038af39539,ROORORO,ROORORR,20.42602454,21.57657071,series_1,5e8a061b497d61038af39539,Mężczyzna,19,2021-09-06_19h02.29.646,rantool2,2021.1.4,Win32,59.91611744,6135e006383e6ea6c3d06a28,6136493191d3de7c0d887431,,,,,,,,
j,1.5024,0,62,62,16,1,5e8a061b497d61038af39539,OROOOOO,OROOOOR,20.43051175,21.17347734,series_1,5e8a061b497d61038af39539,Mężczyzna,19,2021-09-06_19h02.29.646,rantool2,2021.1.4,Win32,59.91611744,6135e006383e6ea6c3d06a28,6136493191d3de7c0d887431,,,,,,,,
f,1.211,0,63,63,28,1,5e8a061b497d61038af39539,ORRROOO,ORRROOR,22.24142883,22.53364006,series_1,5e8a061b497d61038af39539,Mężczyzna,19,2021-09-06_19h02.29.646,rantool2,2021.1.4,Win32,59.91611744,6135e006383e6ea6c3d06a28,6136493191d3de7c0d887431,,,,,,,,
,,,,,,,5e8a061b497d61038af39539,,,,,,5e8a061b497d61038af39539,Mężczyzna,19,2021-09-06_19h02.29.646,rantool2,2021.1.4,Win32,59.91611744,6135e006383e6ea6c3d06a28,6136493191d3de7c0d887431,"[""comma""]",0,[0.589600000023836],0,0,0,0,1
,,,,,,,5e8a061b497d61038af39539,,,,,,5e8a061b497d61038af39539,Mężczyzna,19,2021-09-06_19h02.29.646,rantool2,2021.1.4,Win32,59.91611744,6135e006383e6ea6c3d06a28,6136493191d3de7c0d887431,"[""period""]",0,[0.6175999999642272],1,0,1,0,1
,,,,,,,5e8a061b497d61038af39539,,,,,,5e8a061b497d61038af39539,Mężczyzna,19,2021-09-06_19h02.29.646,rantool2,2021.1.4,Win32,59.91611744,6135e006383e6ea6c3d06a28,6136493191d3de7c0d887431,"[""period""]",0,[0.7180000000000177],2,0,2,0,1
,,,,,,,5e8a061b497d61038af39539,,,,,,5e8a061b497d61038af39539,Mężczyzna,19,2021-09-06_19h02.29.646,rantool2,2021.1.4,Win32,59.91611744,6135e006383e6ea6c3d06a28,6136493191d3de7c0d887431,"[""period""]",0,[0.71730000001196],3,0,3,0,1
,,,,,,,5e8a061b497d61038af39539,,,,,,5e8a061b497d61038af39539,Mężczyzna,19,2021-09-06_19h02.29.646,rantool2,2021.1.4,Win32,59.91611744,6135e006383e6ea6c3d06a28,6136493191d3de7c0d887431,"[""comma""]",0,[0.5225999999642568],4,0,4,0,1
,,,,,,,5e8a061b497d61038af39539,,,,,,5e8a061b497d61038af39539,Mężczyzna,19,2021-09-06_19h02.29.646,rantool2,2021.1.4,Win32,59.91611744,6135e006383e6ea6c3d06a28,6136493191d3de7c0d887431,"[""period""]",0,[0.60089999997615],5,0,5,0,1
,,,,,,,5e8a061b497d61038af39539,,,,,,5e8a061b497d61038af39539,Mężczyzna,19,2021-09-06_19h02.29.646,rantool2,2021.1.4,Win32,59.91611744,6135e006383e6ea6c3d06a28,6136493191d3de7c0d887431,"[""comma""]",0,[0.35420000004768326],6,0,6,0,1
,,,,,,,5e8a061b497d61038af39539,,,,,,5e8a061b497d61038af39539,Mężczyzna,19,2021-09-06_19h02.29.646,rantool2,2021.1.4,Win32,59.91611744,6135e006383e6ea6c3d06a28,6136493191d3de7c0d887431,"[""period""]",0,[0.31689999997615814],7,0,7,0,1
,,,,,,,5e8a061b497d61038af39539,,,,,,5e8a061b497d61038af39539,Mężczyzna,19,2021-09-06_19h02.29.646,rantool2,2021.1.4,Win32,59.91611744,6135e006383e6ea6c3d06a28,6136493191d3de7c0d887431,"[""comma""]",0,[0.3141000000238705],8,0,8,0,1
,,,,,,,5e8a061b497d61038af39539,,,,,,5e8a061b497d61038af39539,Mężczyzna,19,2021-09-06_19h02.29.646,rantool2,2021.1.4,Win32,59.91611744,6135e006383e6ea6c3d06a28,6136493191d3de7c0d887431,"[""period""]",0,[0.60089999997615],9,0,9,0,1
,,,,,,,5e8a061b497d61038af39539,,,,,,5e8a061b497d61038af39539,Mężczyzna,19,2021-09-06_19h02.29.646,rantool2,2021.1.4,Win32,59.91611744,6135e006383e6ea6c3d06a28,6136493191d3de7c0d887431,"[""comma""]",0,[0.2721999999881177],10,0,10,0,1
,,,,,,,5e8a061b497d61038af39539,,,,,,5e8a061b497d61038af39539,Mężczyzna,19,2021-09-06_19h02.29.646,rantool2,2021.1.4,Win32,59.91611744,6135e006383e6ea6c3d06a28,6136493191d3de7c0d887431,"[""period""]",0,[0.5608000000119091],11,0,11,0,1
,,,,,,,5e8a061b497d61038af39539,,,,,,5e8a061b497d61038af39539,Mężczyzna,19,2021-09-06_19h02.29.646,rantool2,2021.1.4,Win32,59.91611744,6135e006383e6ea6c3d06a28,6136493191d3de7c0d887431,"[""comma""]",0,[0.39680000001192184],12,0,12,0,1
,,,,,,,5e8a061b497d61038af39539,,,,,,5e8a061b497d61038af39539,Mężczyzna,19,2021-09-06_19h02.29.646,rantool2,2021.1.4,Win32,59.91611744,6135e006383e6ea6c3d06a28,6136493191d3de7c0d887431,"[""period""]",0,[0.3591000000238864],13,0,13,0,1
,,,,,,,5e8a061b497d61038af39539,,,,,,5e8a061b497d61038af39539,Mężczyzna,19,2021-09-06_19h02.29.646,rantool2,2021.1.4,Win32,59.91611744,6135e006383e6ea6c3d06a28,6136493191d3de7c0d887431,"[""comma""]",0,[0.45330000001195003],14,0,14,0,1
,,,,,,,5e8a061b497d61038af39539,,,,,,5e8a061b497d61038af39539,Mężczyzna,19,2021-09-06_19h02.29.646,rantool2,2021.1.4,Win32,59.91611744,6135e006383e6ea6c3d06a28,6136493191d3de7c0d887431,"[""period""]",0,[0.4844000000358051],15,0,15,0,1
,,,,,,,5e8a061b497d61038af39539,,,,,,5e8a061b497d61038af39539,Mężczyzna,19,2021-09-06_19h02.29.646,rantool2,2021.1.4,Win32,59.91611744,6135e006383e6ea6c3d06a28,6136493191d3de7c0d887431,"[""comma""]",0,[0.4338999999761768],16,0,16,0,1
,,,,,,,5e8a061b497d61038af39539,,,,,,5e8a061b497d61038af39539,Mężczyzna,19,2021-09-06_19h02.29.646,rantool2,2021.1.4,Win32,59.91611744,6135e006383e6ea6c3d06a28,6136493191d3de7c0d887431,"[""period""]",0,[0.3837999999523163],17,0,17,0,1
,,,,,,,5e8a061b497d61038af39539,,,,,,5e8a061b497d61038af39539,Mężczyzna,19,2021-09-06_19h02.29.646,rantool2,2021.1.4,Win32,59.91611744,6135e006383e6ea6c3d06a28,6136493191d3de7c0d887431,"[""comma""]",0,[0.2910999999642172],18,0,18,0,1
,,,,,,,5e8a061b497d61038af39539,,,,,,5e8a061b497d61038af39539,Mężczyzna,19,2021-09-06_19h02.29.646,rantool2,2021.1.4,Win32,59.91611744,6135e006383e6ea6c3d06a28,6136493191d3de7c0d887431,"[""period""]",0,[0.3507999999523008],19,0,19,0,1
,,,,,,,5e8a061b497d61038af39539,,,,,,5e8a061b497d61038af39539,Mężczyzna,19,2021-09-06_19h02.29.646,rantool2,2021.1.4,Win32,59.91611744,6135e006383e6ea6c3d06a28,6136493191d3de7c0d887431,"[""comma""]",0,[0.3532000000477069],20,0,20,0,1
,,,,,,,5e8a061b497d61038af39539,,,,,,5e8a061b497d61038af39539,Mężczyzna,19,2021-09-06_19h02.29.646,rantool2,2021.1.4,Win32,59.91611744,6135e006383e6ea6c3d06a28,6136493191d3de7c0d887431,"[""period""]",0,[0.36089999997614086],21,0,21,0,1
,,,,,,,5e8a061b497d61038af39539,,,,,,5e8a061b497d61038af39539,Mężczyzna,19,2021-09-06_19h02.29.646,rantool2,2021.1.4,Win32,59.91611744,6135e006383e6ea6c3d06a28,6136493191d3de7c0d887431,"[""comma""]",0,[0.4673999999761804],22,0,22,0,1
,,,,,,,5e8a061b497d61038af39539,,,,,,5e8a061b497d61038af39539,Mężczyzna,19,2021-09-06_19h02.29.646,rantool2,2021.1.4,Win32,59.91611744,6135e006383e6ea6c3d06a28,6136493191d3de7c0d887431,"[""period""]",0,[0.3508000000118727],23,0,23,0,1
,,,,,,,5e8a061b497d61038af39539,,,,,,5e8a061b497d61038af39539,Mężczyzna,19,2021-09-06_19h02.29.646,rantool2,2021.1.4,Win32,59.91611744,6135e006383e6ea6c3d06a28,6136493191d3de7c0d887431,"[""comma""]",0,[0.44529999995233993],24,0,24,0,1
,,,,,,,5e8a061b497d61038af39539,,,,,,5e8a061b497d61038af39539,Mężczyzna,19,2021-09-06_19h02.29.646,rantool2,2021.1.4,Win32,59.91611744,6135e006383e6ea6c3d06a28,6136493191d3de7c0d887431,"[""period""]",0,[0.3842999999523613],25,0,25,0,1
,,,,,,,5e8a061b497d61038af39539,,,,,,5e8a061b497d61038af39539,Mężczyzna,19,2021-09-06_19h02.29.646,rantool2,2021.1.4,Win32,59.91611744,6135e006383e6ea6c3d06a28,6136493191d3de7c0d887431,"[""period""]",0,[0.3773000000119282],26,0,26,0,1
,,,,,,,5e8a061b497d61038af39539,,,,,,5e8a061b497d61038af39539,Mężczyzna,19,2021-09-06_19h02.29.646,rantool2,2021.1.4,Win32,59.91611744,6135e006383e6ea6c3d06a28,6136493191d3de7c0d887431,"[""comma""]",0,[0.2832999999523622],27,0,27,0,1
,,,,,,,5e8a061b497d61038af39539,,,,,,5e8a061b497d61038af39539,Mężczyzna,19,2021-09-06_19h02.29.646,rantool2,2021.1.4,Win32,59.91611744,6135e006383e6ea6c3d06a28,6136493191d3de7c0d887431,"[""comma""]",0,[0.2513999999761154],28,0,28,0,1
,,,,,,,5e8a061b497d61038af39539,,,,,,5e8a061b497d61038af39539,Mężczyzna,19,2021-09-06_19h02.29.646,rantool2,2021.1.4,Win32,59.91611744,6135e006383e6ea6c3d06a28,6136493191d3de7c0d887431,"[""period""]",0,[0.2980000000000018],29,0,29,0,1
,,,,,,,5e8a061b497d61038af39539,,,,,,5e8a061b497d61038af39539,Mężczyzna,19,2021-09-06_19h02.29.646,rantool2,2021.1.4,Win32,59.91611744,6135e006383e6ea6c3d06a28,6136493191d3de7c0d887431,"[""comma""]",0,[0.32210000002385186],30,0,30,0,1
,,,,,,,5e8a061b497d61038af39539,,,,,,5e8a061b497d61038af39539,Mężczyzna,19,2021-09-06_19h02.29.646,rantool2,2021.1.4,Win32,59.91611744,6135e006383e6ea6c3d06a28,6136493191d3de7c0d887431,"[""period""]",0,[0.3088999999761768],31,0,31,0,1
,,,,,,,5e8a061b497d61038af39539,,,,,,5e8a061b497d61038af39539,Mężczyzna,19,2021-09-06_19h02.29.646,rantool2,2021.1.4,Win32,59.91611744,6135e006383e6ea6c3d06a28,6136493191d3de7c0d887431,"[""comma""]",0,[0.3091000000238182],32,0,32,0,1
,,,,,,,5e8a061b497d61038af39539,,,,,,5e8a061b497d61038af39539,Mężczyzna,19,2021-09-06_19h02.29.646,rantool2,2021.1.4,Win32,59.91611744,6135e006383e6ea6c3d06a28,6136493191d3de7c0d887431,"[""period""]",0,[0.4346999999880836],33,0,33,0,1
,,,,,,,5e8a061b497d61038af39539,,,,,,5e8a061b497d61038af39539,Mężczyzna,19,2021-09-06_19h02.29.646,rantool2,2021.1.4,Win32,59.91611744,6135e006383e6ea6c3d06a28,6136493191d3de7c0d887431,"[""comma""]",0,[0.4200999999642363],34,0,34,0,1
,,,,,,,5e8a061b497d61038af39539,,,,,,5e8a061b497d61038af39539,Mężczyzna,19,2021-09-06_19h02.29.646,rantool2,2021.1.4,Win32,59.91611744,6135e006383e6ea6c3d06a28,6136493191d3de7c0d887431,"[""comma""]",0,[0.13560000002382822],35,0,35,0,1
,,,,,,,5e8a061b497d61038af39539,,,,,,5e8a061b497d61038af39539,Mężczyzna,19,2021-09-06_19h02.29.646,rantool2,2021.1.4,Win32,59.91611744,6135e006383e6ea6c3d06a28,6136493191d3de7c0d887431,"[""period""]",0,[0.11679999995232038],36,0,36,0,1
,,,,,,,5e8a061b497d61038af39539,,,,,,5e8a061b497d61038af39539,Mężczyzna,19,2021-09-06_19h02.29.646,rantool2,2021.1.4,Win32,59.91611744,6135e006383e6ea6c3d06a28,6136493191d3de7c0d887431,"[""period""]",0,[0.23339999997614314],37,0,37,0,1
,,,,,,,5e8a061b497d61038af39539,,,,,,5e8a061b497d61038af39539,Mężczyzna,19,2021-09-06_19h02.29.646,rantool2,2021.1.4,Win32,59.91611744,6135e006383e6ea6c3d06a28,6136493191d3de7c0d887431,"[""comma""]",0,[0.36219999998803587],38,0,38,0,1
,,,,,,,5e8a061b497d61038af39539,,,,,,5e8a061b497d61038af39539,Mężczyzna,19,2021-09-06_19h02.29.646,rantool2,2021.1.4,Win32,59.91611744,6135e006383e6ea6c3d06a28,6136493191d3de7c0d887431,"[""period""]",0,[0.29450000000002774],39,0,39,0,1
,,,,,,,5e8a061b497d61038af39539,,,,,,5e8a061b497d61038af39539,Mężczyzna,19,2021-09-06_19h02.29.646,rantool2,2021.1.4,Win32,59.91611744,6135e006383e6ea6c3d06a28,6136493191d3de7c0d887431,"[""comma""]",0,[0.27030000001190047],40,0,40,0,1
,,,,,,,5e8a061b497d61038af39539,,,,,,5e8a061b497d61038af39539,Mężczyzna,19,2021-09-06_19h02.29.646,rantool2,2021.1.4,Win32,59.91611744,6135e006383e6ea6c3d06a28,6136493191d3de7c0d887431,"[""period""]",0,[0.3238000000118859],41,0,41,0,1
,,,,,,,5e8a061b497d61038af39539,,,,,,5e8a061b497d61038af39539,Mężczyzna,19,2021-09-06_19h02.29.646,rantool2,2021.1.4,Win32,59.91611744,6135e006383e6ea6c3d06a28,6136493191d3de7c0d887431,"[""comma""]",0,[0.3661999999881118],42,0,42,0,1
,,,,,,,5e8a061b497d61038af39539,,,,,,5e8a061b497d61038af39539,Mężczyzna,19,2021-09-06_19h02.29.646,rantool2,2021.1.4,Win32,59.91611744,6135e006383e6ea6c3d06a28,6136493191d3de7c0d887431,"[""period""]",0,[0.4921999999880313],43,0,43,0,1
,,,,,,,5e8a061b497d61038af39539,,,,,,5e8a061b497d61038af39539,Mężczyzna,19,2021-09-06_19h02.29.646,rantool2,2021.1.4,Win32,59.91611744,6135e006383e6ea6c3d06a28,6136493191d3de7c0d887431,"[""period""]",0,[0.4515999999642304],44,0,44,0,1
,,,,,,,5e8a061b497d61038af39539,,,,,,5e8a061b497d61038af39539,Mężczyzna,19,2021-09-06_19h02.29.646,rantool2,2021.1.4,Win32,59.91611744,6135e006383e6ea6c3d06a28,6136493191d3de7c0d887431,"[""period""]",0,[0.287700000047721],45,0,45,0,1
,,,,,,,5e8a061b497d61038af39539,,,,,,5e8a061b497d61038af39539,Mężczyzna,19,2021-09-06_19h02.29.646,rantool2,2021.1.4,Win32,59.91611744,6135e006383e6ea6c3d06a28,6136493191d3de7c0d887431,"[""comma""]",0,[0.3655999999642745],46,0,46,0,1
,,,,,,,5e8a061b497d61038af39539,,,,,,5e8a061b497d61038af39539,Mężczyzna,19,2021-09-06_19h02.29.646,rantool2,2021.1.4,Win32,59.91611744,6135e006383e6ea6c3d06a28,6136493191d3de7c0d887431,"[""comma""]",0,[0.41149999999998954],47,0,47,0,1
,,,,,,,5e8a061b497d61038af39539,,,,,,5e8a061b497d61038af39539,Mężczyzna,19,2021-09-06_19h02.29.646,rantool2,2021.1.4,Win32,59.91611744,6135e006383e6ea6c3d06a28,6136493191d3de7c0d887431,"[""period""]",0,[0.4087000000477019],48,0,48,0,1
,,,,,,,5e8a061b497d61038af39539,,,,,,5e8a061b497d61038af39539,Mężczyzna,19,2021-09-06_19h02.29.646,rantool2,2021.1.4,Win32,59.91611744,6135e006383e6ea6c3d06a28,6136493191d3de7c0d887431,"[""comma""]",0,[0.6391999999880795],49,0,49,0,1
,,,,,,,5e8a061b497d61038af39539,,,,,,5e8a061b497d61038af39539,Mężczyzna,19,2021-09-06_19h02.29.646,rantool2,2021.1.4,Win32,59.91611744,6135e006383e6ea6c3d06a28,6136493191d3de7c0d887431,"[""period""]",0,[0.36040000003578143],50,0,50,0,1
,,,,,,,5e8a061b497d61038af39539,,,,,,5e8a061b497d61038af39539,Mężczyzna,19,2021-09-06_19h02.29.646,rantool2,2021.1.4,Win32,59.91611744,6135e006383e6ea6c3d06a28,6136493191d3de7c0d887431,"[""comma""]",0,[0.8090000000000259],51,0,51,0,1
,,,,,,,5e8a061b497d61038af39539,,,,,,5e8a061b497d61038af39539,Mężczyzna,19,2021-09-06_19h02.29.646,rantool2,2021.1.4,Win32,59.91611744,6135e006383e6ea6c3d06a28,6136493191d3de7c0d887431,"[""period""]",0,[0.7545000000000073],52,0,52,0,1
,,,,,,,5e8a061b497d61038af39539,,,,,,5e8a061b497d61038af39539,Mężczyzna,19,2021-09-06_19h02.29.646,rantool2,2021.1.4,Win32,59.91611744,6135e006383e6ea6c3d06a28,6136493191d3de7c0d887431,"[""comma""]",0,[0.902899999976114],53,0,53,0,1
,,,,,,,5e8a061b497d61038af39539,,,,,,5e8a061b497d61038af39539,Mężczyzna,19,2021-09-06_19h02.29.646,rantool2,2021.1.4,Win32,59.91611744,6135e006383e6ea6c3d06a28,6136493191d3de7c0d887431,"[""period""]",0,[0.6884999999999764],54,0,54,0,1
,,,,,,,5e8a061b497d61038af39539,,,,,,5e8a061b497d61038af39539,Mężczyzna,19,2021-09-06_19h02.29.646,rantool2,2021.1.4,Win32,59.91611744,6135e006383e6ea6c3d06a28,6136493191d3de7c0d887431,"[""comma""]",0,[0.7156000000238123],55,0,55,0,1
,,,,,,,5e8a061b497d61038af39539,,,,,,5e8a061b497d61038af39539,Mężczyzna,19,2021-09-06_19h02.29.646,rantool2,2021.1.4,Win32,59.91611744,6135e006383e6ea6c3d06a28,6136493191d3de7c0d887431,0,0,,56,0,56,0,1
,,,,,,,5e8a061b497d61038af39539,,,,,,5e8a061b497d61038af39539,Mężczyzna,19,2021-09-06_19h02.29.646,rantool2,2021.1.4,Win32,59.91611744,6135e006383e6ea6c3d06a28,6136493191d3de7c0d887431,"[""period""]",0,[0.3404000000357996],57,0,57,0,1
,,,,,,,5e8a061b497d61038af39539,,,,,,5e8a061b497d61038af39539,Mężczyzna,19,2021-09-06_19h02.29.646,rantool2,2021.1.4,Win32,59.91611744,6135e006383e6ea6c3d06a28,6136493191d3de7c0d887431,"[""comma""]",0,[0.4460000000000264],58,0,58,0,1
,,,,,,,5e8a061b497d61038af39539,,,,,,5e8a061b497d61038af39539,Mężczyzna,19,2021-09-06_19h02.29.646,rantool2,2021.1.4,Win32,59.91611744,6135e006383e6ea6c3d06a28,6136493191d3de7c0d887431,"[""period""]",0,[0.5423000000119487],59,0,59,0,1
,,,,,,,5e8a061b497d61038af39539,,,,,,5e8a061b497d61038af39539,Mężczyzna,19,2021-09-06_19h02.29.646,rantool2,2021.1.4,Win32,59.91611744,6135e006383e6ea6c3d06a28,6136493191d3de7c0d887431,"[""comma""]",0,[0.49600000000003774],60,0,60,0,1
,,,,,,,5e8a061b497d61038af39539,,,,,,5e8a061b497d61038af39539,Mężczyzna,19,2021-09-06_19h02.29.646,rantool2,2021.1.4,Win32,59.91611744,6135e006383e6ea6c3d06a28,6136493191d3de7c0d887431,"[""period""]",0,[0.5954999999999586],61,0,61,0,1
,,,,,,,5e8a061b497d61038af39539,,,,,,5e8a061b497d61038af39539,Mężczyzna,19,2021-09-06_19h02.29.646,rantool2,2021.1.4,Win32,59.91611744,6135e006383e6ea6c3d06a28,6136493191d3de7c0d887431,"[""comma""]",0,[0.36549999999999727],62,0,62,0,1
,,,,,,,5e8a061b497d61038af39539,,,,,,5e8a061b497d61038af39539,Mężczyzna,19,2021-09-06_19h02.29.646,rantool2,2021.1.4,Win32,59.91611744,6135e006383e6ea6c3d06a28,6136493191d3de7c0d887431,"[""comma""]",0,[0.29750000000001364],63,0,63,0,1
,,,,,,,5e8a061b497d61038af39539,,,,,,5e8a061b497d61038af39539,Mężczyzna,19,2021-09-06_19h02.29.646,rantool2,2021.1.4,Win32,59.91611744,6135e006383e6ea6c3d06a28,6136493191d3de7c0d887431,"[""period""]",0,[0.3410000000000082],64,0,64,0,1
,,,,,,,5e8a061b497d61038af39539,,,,,,5e8a061b497d61038af39539,Mężczyzna,19,2021-09-06_19h02.29.646,rantool2,2021.1.4,Win32,59.91611744,6135e006383e6ea6c3d06a28,6136493191d3de7c0d887431,"[""period""]",0,[0.43360000002383003],65,0,65,0,1
,,,,,,,5e8a061b497d61038af39539,,,,,,5e8a061b497d61038af39539,Mężczyzna,19,2021-09-06_19h02.29.646,rantool2,2021.1.4,Win32,59.91611744,6135e006383e6ea6c3d06a28,6136493191d3de7c0d887431,"[""period""]",0,[0.4876999999880809],66,0,66,0,1
,,,,,,,5e8a061b497d61038af39539,,,,,,5e8a061b497d61038af39539,Mężczyzna,19,2021-09-06_19h02.29.646,rantool2,2021.1.4,Win32,59.91611744,6135e006383e6ea6c3d06a28,6136493191d3de7c0d887431,"[""comma""]",0,[0.3790999999642395],67,0,67,0,1
,,,,,,,5e8a061b497d61038af39539,,,,,,5e8a061b497d61038af39539,Mężczyzna,19,2021-09-06_19h02.29.646,rantool2,2021.1.4,Win32,59.91611744,6135e006383e6ea6c3d06a28,6136493191d3de7c0d887431,"[""comma""]",0,[0.4346999999880836],68,0,68,0,1
,,,,,,,5e8a061b497d61038af39539,,,,,,5e8a061b497d61038af39539,Mężczyzna,19,2021-09-06_19h02.29.646,rantool2,2021.1.4,Win32,59.91611744,6135e006383e6ea6c3d06a28,6136493191d3de7c0d887431,"[""comma""]",0,[0.37489999997615087],69,0,69,0,1
,,,,,,,5e8a061b497d61038af39539,,,,,,5e8a061b497d61038af39539,Mężczyzna,19,2021-09-06_19h02.29.646,rantool2,2021.1.4,Win32,59.91611744,6135e006383e6ea6c3d06a28,6136493191d3de7c0d887431,"[""period""]",0,[0.5548000000119373],70,0,70,0,1
,,,,,,,5e8a061b497d61038af39539,,,,,,5e8a061b497d61038af39539,Mężczyzna,19,2021-09-06_19h02.29.646,rantool2,2021.1.4,Win32,59.91611744,6135e006383e6ea6c3d06a28,6136493191d3de7c0d887431,"[""comma""]",0,[0.5504000000357792],71,0,71,0,1
,,,,,,,5e8a061b497d61038af39539,,,,,,5e8a061b497d61038af39539,Mężczyzna,19,2021-09-06_19h02.29.646,rantool2,2021.1.4,Win32,59.91611744,6135e006383e6ea6c3d06a28,6136493191d3de7c0d887431,"[""period""]",0,[0.6245000000000118],72,0,72,0,1
,,,,,,,5e8a061b497d61038af39539,,,,,,5e8a061b497d61038af39539,Mężczyzna,19,2021-09-06_19h02.29.646,rantool2,2021.1.4,Win32,59.91611744,6135e006383e6ea6c3d06a28,6136493191d3de7c0d887431,"[""comma""]",0,[0.6180000000000518],73,0,73,0,1
,,,,,,,5e8a061b497d61038af39539,,,,,,5e8a061b497d61038af39539,Mężczyzna,19,2021-09-06_19h02.29.646,rantool2,2021.1.4,Win32,59.91611744,6135e006383e6ea6c3d06a28,6136493191d3de7c0d887431,"[""period""]",0,[0.41140000003576915],74,0,74,0,1
,,,,,,,5e8a061b497d61038af39539,,,,,,5e8a061b497d61038af39539,Mężczyzna,19,2021-09-06_19h02.29.646,rantool2,2021.1.4,Win32,59.91611744,6135e006383e6ea6c3d06a28,6136493191d3de7c0d887431,"[""comma""]",0,[0.3849000000357705],75,0,75,0,1
,,,,,,,5e8a061b497d61038af39539,,,,,,5e8a061b497d61038af39539,Mężczyzna,19,2021-09-06_19h02.29.646,rantool2,2021.1.4,Win32,59.91611744,6135e006383e6ea6c3d06a28,6136493191d3de7c0d887431,"[""comma""]",0,[0.3416999999880659],76,0,76,0,1
,,,,,,,5e8a061b497d61038af39539,,,,,,5e8a061b497d61038af39539,Mężczyzna,19,2021-09-06_19h02.29.646,rantool2,2021.1.4,Win32,59.91611744,6135e006383e6ea6c3d06a28,6136493191d3de7c0d887431,"[""comma""]",0,[0.612300000011885],77,0,77,0,1
,,,,,,,5e8a061b497d61038af39539,,,,,,5e8a061b497d61038af39539,Mężczyzna,19,2021-09-06_19h02.29.646,rantool2,2021.1.4,Win32,59.91611744,6135e006383e6ea6c3d06a28,6136493191d3de7c0d887431,"[""period""]",0,[0.5526999999880786],78,0,78,0,1
,,,,,,,5e8a061b497d61038af39539,,,,,,5e8a061b497d61038af39539,Mężczyzna,19,2021-09-06_19h02.29.646,rantool2,2021.1.4,Win32,59.91611744,6135e006383e6ea6c3d06a28,6136493191d3de7c0d887431,"[""period""]",0,[0.5508999999761386],79,0,79,0,1
,,,,,,,5e8a061b497d61038af39539,,,,,,5e8a061b497d61038af39539,Mężczyzna,19,2021-09-06_19h02.29.646,rantool2,2021.1.4,Win32,59.91611744,6135e006383e6ea6c3d06a28,6136493191d3de7c0d887431,"[""period""]",0,[0.4840999999642577],80,0,80,0,1
,,,,,,,5e8a061b497d61038af39539,,,,,,5e8a061b497d61038af39539,Mężczyzna,19,2021-09-06_19h02.29.646,rantool2,2021.1.4,Win32,59.91611744,6135e006383e6ea6c3d06a28,6136493191d3de7c0d887431,0,0,,81,0,81,0,1
,,,,,,,5e8a061b497d61038af39539,,,,,,5e8a061b497d61038af39539,Mężczyzna,19,2021-09-06_19h02.29.646,rantool2,2021.1.4,Win32,59.91611744,6135e006383e6ea6c3d06a28,6136493191d3de7c0d887431,"[""comma""]",0,[0.4836000000238414],82,0,82,0,1
,,,,,,,5e8a061b497d61038af39539,,,,,,5e8a061b497d61038af39539,Mężczyzna,19,2021-09-06_19h02.29.646,rantool2,2021.1.4,Win32,59.91611744,6135e006383e6ea6c3d06a28,6136493191d3de7c0d887431,"[""comma""]",0,[0.44599999999996953],83,0,83,0,1
,,,,,,,5e8a061b497d61038af39539,,,,,,5e8a061b497d61038af39539,Mężczyzna,19,2021-09-06_19h02.29.646,rantool2,2021.1.4,Win32,59.91611744,6135e006383e6ea6c3d06a28,6136493191d3de7c0d887431,"[""period""]",0,[0.450999999999965],84,0,84,0,1
,,,,,,,5e8a061b497d61038af39539,,,,,,5e8a061b497d61038af39539,Mężczyzna,19,2021-09-06_19h02.29.646,rantool2,2021.1.4,Win32,59.91611744,6135e006383e6ea6c3d06a28,6136493191d3de7c0d887431,"[""period""]",0,[0.4689999999999941],85,0,85,0,1
,,,,,,,5e8a061b497d61038af39539,,,,,,5e8a061b497d61038af39539,Mężczyzna,19,2021-09-06_19h02.29.646,rantool2,2021.1.4,Win32,59.91611744,6135e006383e6ea6c3d06a28,6136493191d3de7c0d887431,"[""period""]",0,[0.5389999999999873],86,0,86,0,1
,,,,,,,5e8a061b497d61038af39539,,,,,,5e8a061b497d61038af39539,Mężczyzna,19,2021-09-06_19h02.29.646,rantool2,2021.1.4,Win32,59.91611744,6135e006383e6ea6c3d06a28,6136493191d3de7c0d887431,"[""comma""]",0,[0.4339000000357487],87,0,87,0,1
,,,,,,,5e8a061b497d61038af39539,,,,,,5e8a061b497d61038af39539,Mężczyzna,19,2021-09-06_19h02.29.646,rantool2,2021.1.4,Win32,59.91611744,6135e006383e6ea6c3d06a28,6136493191d3de7c0d887431,"[""comma""]",0,[0.5744000000357801],88,0,88,0,1
,,,,,,,5e8a061b497d61038af39539,,,,,,5e8a061b497d61038af39539,Mężczyzna,19,2021-09-06_19h02.29.646,rantool2,2021.1.4,Win32,59.91611744,6135e006383e6ea6c3d06a28,6136493191d3de7c0d887431,"[""period""]",0,[0.40230000001190547],89,0,89,0,1
,,,,,,,5e8a061b497d61038af39539,,,,,,5e8a061b497d61038af39539,Mężczyzna,19,2021-09-06_19h02.29.646,rantool2,2021.1.4,Win32,59.91611744,6135e006383e6ea6c3d06a28,6136493191d3de7c0d887431,"[""comma""]",0,[0.4522999999522881],90,0,90,0,1
,,,,,,,5e8a061b497d61038af39539,,,,,,5e8a061b497d61038af39539,Mężczyzna,19,2021-09-06_19h02.29.646,rantool2,2021.1.4,Win32,59.91611744,6135e006383e6ea6c3d06a28,6136493191d3de7c0d887431,"[""period""]",0,[0.5686000000238778],91,0,91,0,1
,,,,,,,5e8a061b497d61038af39539,,,,,,5e8a061b497d61038af39539,Mężczyzna,19,2021-09-06_19h02.29.646,rantool2,2021.1.4,Win32,59.91611744,6135e006383e6ea6c3d06a28,6136493191d3de7c0d887431,"[""comma""]",0,[0.47950000000003],92,0,92,0,1
,,,,,,,5e8a061b497d61038af39539,,,,,,5e8a061b497d61038af39539,Mężczyzna,19,2021-09-06_19h02.29.646,rantool2,2021.1.4,Win32,59.91611744,6135e006383e6ea6c3d06a28,6136493191d3de7c0d887431,"[""period""]",0,[0.5106999999881054],93,0,93,0,1
,,,,,,,5e8a061b497d61038af39539,,,,,,5e8a061b497d61038af39539,Mężczyzna,19,2021-09-06_19h02.29.646,rantool2,2021.1.4,Win32,59.91611744,6135e006383e6ea6c3d06a28,6136493191d3de7c0d887431,"[""comma""]",0,[0.6342999999523045],94,0,94,0,1
,,,,,,,5e8a061b497d61038af39539,,,,,,5e8a061b497d61038af39539,Mężczyzna,19,2021-09-06_19h02.29.646,rantool2,2021.1.4,Win32,59.91611744,6135e006383e6ea6c3d06a28,6136493191d3de7c0d887431,"[""period""]",0,[0.5446000000238769],95,0,95,0,1
,,,,,,,5e8a061b497d61038af39539,,,,,,5e8a061b497d61038af39539,Mężczyzna,19,2021-09-06_19h02.29.646,rantool2,2021.1.4,Win32,59.91611744,6135e006383e6ea6c3d06a28,6136493191d3de7c0d887431,"[""comma""]",0,[0.4900000000000091],96,0,96,0,1
,,,,,,,5e8a061b497d61038af39539,,,,,,5e8a061b497d61038af39539,Mężczyzna,19,2021-09-06_19h02.29.646,rantool2,2021.1.4,Win32,59.91611744,6135e006383e6ea6c3d06a28,6136493191d3de7c0d887431,"[""period""]",0,[0.43369999998810727],97,0,97,0,1
,,,,,,,5e8a061b497d61038af39539,,,,,,5e8a061b497d61038af39539,Mężczyzna,19,2021-09-06_19h02.29.646,rantool2,2021.1.4,Win32,59.91611744,6135e006383e6ea6c3d06a28,6136493191d3de7c0d887431,"[""period""]",0,[0.6343999999761536],98,0,98,0,1
,,,,,,,5e8a061b497d61038af39539,,,,,,5e8a061b497d61038af39539,Mężczyzna,19,2021-09-06_19h02.29.646,rantool2,2021.1.4,Win32,59.91611744,6135e006383e6ea6c3d06a28,6136493191d3de7c0d887431,"[""comma""]",0,[0.43969999998807907],99,0,99,0,1
,,,,,,,5e8a061b497d61038af39539,,,,,,5e8a061b497d61038af39539,Mężczyzna,19,2021-09-06_19h02.29.646,rantool2,2021.1.4,Win32,59.91611744,6135e006383e6ea6c3d06a28,6136493191d3de7c0d887431,"[""period""]",0,[0.3751999999880695],100,0,100,0,1
,,,,,,,5e8a061b497d61038af39539,,,,,,5e8a061b497d61038af39539,Mężczyzna,19,2021-09-06_19h02.29.646,rantool2,2021.1.4,Win32,59.91611744,6135e006383e6ea6c3d06a28,6136493191d3de7c0d887431,"[""comma""]",0,[0.3539000000357646],101,0,101,0,1
,,,,,,,5e8a061b497d61038af39539,,,,,,5e8a061b497d61038af39539,Mężczyzna,19,2021-09-06_19h02.29.646,rantool2,2021.1.4,Win32,59.91611744,6135e006383e6ea6c3d06a28,6136493191d3de7c0d887431,"[""period""]",0,[0.4480000000000359],102,0,102,0,1
,,,,,,,5e8a061b497d61038af39539,,,,,,5e8a061b497d61038af39539,Mężczyzna,19,2021-09-06_19h02.29.646,rantool2,2021.1.4,Win32,59.91611744,6135e006383e6ea6c3d06a28,6136493191d3de7c0d887431,"[""comma""]",0,[0.4615999999642213],103,0,103,0,1
,,,,,,,5e8a061b497d61038af39539,,,,,,5e8a061b497d61038af39539,Mężczyzna,19,2021-09-06_19h02.29.646,rantool2,2021.1.4,Win32,59.91611744,6135e006383e6ea6c3d06a28,6136493191d3de7c0d887431,"[""period""]",0,[0.4291999999881],104,0,104,0,1
,,,,,,,5e8a061b497d61038af39539,,,,,,5e8a061b497d61038af39539,Mężczyzna,19,2021-09-06_19h02.29.646,rantool2,2021.1.4,Win32,59.91611744,6135e006383e6ea6c3d06a28,6136493191d3de7c0d887431,"[""comma""]",0,[0.4953000000119232],105,0,105,0,1
,,,,,,,5e8a061b497d61038af39539,,,,,,5e8a061b497d61038af39539,Mężczyzna,19,2021-09-06_19h02.29.646,rantool2,2021.1.4,Win32,59.91611744,6135e006383e6ea6c3d06a28,6136493191d3de7c0d887431,"[""period""]",0,[0.5508999999761386],106,0,106,0,1
,,,,,,,5e8a061b497d61038af39539,,,,,,5e8a061b497d61038af39539,Mężczyzna,19,2021-09-06_19h02.29.646,rantool2,2021.1.4,Win32,59.91611744,6135e006383e6ea6c3d06a28,6136493191d3de7c0d887431,"[""period""]",0,[0.5738000000119428],107,0,107,0,1
,,,,,,,5e8a061b497d61038af39539,,,,,,5e8a061b497d61038af39539,Mężczyzna,19,2021-09-06_19h02.29.646,rantool2,2021.1.4,Win32,59.91611744,6135e006383e6ea6c3d06a28,6136493191d3de7c0d887431,"[""comma""]",0,[0.41719999998809953],108,0,108,0,1
,,,,,,,5e8a061b497d61038af39539,,,,,,5e8a061b497d61038af39539,Mężczyzna,19,2021-09-06_19h02.29.646,rantool2,2021.1.4,Win32,59.91611744,6135e006383e6ea6c3d06a28,6136493191d3de7c0d887431,"[""comma""]",0,[0.43180000001189],109,0,109,0,1
,,,,,,,5e8a061b497d61038af39539,,,,,,5e8a061b497d61038af39539,Mężczyzna,19,2021-09-06_19h02.29.646,rantool2,2021.1.4,Win32,59.91611744,6135e006383e6ea6c3d06a28,6136493191d3de7c0d887431,"[""period""]",0,[0.6258999999761272],110,0,110,0,1
,,,,,,,5e8a061b497d61038af39539,,,,,,5e8a061b497d61038af39539,Mężczyzna,19,2021-09-06_19h02.29.646,rantool2,2021.1.4,Win32,59.91611744,6135e006383e6ea6c3d06a28,6136493191d3de7c0d887431,"[""period""]",0,[0.04750000000001364],111,0,111,0,1
,,,,,,,5e8a061b497d61038af39539,,,,,,5e8a061b497d61038af39539,Mężczyzna,19,2021-09-06_19h02.29.646,rantool2,2021.1.4,Win32,59.91611744,6135e006383e6ea6c3d06a28,6136493191d3de7c0d887431,"[""comma""]",0,[0.5036999999881004],112,0,112,0,1
,,,,,,,5e8a061b497d61038af39539,,,,,,5e8a061b497d61038af39539,Mężczyzna,19,2021-09-06_19h02.29.646,rantool2,2021.1.4,Win32,59.91611744,6135e006383e6ea6c3d06a28,6136493191d3de7c0d887431,"[""period""]",0,[0.5731000000238282],113,0,113,0,1
,,,,,,,5e8a061b497d61038af39539,,,,,,5e8a061b497d61038af39539,Mężczyzna,19,2021-09-06_19h02.29.646,rantool2,2021.1.4,Win32,59.91611744,6135e006383e6ea6c3d06a28,6136493191d3de7c0d887431,"[""comma""]",0,[0.46980000001195776],114,0,114,0,1
,,,,,,,5e8a061b497d61038af39539,,,,,,5e8a061b497d61038af39539,Mężczyzna,19,2021-09-06_19h02.29.646,rantool2,2021.1.4,Win32,59.91611744,6135e006383e6ea6c3d06a28,6136493191d3de7c0d887431,"[""period""]",0,[0.3971999999880609],115,0,115,0,1
,,,,,,,5e8a061b497d61038af39539,,,,,,5e8a061b497d61038af39539,Mężczyzna,19,2021-09-06_19h02.29.646,rantool2,2021.1.4,Win32,59.91611744,6135e006383e6ea6c3d06a28,6136493191d3de7c0d887431,"[""comma""]",0,[0.5353000000119437],116,0,116,0,1
,,,,,,,5e8a061b497d61038af39539,,,,,,5e8a061b497d61038af39539,Mężczyzna,19,2021-09-06_19h02.29.646,rantool2,2021.1.4,Win32,59.91611744,6135e006383e6ea6c3d06a28,6136493191d3de7c0d887431,"[""period""]",0,[0.5330000000000155],117,0,117,0,1
,,,,,,,5e8a061b497d61038af39539,,,,,,5e8a061b497d61038af39539,Mężczyzna,19,2021-09-06_19h02.29.646,rantool2,2021.1.4,Win32,59.91611744,6135e006383e6ea6c3d06a28,6136493191d3de7c0d887431,"[""period""]",0,[1.017500000000041],118,0,118,0,1
,,,,,,,5e8a061b497d61038af39539,,,,,,5e8a061b497d61038af39539,Mężczyzna,19,2021-09-06_19h02.29.646,rantool2,2021.1.4,Win32,59.91611744,6135e006383e6ea6c3d06a28,6136493191d3de7c0d887431,"[""comma""]",0,[0.5449000000357955],119,0,119,0,1
