key_resp_7.keys,trials_2.thisRepN,trials_2.thisTrialN,trials_2.thisN,trials_2.thisIndex,trials_2.ran,id,series_0,series_1,acss_0,acss_1,comparison,id*,Płeć*,Wiek*,date,expName,psychopyVersion,OS,frameRate,STUDY_ID,SESSION_ID,key_resp_7.rt,key_resp_5.keys,key_resp_5.corr,key_resp_5.rt,trials.thisRepN,trials.thisTrialN,trials.thisN,trials.thisIndex,trials.ran
,0,0,0,41,1,61311fd128819c143e3409f9,ROROORO,ROROORR,20.42602454,21.71443381,series_1,61311fd128819c143e3409f9,Mężczyzna,18,2021-09-06_18h37.23.190,rantool2,2021.1.4,MacIntel,55.55555556,6135e006383e6ea6c3d06a28,6136436209486be7c7d370d3,,,,,,,,,
j,0,1,1,33,1,61311fd128819c143e3409f9,ROOOORO,ROOOORR,20.83779602,22.03072203,series_1,61311fd128819c143e3409f9,Mężczyzna,18,2021-09-06_18h37.23.190,rantool2,2021.1.4,MacIntel,55.55555556,6135e006383e6ea6c3d06a28,6136436209486be7c7d370d3,2.942,,,,,,,,
f,0,2,2,53,1,61311fd128819c143e3409f9,RRORORO,RRORORR,20.71309134,21.90565814,series_1,61311fd128819c143e3409f9,Mężczyzna,18,2021-09-06_18h37.23.190,rantool2,2021.1.4,MacIntel,55.55555556,6135e006383e6ea6c3d06a28,6136436209486be7c7d370d3,3.049,,,,,,,,
f,0,3,3,14,1,61311fd128819c143e3409f9,OORRROO,OORRROR,22.24142883,22.16977179,series_0,61311fd128819c143e3409f9,Mężczyzna,18,2021-09-06_18h37.23.190,rantool2,2021.1.4,MacIntel,55.55555556,6135e006383e6ea6c3d06a28,6136436209486be7c7d370d3,3.248,,,,,,,,
j,0,4,4,55,1,61311fd128819c143e3409f9,RRORRRO,RRORRRR,21.56657303,21.21223021,series_0,61311fd128819c143e3409f9,Mężczyzna,18,2021-09-06_18h37.23.190,rantool2,2021.1.4,MacIntel,55.55555556,6135e006383e6ea6c3d06a28,6136436209486be7c7d370d3,3.242,,,,,,,,
j,0,5,5,52,1,61311fd128819c143e3409f9,RROROOO,RROROOR,22.18365867,22.11097995,series_0,61311fd128819c143e3409f9,Mężczyzna,18,2021-09-06_18h37.23.190,rantool2,2021.1.4,MacIntel,55.55555556,6135e006383e6ea6c3d06a28,6136436209486be7c7d370d3,3.963,,,,,,,,
f,0,6,6,21,1,61311fd128819c143e3409f9,ORORORO,ORORORR,20.39515459,22.06781359,series_1,61311fd128819c143e3409f9,Mężczyzna,18,2021-09-06_18h37.23.190,rantool2,2021.1.4,MacIntel,55.55555556,6135e006383e6ea6c3d06a28,6136436209486be7c7d370d3,4.352,,,,,,,,
j,0,7,7,24,1,61311fd128819c143e3409f9,ORROOOO,ORROOOR,21.12383932,22.07102821,series_1,61311fd128819c143e3409f9,Mężczyzna,18,2021-09-06_18h37.23.190,rantool2,2021.1.4,MacIntel,55.55555556,6135e006383e6ea6c3d06a28,6136436209486be7c7d370d3,2.741,,,,,,,,
j,0,8,8,12,1,61311fd128819c143e3409f9,OORROOO,OORROOR,21.30250474,22.02786418,series_1,61311fd128819c143e3409f9,Mężczyzna,18,2021-09-06_18h37.23.190,rantool2,2021.1.4,MacIntel,55.55555556,6135e006383e6ea6c3d06a28,6136436209486be7c7d370d3,4,,,,,,,,
j,0,9,9,26,1,61311fd128819c143e3409f9,ORROROO,ORROROR,22.02732763,21.71443381,series_0,61311fd128819c143e3409f9,Mężczyzna,18,2021-09-06_18h37.23.190,rantool2,2021.1.4,MacIntel,55.55555556,6135e006383e6ea6c3d06a28,6136436209486be7c7d370d3,2.269,,,,,,,,
j,0,10,10,49,1,61311fd128819c143e3409f9,RROOORO,RROOORR,21.76276513,22.53364006,series_1,61311fd128819c143e3409f9,Mężczyzna,18,2021-09-06_18h37.23.190,rantool2,2021.1.4,MacIntel,55.55555556,6135e006383e6ea6c3d06a28,6136436209486be7c7d370d3,3.638,,,,,,,,
f,0,11,11,1,1,61311fd128819c143e3409f9,OOOOORO,OOOOORR,19.92253567,20.74050628,series_1,61311fd128819c143e3409f9,Mężczyzna,18,2021-09-06_18h37.23.190,rantool2,2021.1.4,MacIntel,55.55555556,6135e006383e6ea6c3d06a28,6136436209486be7c7d370d3,1.551,,,,,,,,
f,0,12,12,25,1,61311fd128819c143e3409f9,ORROORO,ORROORR,21.79500819,22.61624387,series_1,61311fd128819c143e3409f9,Mężczyzna,18,2021-09-06_18h37.23.190,rantool2,2021.1.4,MacIntel,55.55555556,6135e006383e6ea6c3d06a28,6136436209486be7c7d370d3,3.216,,,,,,,,
f,0,13,13,19,1,61311fd128819c143e3409f9,OROORRO,OROORRR,21.73568164,22.11181017,series_1,61311fd128819c143e3409f9,Mężczyzna,18,2021-09-06_18h37.23.190,rantool2,2021.1.4,MacIntel,55.55555556,6135e006383e6ea6c3d06a28,6136436209486be7c7d370d3,2.538,,,,,,,,
j,0,14,14,46,1,61311fd128819c143e3409f9,RORRROO,RORRROR,22.00300695,21.24781509,series_0,61311fd128819c143e3409f9,Mężczyzna,18,2021-09-06_18h37.23.190,rantool2,2021.1.4,MacIntel,55.55555556,6135e006383e6ea6c3d06a28,6136436209486be7c7d370d3,2.467,,,,,,,,
f,0,15,15,60,1,61311fd128819c143e3409f9,RRRROOO,RRRROOR,22.10108823,22.15934078,series_1,61311fd128819c143e3409f9,Mężczyzna,18,2021-09-06_18h37.23.190,rantool2,2021.1.4,MacIntel,55.55555556,6135e006383e6ea6c3d06a28,6136436209486be7c7d370d3,2.116,,,,,,,,
f,0,16,16,56,1,61311fd128819c143e3409f9,RRROOOO,RRROOOR,21.6194508,22.31681875,series_1,61311fd128819c143e3409f9,Mężczyzna,18,2021-09-06_18h37.23.190,rantool2,2021.1.4,MacIntel,55.55555556,6135e006383e6ea6c3d06a28,6136436209486be7c7d370d3,3.165,,,,,,,,
f,0,17,17,38,1,61311fd128819c143e3409f9,ROORROO,ROORROR,21.79500819,21.36812781,series_0,61311fd128819c143e3409f9,Mężczyzna,18,2021-09-06_18h37.23.190,rantool2,2021.1.4,MacIntel,55.55555556,6135e006383e6ea6c3d06a28,6136436209486be7c7d370d3,3.115,,,,,,,,
j,0,18,18,0,1,61311fd128819c143e3409f9,OOOOOOO,OOOOOOR,18.52739004,19.62521613,series_1,61311fd128819c143e3409f9,Mężczyzna,18,2021-09-06_18h37.23.190,rantool2,2021.1.4,MacIntel,55.55555556,6135e006383e6ea6c3d06a28,6136436209486be7c7d370d3,2.36,,,,,,,,
f,0,19,19,4,1,61311fd128819c143e3409f9,OOOROOO,OOOROOR,19.91402015,21.21223021,series_1,61311fd128819c143e3409f9,Mężczyzna,18,2021-09-06_18h37.23.190,rantool2,2021.1.4,MacIntel,55.55555556,6135e006383e6ea6c3d06a28,6136436209486be7c7d370d3,3.948,,,,,,,,
f,0,20,20,8,1,61311fd128819c143e3409f9,OOROOOO,OOROOOR,19.91402015,20.89823192,series_1,61311fd128819c143e3409f9,Mężczyzna,18,2021-09-06_18h37.23.190,rantool2,2021.1.4,MacIntel,55.55555556,6135e006383e6ea6c3d06a28,6136436209486be7c7d370d3,2.007,,,,,,,,
j,0,21,21,44,1,61311fd128819c143e3409f9,RORROOO,RORROOR,21.66733484,22.02566557,series_1,61311fd128819c143e3409f9,Mężczyzna,18,2021-09-06_18h37.23.190,rantool2,2021.1.4,MacIntel,55.55555556,6135e006383e6ea6c3d06a28,6136436209486be7c7d370d3,3.991,,,,,,,,
j,0,22,22,40,1,61311fd128819c143e3409f9,ROROOOO,ROROOOR,20.87963819,21.37121559,series_1,61311fd128819c143e3409f9,Mężczyzna,18,2021-09-06_18h37.23.190,rantool2,2021.1.4,MacIntel,55.55555556,6135e006383e6ea6c3d06a28,6136436209486be7c7d370d3,2.348,,,,,,,,
j,0,23,23,29,1,61311fd128819c143e3409f9,ORRRORO,ORRRORR,22.00300695,22.12173012,series_1,61311fd128819c143e3409f9,Mężczyzna,18,2021-09-06_18h37.23.190,rantool2,2021.1.4,MacIntel,55.55555556,6135e006383e6ea6c3d06a28,6136436209486be7c7d370d3,3.149,,,,,,,,
f,0,24,24,30,1,61311fd128819c143e3409f9,ORRRROO,ORRRROR,22.46748491,22.03072203,series_0,61311fd128819c143e3409f9,Mężczyzna,18,2021-09-06_18h37.23.190,rantool2,2021.1.4,MacIntel,55.55555556,6135e006383e6ea6c3d06a28,6136436209486be7c7d370d3,3.1,,,,,,,,
f,0,25,25,59,1,61311fd128819c143e3409f9,RRRORRO,RRRORRR,21.56657303,20.89823192,series_0,61311fd128819c143e3409f9,Mężczyzna,18,2021-09-06_18h37.23.190,rantool2,2021.1.4,MacIntel,55.55555556,6135e006383e6ea6c3d06a28,6136436209486be7c7d370d3,2.86,,,,,,,,
j,0,26,26,47,1,61311fd128819c143e3409f9,RORRRRO,RORRRRR,21.81333602,21.02936224,series_0,61311fd128819c143e3409f9,Mężczyzna,18,2021-09-06_18h37.23.190,rantool2,2021.1.4,MacIntel,55.55555556,6135e006383e6ea6c3d06a28,6136436209486be7c7d370d3,1.674,,,,,,,,
j,0,27,27,10,1,61311fd128819c143e3409f9,OOROROO,OOROROR,21.31236711,21.07490964,series_0,61311fd128819c143e3409f9,Mężczyzna,18,2021-09-06_18h37.23.190,rantool2,2021.1.4,MacIntel,55.55555556,6135e006383e6ea6c3d06a28,6136436209486be7c7d370d3,2.102,,,,,,,,
j,0,28,28,23,1,61311fd128819c143e3409f9,ORORRRO,ORORRRR,22.1285618,21.9921709,series_0,61311fd128819c143e3409f9,Mężczyzna,18,2021-09-06_18h37.23.190,rantool2,2021.1.4,MacIntel,55.55555556,6135e006383e6ea6c3d06a28,6136436209486be7c7d370d3,2.601,,,,,,,,
j,0,29,29,50,1,61311fd128819c143e3409f9,RROOROO,RROOROR,21.73568164,22.02566557,series_1,61311fd128819c143e3409f9,Mężczyzna,18,2021-09-06_18h37.23.190,rantool2,2021.1.4,MacIntel,55.55555556,6135e006383e6ea6c3d06a28,6136436209486be7c7d370d3,2.415,,,,,,,,
j,0,30,30,31,1,61311fd128819c143e3409f9,ORRRRRO,ORRRRRR,22.16413392,20.74050628,series_0,61311fd128819c143e3409f9,Mężczyzna,18,2021-09-06_18h37.23.190,rantool2,2021.1.4,MacIntel,55.55555556,6135e006383e6ea6c3d06a28,6136436209486be7c7d370d3,2.433,,,,,,,,
j,0,31,31,45,1,61311fd128819c143e3409f9,RORRORO,RORRORR,20.78182524,21.22513037,series_1,61311fd128819c143e3409f9,Mężczyzna,18,2021-09-06_18h37.23.190,rantool2,2021.1.4,MacIntel,55.55555556,6135e006383e6ea6c3d06a28,6136436209486be7c7d370d3,2.197,,,,,,,,
f,0,32,32,22,1,61311fd128819c143e3409f9,ORORROO,ORORROR,22.02732763,21.57657071,series_0,61311fd128819c143e3409f9,Mężczyzna,18,2021-09-06_18h37.23.190,rantool2,2021.1.4,MacIntel,55.55555556,6135e006383e6ea6c3d06a28,6136436209486be7c7d370d3,4.327,,,,,,,,
f,0,33,33,20,1,61311fd128819c143e3409f9,OROROOO,OROROOR,21.31236711,21.90565814,series_1,61311fd128819c143e3409f9,Mężczyzna,18,2021-09-06_18h37.23.190,rantool2,2021.1.4,MacIntel,55.55555556,6135e006383e6ea6c3d06a28,6136436209486be7c7d370d3,3.825,,,,,,,,
j,0,34,34,62,1,61311fd128819c143e3409f9,RRRRROO,RRRRROR,22.16413392,21.27974287,series_0,61311fd128819c143e3409f9,Mężczyzna,18,2021-09-06_18h37.23.190,rantool2,2021.1.4,MacIntel,55.55555556,6135e006383e6ea6c3d06a28,6136436209486be7c7d370d3,3.726,,,,,,,,
j,0,35,35,15,1,61311fd128819c143e3409f9,OORRRRO,OORRRRR,22.10108823,21.74922619,series_0,61311fd128819c143e3409f9,Mężczyzna,18,2021-09-06_18h37.23.190,rantool2,2021.1.4,MacIntel,55.55555556,6135e006383e6ea6c3d06a28,6136436209486be7c7d370d3,2.999,,,,,,,,
f,0,36,36,13,1,61311fd128819c143e3409f9,OORRORO,OORRORR,21.66733484,22.11181017,series_1,61311fd128819c143e3409f9,Mężczyzna,18,2021-09-06_18h37.23.190,rantool2,2021.1.4,MacIntel,55.55555556,6135e006383e6ea6c3d06a28,6136436209486be7c7d370d3,3.943,,,,,,,,
j,0,37,37,18,1,61311fd128819c143e3409f9,OROOROO,OROOROR,20.84860893,21.22513037,series_1,61311fd128819c143e3409f9,Mężczyzna,18,2021-09-06_18h37.23.190,rantool2,2021.1.4,MacIntel,55.55555556,6135e006383e6ea6c3d06a28,6136436209486be7c7d370d3,2.294,,,,,,,,
f,0,38,38,42,1,61311fd128819c143e3409f9,ROROROO,ROROROR,20.39515459,19.8361834,series_0,61311fd128819c143e3409f9,Mężczyzna,18,2021-09-06_18h37.23.190,rantool2,2021.1.4,MacIntel,55.55555556,6135e006383e6ea6c3d06a28,6136436209486be7c7d370d3,3.347,,,,,,,,
j,0,39,39,5,1,61311fd128819c143e3409f9,OOORORO,OOORORR,20.87963819,21.9921709,series_1,61311fd128819c143e3409f9,Mężczyzna,18,2021-09-06_18h37.23.190,rantool2,2021.1.4,MacIntel,55.55555556,6135e006383e6ea6c3d06a28,6136436209486be7c7d370d3,2.298,,,,,,,,
j,0,40,40,16,1,61311fd128819c143e3409f9,OROOOOO,OROOOOR,20.43051175,21.17347734,series_1,61311fd128819c143e3409f9,Mężczyzna,18,2021-09-06_18h37.23.190,rantool2,2021.1.4,MacIntel,55.55555556,6135e006383e6ea6c3d06a28,6136436209486be7c7d370d3,2.494,,,,,,,,
f,0,41,41,3,1,61311fd128819c143e3409f9,OOOORRO,OOOORRR,20.90986523,21.74922619,series_1,61311fd128819c143e3409f9,Mężczyzna,18,2021-09-06_18h37.23.190,rantool2,2021.1.4,MacIntel,55.55555556,6135e006383e6ea6c3d06a28,6136436209486be7c7d370d3,2.472,,,,,,,,
j,0,42,42,35,1,61311fd128819c143e3409f9,ROOORRO,ROOORRR,21.76276513,22.16977179,series_1,61311fd128819c143e3409f9,Mężczyzna,18,2021-09-06_18h37.23.190,rantool2,2021.1.4,MacIntel,55.55555556,6135e006383e6ea6c3d06a28,6136436209486be7c7d370d3,2.855,,,,,,,,
j,0,43,43,43,1,61311fd128819c143e3409f9,RORORRO,RORORRR,20.71309134,21.07490964,series_1,61311fd128819c143e3409f9,Mężczyzna,18,2021-09-06_18h37.23.190,rantool2,2021.1.4,MacIntel,55.55555556,6135e006383e6ea6c3d06a28,6136436209486be7c7d370d3,4.01,,,,,,,,
f,0,44,44,58,1,61311fd128819c143e3409f9,RRROROO,RRROROR,22.1285618,21.37121559,series_0,61311fd128819c143e3409f9,Mężczyzna,18,2021-09-06_18h37.23.190,rantool2,2021.1.4,MacIntel,55.55555556,6135e006383e6ea6c3d06a28,6136436209486be7c7d370d3,3.074,,,,,,,,
j,0,45,45,63,1,61311fd128819c143e3409f9,RRRRRRO,RRRRRRR,21.35278725,19.62521613,series_0,61311fd128819c143e3409f9,Mężczyzna,18,2021-09-06_18h37.23.190,rantool2,2021.1.4,MacIntel,55.55555556,6135e006383e6ea6c3d06a28,6136436209486be7c7d370d3,3.926,,,,,,,,
f,0,46,46,54,1,61311fd128819c143e3409f9,RRORROO,RRORROR,21.55250791,20.9984461,series_0,61311fd128819c143e3409f9,Mężczyzna,18,2021-09-06_18h37.23.190,rantool2,2021.1.4,MacIntel,55.55555556,6135e006383e6ea6c3d06a28,6136436209486be7c7d370d3,3.839,,,,,,,,
f,0,47,47,36,1,61311fd128819c143e3409f9,ROOROOO,ROOROOR,21.07991943,20.9984461,series_0,61311fd128819c143e3409f9,Mężczyzna,18,2021-09-06_18h37.23.190,rantool2,2021.1.4,MacIntel,55.55555556,6135e006383e6ea6c3d06a28,6136436209486be7c7d370d3,3.198,,,,,,,,
j,0,48,48,11,1,61311fd128819c143e3409f9,OORORRO,OORORRR,22.18365867,22.6797523,series_1,61311fd128819c143e3409f9,Mężczyzna,18,2021-09-06_18h37.23.190,rantool2,2021.1.4,MacIntel,55.55555556,6135e006383e6ea6c3d06a28,6136436209486be7c7d370d3,2.985,,,,,,,,
j,0,49,49,9,1,61311fd128819c143e3409f9,OOROORO,OOROORR,21.07991943,22.2428857,series_1,61311fd128819c143e3409f9,Mężczyzna,18,2021-09-06_18h37.23.190,rantool2,2021.1.4,MacIntel,55.55555556,6135e006383e6ea6c3d06a28,6136436209486be7c7d370d3,1.701,,,,,,,,
j,0,50,50,2,1,61311fd128819c143e3409f9,OOOOROO,OOOOROR,20.43051175,21.02936224,series_1,61311fd128819c143e3409f9,Mężczyzna,18,2021-09-06_18h37.23.190,rantool2,2021.1.4,MacIntel,55.55555556,6135e006383e6ea6c3d06a28,6136436209486be7c7d370d3,0.435,,,,,,,,
f,0,51,51,39,1,61311fd128819c143e3409f9,ROORRRO,ROORRRR,21.82425538,21.38562617,series_0,61311fd128819c143e3409f9,Mężczyzna,18,2021-09-06_18h37.23.190,rantool2,2021.1.4,MacIntel,55.55555556,6135e006383e6ea6c3d06a28,6136436209486be7c7d370d3,3.818,,,,,,,,
j,0,52,52,57,1,61311fd128819c143e3409f9,RRROORO,RRROORR,21.82425538,22.07102821,series_1,61311fd128819c143e3409f9,Mężczyzna,18,2021-09-06_18h37.23.190,rantool2,2021.1.4,MacIntel,55.55555556,6135e006383e6ea6c3d06a28,6136436209486be7c7d370d3,2.844,,,,,,,,
f,0,53,53,7,1,61311fd128819c143e3409f9,OOORRRO,OOORRRR,21.6194508,21.899017,series_1,61311fd128819c143e3409f9,Mężczyzna,18,2021-09-06_18h37.23.190,rantool2,2021.1.4,MacIntel,55.55555556,6135e006383e6ea6c3d06a28,6136436209486be7c7d370d3,2.642,,,,,,,,
j,0,54,54,48,1,61311fd128819c143e3409f9,RROOOOO,RROOOOR,20.90986523,22.15934078,series_1,61311fd128819c143e3409f9,Mężczyzna,18,2021-09-06_18h37.23.190,rantool2,2021.1.4,MacIntel,55.55555556,6135e006383e6ea6c3d06a28,6136436209486be7c7d370d3,1.431,,,,,,,,
j,0,55,55,27,1,61311fd128819c143e3409f9,ORRORRO,ORRORRR,21.55250791,22.2428857,series_1,61311fd128819c143e3409f9,Mężczyzna,18,2021-09-06_18h37.23.190,rantool2,2021.1.4,MacIntel,55.55555556,6135e006383e6ea6c3d06a28,6136436209486be7c7d370d3,2.476,,,,,,,,
j,0,56,56,51,1,61311fd128819c143e3409f9,RROORRO,RROORRR,21.89852628,22.02786418,series_1,61311fd128819c143e3409f9,Mężczyzna,18,2021-09-06_18h37.23.190,rantool2,2021.1.4,MacIntel,55.55555556,6135e006383e6ea6c3d06a28,6136436209486be7c7d370d3,1.731,,,,,,,,
f,0,57,57,32,1,61311fd128819c143e3409f9,ROOOOOO,ROOOOOR,19.92253567,21.27974287,series_1,61311fd128819c143e3409f9,Mężczyzna,18,2021-09-06_18h37.23.190,rantool2,2021.1.4,MacIntel,55.55555556,6135e006383e6ea6c3d06a28,6136436209486be7c7d370d3,1.575,,,,,,,,
j,0,58,58,6,1,61311fd128819c143e3409f9,OOORROO,OOORROR,21.12383932,21.38562617,series_1,61311fd128819c143e3409f9,Mężczyzna,18,2021-09-06_18h37.23.190,rantool2,2021.1.4,MacIntel,55.55555556,6135e006383e6ea6c3d06a28,6136436209486be7c7d370d3,2.315,,,,,,,,
j,0,59,59,37,1,61311fd128819c143e3409f9,ROORORO,ROORORR,20.42602454,21.57657071,series_1,61311fd128819c143e3409f9,Mężczyzna,18,2021-09-06_18h37.23.190,rantool2,2021.1.4,MacIntel,55.55555556,6135e006383e6ea6c3d06a28,6136436209486be7c7d370d3,1.868,,,,,,,,
j,0,60,60,17,1,61311fd128819c143e3409f9,OROOORO,OROOORR,21.03750787,22.12173012,series_1,61311fd128819c143e3409f9,Mężczyzna,18,2021-09-06_18h37.23.190,rantool2,2021.1.4,MacIntel,55.55555556,6135e006383e6ea6c3d06a28,6136436209486be7c7d370d3,1.268,,,,,,,,
f,0,61,61,61,1,61311fd128819c143e3409f9,RRRRORO,RRRRORR,21.81333602,21.17347734,series_0,61311fd128819c143e3409f9,Mężczyzna,18,2021-09-06_18h37.23.190,rantool2,2021.1.4,MacIntel,55.55555556,6135e006383e6ea6c3d06a28,6136436209486be7c7d370d3,1.265,,,,,,,,
j,0,62,62,34,1,61311fd128819c143e3409f9,ROOOROO,ROOOROR,21.03750787,21.24781509,series_1,61311fd128819c143e3409f9,Mężczyzna,18,2021-09-06_18h37.23.190,rantool2,2021.1.4,MacIntel,55.55555556,6135e006383e6ea6c3d06a28,6136436209486be7c7d370d3,1.844,,,,,,,,
j,0,63,63,28,1,61311fd128819c143e3409f9,ORRROOO,ORRROOR,22.24142883,22.53364006,series_1,61311fd128819c143e3409f9,Mężczyzna,18,2021-09-06_18h37.23.190,rantool2,2021.1.4,MacIntel,55.55555556,6135e006383e6ea6c3d06a28,6136436209486be7c7d370d3,1.448,,,,,,,,
,,,,,,61311fd128819c143e3409f9,,,,,,61311fd128819c143e3409f9,Mężczyzna,18,2021-09-06_18h37.23.190,rantool2,2021.1.4,MacIntel,55.55555556,6135e006383e6ea6c3d06a28,6136436209486be7c7d370d3,,0,,,0,0,0,0,1
,,,,,,61311fd128819c143e3409f9,,,,,,61311fd128819c143e3409f9,Mężczyzna,18,2021-09-06_18h37.23.190,rantool2,2021.1.4,MacIntel,55.55555556,6135e006383e6ea6c3d06a28,6136436209486be7c7d370d3,,"[""comma""]",0,[0.33099999999996044],1,0,1,0,1
,,,,,,61311fd128819c143e3409f9,,,,,,61311fd128819c143e3409f9,Mężczyzna,18,2021-09-06_18h37.23.190,rantool2,2021.1.4,MacIntel,55.55555556,6135e006383e6ea6c3d06a28,6136436209486be7c7d370d3,,"[""comma""]",0,[0.7579999999999814],2,0,2,0,1
,,,,,,61311fd128819c143e3409f9,,,,,,61311fd128819c143e3409f9,Mężczyzna,18,2021-09-06_18h37.23.190,rantool2,2021.1.4,MacIntel,55.55555556,6135e006383e6ea6c3d06a28,6136436209486be7c7d370d3,,"[""comma""]",0,[0.76400000000001],3,0,3,0,1
,,,,,,61311fd128819c143e3409f9,,,,,,61311fd128819c143e3409f9,Mężczyzna,18,2021-09-06_18h37.23.190,rantool2,2021.1.4,MacIntel,55.55555556,6135e006383e6ea6c3d06a28,6136436209486be7c7d370d3,,"[""comma""]",0,[0.8770000000000095],4,0,4,0,1
,,,,,,61311fd128819c143e3409f9,,,,,,61311fd128819c143e3409f9,Mężczyzna,18,2021-09-06_18h37.23.190,rantool2,2021.1.4,MacIntel,55.55555556,6135e006383e6ea6c3d06a28,6136436209486be7c7d370d3,,"[""period""]",0,[0.4179999999999495],5,0,5,0,1
,,,,,,61311fd128819c143e3409f9,,,,,,61311fd128819c143e3409f9,Mężczyzna,18,2021-09-06_18h37.23.190,rantool2,2021.1.4,MacIntel,55.55555556,6135e006383e6ea6c3d06a28,6136436209486be7c7d370d3,,"[""comma""]",0,[0.4830000000000041],6,0,6,0,1
,,,,,,61311fd128819c143e3409f9,,,,,,61311fd128819c143e3409f9,Mężczyzna,18,2021-09-06_18h37.23.190,rantool2,2021.1.4,MacIntel,55.55555556,6135e006383e6ea6c3d06a28,6136436209486be7c7d370d3,,"[""comma""]",0,[0.5059999999999718],7,0,7,0,1
,,,,,,61311fd128819c143e3409f9,,,,,,61311fd128819c143e3409f9,Mężczyzna,18,2021-09-06_18h37.23.190,rantool2,2021.1.4,MacIntel,55.55555556,6135e006383e6ea6c3d06a28,6136436209486be7c7d370d3,,"[""comma""]",0,[0.5169999999999959],8,0,8,0,1
,,,,,,61311fd128819c143e3409f9,,,,,,61311fd128819c143e3409f9,Mężczyzna,18,2021-09-06_18h37.23.190,rantool2,2021.1.4,MacIntel,55.55555556,6135e006383e6ea6c3d06a28,6136436209486be7c7d370d3,,"[""period""]",0,[0.4749999999999659],9,0,9,0,1
,,,,,,61311fd128819c143e3409f9,,,,,,61311fd128819c143e3409f9,Mężczyzna,18,2021-09-06_18h37.23.190,rantool2,2021.1.4,MacIntel,55.55555556,6135e006383e6ea6c3d06a28,6136436209486be7c7d370d3,,"[""comma""]",0,[0.6059999999999945],10,0,10,0,1
,,,,,,61311fd128819c143e3409f9,,,,,,61311fd128819c143e3409f9,Mężczyzna,18,2021-09-06_18h37.23.190,rantool2,2021.1.4,MacIntel,55.55555556,6135e006383e6ea6c3d06a28,6136436209486be7c7d370d3,,"[""period""]",0,[0.5],11,0,11,0,1
,,,,,,61311fd128819c143e3409f9,,,,,,61311fd128819c143e3409f9,Mężczyzna,18,2021-09-06_18h37.23.190,rantool2,2021.1.4,MacIntel,55.55555556,6135e006383e6ea6c3d06a28,6136436209486be7c7d370d3,,"[""comma""]",0,[0.49799999999999045],12,0,12,0,1
,,,,,,61311fd128819c143e3409f9,,,,,,61311fd128819c143e3409f9,Mężczyzna,18,2021-09-06_18h37.23.190,rantool2,2021.1.4,MacIntel,55.55555556,6135e006383e6ea6c3d06a28,6136436209486be7c7d370d3,,"[""period""]",0,[0.7660000000000196],13,0,13,0,1
,,,,,,61311fd128819c143e3409f9,,,,,,61311fd128819c143e3409f9,Mężczyzna,18,2021-09-06_18h37.23.190,rantool2,2021.1.4,MacIntel,55.55555556,6135e006383e6ea6c3d06a28,6136436209486be7c7d370d3,,"[""comma"",""period""]",0,"[0.3919999999999959,0.39999999999997726]",14,0,14,0,1
,,,,,,61311fd128819c143e3409f9,,,,,,61311fd128819c143e3409f9,Mężczyzna,18,2021-09-06_18h37.23.190,rantool2,2021.1.4,MacIntel,55.55555556,6135e006383e6ea6c3d06a28,6136436209486be7c7d370d3,,"[""period""]",0,[0.3170000000000073],15,0,15,0,1
,,,,,,61311fd128819c143e3409f9,,,,,,61311fd128819c143e3409f9,Mężczyzna,18,2021-09-06_18h37.23.190,rantool2,2021.1.4,MacIntel,55.55555556,6135e006383e6ea6c3d06a28,6136436209486be7c7d370d3,,"[""period""]",0,[0.4440000000000168],16,0,16,0,1
,,,,,,61311fd128819c143e3409f9,,,,,,61311fd128819c143e3409f9,Mężczyzna,18,2021-09-06_18h37.23.190,rantool2,2021.1.4,MacIntel,55.55555556,6135e006383e6ea6c3d06a28,6136436209486be7c7d370d3,,"[""period""]",0,[0.4519999999999982],17,0,17,0,1
,,,,,,61311fd128819c143e3409f9,,,,,,61311fd128819c143e3409f9,Mężczyzna,18,2021-09-06_18h37.23.190,rantool2,2021.1.4,MacIntel,55.55555556,6135e006383e6ea6c3d06a28,6136436209486be7c7d370d3,,"[""comma""]",0,[0.6069999999999709],18,0,18,0,1
,,,,,,61311fd128819c143e3409f9,,,,,,61311fd128819c143e3409f9,Mężczyzna,18,2021-09-06_18h37.23.190,rantool2,2021.1.4,MacIntel,55.55555556,6135e006383e6ea6c3d06a28,6136436209486be7c7d370d3,,"[""comma""]",0,[0.6270000000000095],19,0,19,0,1
,,,,,,61311fd128819c143e3409f9,,,,,,61311fd128819c143e3409f9,Mężczyzna,18,2021-09-06_18h37.23.190,rantool2,2021.1.4,MacIntel,55.55555556,6135e006383e6ea6c3d06a28,6136436209486be7c7d370d3,,"[""comma""]",0,[0.2769999999999868],20,0,20,0,1
,,,,,,61311fd128819c143e3409f9,,,,,,61311fd128819c143e3409f9,Mężczyzna,18,2021-09-06_18h37.23.190,rantool2,2021.1.4,MacIntel,55.55555556,6135e006383e6ea6c3d06a28,6136436209486be7c7d370d3,,"[""period""]",0,[0.2909999999999968],21,0,21,0,1
,,,,,,61311fd128819c143e3409f9,,,,,,61311fd128819c143e3409f9,Mężczyzna,18,2021-09-06_18h37.23.190,rantool2,2021.1.4,MacIntel,55.55555556,6135e006383e6ea6c3d06a28,6136436209486be7c7d370d3,,"[""comma""]",0,[0.3100000000000023],22,0,22,0,1
,,,,,,61311fd128819c143e3409f9,,,,,,61311fd128819c143e3409f9,Mężczyzna,18,2021-09-06_18h37.23.190,rantool2,2021.1.4,MacIntel,55.55555556,6135e006383e6ea6c3d06a28,6136436209486be7c7d370d3,,"[""comma"",""comma""]",0,"[0.16599999999993997,1.8319999999999936]",23,0,23,0,1
,,,,,,61311fd128819c143e3409f9,,,,,,61311fd128819c143e3409f9,Mężczyzna,18,2021-09-06_18h37.23.190,rantool2,2021.1.4,MacIntel,55.55555556,6135e006383e6ea6c3d06a28,6136436209486be7c7d370d3,,0,0,,24,0,24,0,1
,,,,,,61311fd128819c143e3409f9,,,,,,61311fd128819c143e3409f9,Mężczyzna,18,2021-09-06_18h37.23.190,rantool2,2021.1.4,MacIntel,55.55555556,6135e006383e6ea6c3d06a28,6136436209486be7c7d370d3,,"[""comma""]",0,[0.382000000000005],25,0,25,0,1
,,,,,,61311fd128819c143e3409f9,,,,,,61311fd128819c143e3409f9,Mężczyzna,18,2021-09-06_18h37.23.190,rantool2,2021.1.4,MacIntel,55.55555556,6135e006383e6ea6c3d06a28,6136436209486be7c7d370d3,,"[""comma""]",0,[0.3499999999999659],26,0,26,0,1
,,,,,,61311fd128819c143e3409f9,,,,,,61311fd128819c143e3409f9,Mężczyzna,18,2021-09-06_18h37.23.190,rantool2,2021.1.4,MacIntel,55.55555556,6135e006383e6ea6c3d06a28,6136436209486be7c7d370d3,,"[""period""]",0,[0.2899999999999636],27,0,27,0,1
,,,,,,61311fd128819c143e3409f9,,,,,,61311fd128819c143e3409f9,Mężczyzna,18,2021-09-06_18h37.23.190,rantool2,2021.1.4,MacIntel,55.55555556,6135e006383e6ea6c3d06a28,6136436209486be7c7d370d3,,"[""comma""]",0,[0.06500000000005457],28,0,28,0,1
,,,,,,61311fd128819c143e3409f9,,,,,,61311fd128819c143e3409f9,Mężczyzna,18,2021-09-06_18h37.23.190,rantool2,2021.1.4,MacIntel,55.55555556,6135e006383e6ea6c3d06a28,6136436209486be7c7d370d3,,"[""period""]",0,[0.03899999999998727],29,0,29,0,1
,,,,,,61311fd128819c143e3409f9,,,,,,61311fd128819c143e3409f9,Mężczyzna,18,2021-09-06_18h37.23.190,rantool2,2021.1.4,MacIntel,55.55555556,6135e006383e6ea6c3d06a28,6136436209486be7c7d370d3,,"[""period""]",0,[0.15100000000001046],30,0,30,0,1
,,,,,,61311fd128819c143e3409f9,,,,,,61311fd128819c143e3409f9,Mężczyzna,18,2021-09-06_18h37.23.190,rantool2,2021.1.4,MacIntel,55.55555556,6135e006383e6ea6c3d06a28,6136436209486be7c7d370d3,,"[""comma""]",0,[0.10799999999994725],31,0,31,0,1
,,,,,,61311fd128819c143e3409f9,,,,,,61311fd128819c143e3409f9,Mężczyzna,18,2021-09-06_18h37.23.190,rantool2,2021.1.4,MacIntel,55.55555556,6135e006383e6ea6c3d06a28,6136436209486be7c7d370d3,,"[""period""]",0,[0.033999999999991815],32,0,32,0,1
,,,,,,61311fd128819c143e3409f9,,,,,,61311fd128819c143e3409f9,Mężczyzna,18,2021-09-06_18h37.23.190,rantool2,2021.1.4,MacIntel,55.55555556,6135e006383e6ea6c3d06a28,6136436209486be7c7d370d3,,"[""period""]",0,[0.11499999999995225],33,0,33,0,1
,,,,,,61311fd128819c143e3409f9,,,,,,61311fd128819c143e3409f9,Mężczyzna,18,2021-09-06_18h37.23.190,rantool2,2021.1.4,MacIntel,55.55555556,6135e006383e6ea6c3d06a28,6136436209486be7c7d370d3,,"[""period""]",0,[0.2419999999999618],34,0,34,0,1
,,,,,,61311fd128819c143e3409f9,,,,,,61311fd128819c143e3409f9,Mężczyzna,18,2021-09-06_18h37.23.190,rantool2,2021.1.4,MacIntel,55.55555556,6135e006383e6ea6c3d06a28,6136436209486be7c7d370d3,,"[""comma""]",0,[0.1150000000000091],35,0,35,0,1
,,,,,,61311fd128819c143e3409f9,,,,,,61311fd128819c143e3409f9,Mężczyzna,18,2021-09-06_18h37.23.190,rantool2,2021.1.4,MacIntel,55.55555556,6135e006383e6ea6c3d06a28,6136436209486be7c7d370d3,,"[""period""]",0,[0.16800000000000637],36,0,36,0,1
,,,,,,61311fd128819c143e3409f9,,,,,,61311fd128819c143e3409f9,Mężczyzna,18,2021-09-06_18h37.23.190,rantool2,2021.1.4,MacIntel,55.55555556,6135e006383e6ea6c3d06a28,6136436209486be7c7d370d3,,"[""comma""]",0,[0.3020000000000209],37,0,37,0,1
,,,,,,61311fd128819c143e3409f9,,,,,,61311fd128819c143e3409f9,Mężczyzna,18,2021-09-06_18h37.23.190,rantool2,2021.1.4,MacIntel,55.55555556,6135e006383e6ea6c3d06a28,6136436209486be7c7d370d3,,"[""period""]",0,[0.3100000000000023],38,0,38,0,1
,,,,,,61311fd128819c143e3409f9,,,,,,61311fd128819c143e3409f9,Mężczyzna,18,2021-09-06_18h37.23.190,rantool2,2021.1.4,MacIntel,55.55555556,6135e006383e6ea6c3d06a28,6136436209486be7c7d370d3,,"[""comma""]",0,[0.09399999999999409],39,0,39,0,1
,,,,,,61311fd128819c143e3409f9,,,,,,61311fd128819c143e3409f9,Mężczyzna,18,2021-09-06_18h37.23.190,rantool2,2021.1.4,MacIntel,55.55555556,6135e006383e6ea6c3d06a28,6136436209486be7c7d370d3,,"[""comma""]",0,[0.06699999999995043],40,0,40,0,1
,,,,,,61311fd128819c143e3409f9,,,,,,61311fd128819c143e3409f9,Mężczyzna,18,2021-09-06_18h37.23.190,rantool2,2021.1.4,MacIntel,55.55555556,6135e006383e6ea6c3d06a28,6136436209486be7c7d370d3,,"[""period""]",0,[0.16799999999994952],41,0,41,0,1
,,,,,,61311fd128819c143e3409f9,,,,,,61311fd128819c143e3409f9,Mężczyzna,18,2021-09-06_18h37.23.190,rantool2,2021.1.4,MacIntel,55.55555556,6135e006383e6ea6c3d06a28,6136436209486be7c7d370d3,,"[""comma""]",0,[0.0999999999999659],42,0,42,0,1
,,,,,,61311fd128819c143e3409f9,,,,,,61311fd128819c143e3409f9,Mężczyzna,18,2021-09-06_18h37.23.190,rantool2,2021.1.4,MacIntel,55.55555556,6135e006383e6ea6c3d06a28,6136436209486be7c7d370d3,,"[""period"",""comma""]",0,"[0.06400000000007822,1.8240000000000123]",43,0,43,0,1
,,,,,,61311fd128819c143e3409f9,,,,,,61311fd128819c143e3409f9,Mężczyzna,18,2021-09-06_18h37.23.190,rantool2,2021.1.4,MacIntel,55.55555556,6135e006383e6ea6c3d06a28,6136436209486be7c7d370d3,,"[""comma""]",0,[1.8929999999999723],44,0,44,0,1
,,,,,,61311fd128819c143e3409f9,,,,,,61311fd128819c143e3409f9,Mężczyzna,18,2021-09-06_18h37.23.190,rantool2,2021.1.4,MacIntel,55.55555556,6135e006383e6ea6c3d06a28,6136436209486be7c7d370d3,,0,0,,45,0,45,0,1
,,,,,,61311fd128819c143e3409f9,,,,,,61311fd128819c143e3409f9,Mężczyzna,18,2021-09-06_18h37.23.190,rantool2,2021.1.4,MacIntel,55.55555556,6135e006383e6ea6c3d06a28,6136436209486be7c7d370d3,,"[""period""]",0,[0.0030000000000427463],46,0,46,0,1
,,,,,,61311fd128819c143e3409f9,,,,,,61311fd128819c143e3409f9,Mężczyzna,18,2021-09-06_18h37.23.190,rantool2,2021.1.4,MacIntel,55.55555556,6135e006383e6ea6c3d06a28,6136436209486be7c7d370d3,,"[""comma""]",0,[0.18500000000000227],47,0,47,0,1
,,,,,,61311fd128819c143e3409f9,,,,,,61311fd128819c143e3409f9,Mężczyzna,18,2021-09-06_18h37.23.190,rantool2,2021.1.4,MacIntel,55.55555556,6135e006383e6ea6c3d06a28,6136436209486be7c7d370d3,,"[""comma""]",0,[0.33499999999997954],48,0,48,0,1
,,,,,,61311fd128819c143e3409f9,,,,,,61311fd128819c143e3409f9,Mężczyzna,18,2021-09-06_18h37.23.190,rantool2,2021.1.4,MacIntel,55.55555556,6135e006383e6ea6c3d06a28,6136436209486be7c7d370d3,,"[""period""]",0,[0.05900000000002592],49,0,49,0,1
,,,,,,61311fd128819c143e3409f9,,,,,,61311fd128819c143e3409f9,Mężczyzna,18,2021-09-06_18h37.23.190,rantool2,2021.1.4,MacIntel,55.55555556,6135e006383e6ea6c3d06a28,6136436209486be7c7d370d3,,"[""period"",""period""]",0,"[-0.022999999999967713,1.9209999999999923]",50,0,50,0,1
,,,,,,61311fd128819c143e3409f9,,,,,,61311fd128819c143e3409f9,Mężczyzna,18,2021-09-06_18h37.23.190,rantool2,2021.1.4,MacIntel,55.55555556,6135e006383e6ea6c3d06a28,6136436209486be7c7d370d3,,0,0,,51,0,51,0,1
,,,,,,61311fd128819c143e3409f9,,,,,,61311fd128819c143e3409f9,Mężczyzna,18,2021-09-06_18h37.23.190,rantool2,2021.1.4,MacIntel,55.55555556,6135e006383e6ea6c3d06a28,6136436209486be7c7d370d3,,"[""comma""]",0,[0.02600000000001046],52,0,52,0,1
,,,,,,61311fd128819c143e3409f9,,,,,,61311fd128819c143e3409f9,Mężczyzna,18,2021-09-06_18h37.23.190,rantool2,2021.1.4,MacIntel,55.55555556,6135e006383e6ea6c3d06a28,6136436209486be7c7d370d3,,"[""comma""]",0,[0.30600000000004],53,0,53,0,1
,,,,,,61311fd128819c143e3409f9,,,,,,61311fd128819c143e3409f9,Mężczyzna,18,2021-09-06_18h37.23.190,rantool2,2021.1.4,MacIntel,55.55555556,6135e006383e6ea6c3d06a28,6136436209486be7c7d370d3,,"[""comma""]",0,[0.2699999999999818],54,0,54,0,1
,,,,,,61311fd128819c143e3409f9,,,,,,61311fd128819c143e3409f9,Mężczyzna,18,2021-09-06_18h37.23.190,rantool2,2021.1.4,MacIntel,55.55555556,6135e006383e6ea6c3d06a28,6136436209486be7c7d370d3,,"[""period""]",0,[0.2259999999999991],55,0,55,0,1
,,,,,,61311fd128819c143e3409f9,,,,,,61311fd128819c143e3409f9,Mężczyzna,18,2021-09-06_18h37.23.190,rantool2,2021.1.4,MacIntel,55.55555556,6135e006383e6ea6c3d06a28,6136436209486be7c7d370d3,,"[""comma""]",0,[-0.01799999999997226],56,0,56,0,1
,,,,,,61311fd128819c143e3409f9,,,,,,61311fd128819c143e3409f9,Mężczyzna,18,2021-09-06_18h37.23.190,rantool2,2021.1.4,MacIntel,55.55555556,6135e006383e6ea6c3d06a28,6136436209486be7c7d370d3,,"[""period""]",0,[0.21600000000000819],57,0,57,0,1
,,,,,,61311fd128819c143e3409f9,,,,,,61311fd128819c143e3409f9,Mężczyzna,18,2021-09-06_18h37.23.190,rantool2,2021.1.4,MacIntel,55.55555556,6135e006383e6ea6c3d06a28,6136436209486be7c7d370d3,,"[""comma""]",0,[0.32499999999998863],58,0,58,0,1
,,,,,,61311fd128819c143e3409f9,,,,,,61311fd128819c143e3409f9,Mężczyzna,18,2021-09-06_18h37.23.190,rantool2,2021.1.4,MacIntel,55.55555556,6135e006383e6ea6c3d06a28,6136436209486be7c7d370d3,,"[""period""]",0,[0.2310000000000514],59,0,59,0,1
,,,,,,61311fd128819c143e3409f9,,,,,,61311fd128819c143e3409f9,Mężczyzna,18,2021-09-06_18h37.23.190,rantool2,2021.1.4,MacIntel,55.55555556,6135e006383e6ea6c3d06a28,6136436209486be7c7d370d3,,"[""period"",""period""]",0,"[0.11099999999999,1.9499999999999886]",60,0,60,0,1
,,,,,,61311fd128819c143e3409f9,,,,,,61311fd128819c143e3409f9,Mężczyzna,18,2021-09-06_18h37.23.190,rantool2,2021.1.4,MacIntel,55.55555556,6135e006383e6ea6c3d06a28,6136436209486be7c7d370d3,,0,0,,61,0,61,0,1
,,,,,,61311fd128819c143e3409f9,,,,,,61311fd128819c143e3409f9,Mężczyzna,18,2021-09-06_18h37.23.190,rantool2,2021.1.4,MacIntel,55.55555556,6135e006383e6ea6c3d06a28,6136436209486be7c7d370d3,,"[""comma"",""period""]",0,"[0.05200000000002092,1.9610000000000127]",62,0,62,0,1
,,,,,,61311fd128819c143e3409f9,,,,,,61311fd128819c143e3409f9,Mężczyzna,18,2021-09-06_18h37.23.190,rantool2,2021.1.4,MacIntel,55.55555556,6135e006383e6ea6c3d06a28,6136436209486be7c7d370d3,,0,0,,63,0,63,0,1
,,,,,,61311fd128819c143e3409f9,,,,,,61311fd128819c143e3409f9,Mężczyzna,18,2021-09-06_18h37.23.190,rantool2,2021.1.4,MacIntel,55.55555556,6135e006383e6ea6c3d06a28,6136436209486be7c7d370d3,,"[""comma""]",0,[0.10200000000003229],64,0,64,0,1
,,,,,,61311fd128819c143e3409f9,,,,,,61311fd128819c143e3409f9,Mężczyzna,18,2021-09-06_18h37.23.190,rantool2,2021.1.4,MacIntel,55.55555556,6135e006383e6ea6c3d06a28,6136436209486be7c7d370d3,,"[""comma""]",0,[0.10099999999999909],65,0,65,0,1
,,,,,,61311fd128819c143e3409f9,,,,,,61311fd128819c143e3409f9,Mężczyzna,18,2021-09-06_18h37.23.190,rantool2,2021.1.4,MacIntel,55.55555556,6135e006383e6ea6c3d06a28,6136436209486be7c7d370d3,,"[""period""]",0,[0.3079999999999927],66,0,66,0,1
,,,,,,61311fd128819c143e3409f9,,,,,,61311fd128819c143e3409f9,Mężczyzna,18,2021-09-06_18h37.23.190,rantool2,2021.1.4,MacIntel,55.55555556,6135e006383e6ea6c3d06a28,6136436209486be7c7d370d3,,"[""period""]",0,[0.2659999999999627],67,0,67,0,1
,,,,,,61311fd128819c143e3409f9,,,,,,61311fd128819c143e3409f9,Mężczyzna,18,2021-09-06_18h37.23.190,rantool2,2021.1.4,MacIntel,55.55555556,6135e006383e6ea6c3d06a28,6136436209486be7c7d370d3,,"[""period""]",0,[0.28400000000004866],68,0,68,0,1
,,,,,,61311fd128819c143e3409f9,,,,,,61311fd128819c143e3409f9,Mężczyzna,18,2021-09-06_18h37.23.190,rantool2,2021.1.4,MacIntel,55.55555556,6135e006383e6ea6c3d06a28,6136436209486be7c7d370d3,,"[""period""]",0,[0.06099999999997863],69,0,69,0,1
,,,,,,61311fd128819c143e3409f9,,,,,,61311fd128819c143e3409f9,Mężczyzna,18,2021-09-06_18h37.23.190,rantool2,2021.1.4,MacIntel,55.55555556,6135e006383e6ea6c3d06a28,6136436209486be7c7d370d3,,"[""period""]",0,[0.29899999999997817],70,0,70,0,1
,,,,,,61311fd128819c143e3409f9,,,,,,61311fd128819c143e3409f9,Mężczyzna,18,2021-09-06_18h37.23.190,rantool2,2021.1.4,MacIntel,55.55555556,6135e006383e6ea6c3d06a28,6136436209486be7c7d370d3,,"[""period""]",0,[0.3310000000000173],71,0,71,0,1
,,,,,,61311fd128819c143e3409f9,,,,,,61311fd128819c143e3409f9,Mężczyzna,18,2021-09-06_18h37.23.190,rantool2,2021.1.4,MacIntel,55.55555556,6135e006383e6ea6c3d06a28,6136436209486be7c7d370d3,,"[""period""]",0,[0.28199999999998226],72,0,72,0,1
,,,,,,61311fd128819c143e3409f9,,,,,,61311fd128819c143e3409f9,Mężczyzna,18,2021-09-06_18h37.23.190,rantool2,2021.1.4,MacIntel,55.55555556,6135e006383e6ea6c3d06a28,6136436209486be7c7d370d3,,"[""comma""]",0,[0.2330000000000041],73,0,73,0,1
,,,,,,61311fd128819c143e3409f9,,,,,,61311fd128819c143e3409f9,Mężczyzna,18,2021-09-06_18h37.23.190,rantool2,2021.1.4,MacIntel,55.55555556,6135e006383e6ea6c3d06a28,6136436209486be7c7d370d3,,"[""period""]",0,[0.09800000000001319],74,0,74,0,1
,,,,,,61311fd128819c143e3409f9,,,,,,61311fd128819c143e3409f9,Mężczyzna,18,2021-09-06_18h37.23.190,rantool2,2021.1.4,MacIntel,55.55555556,6135e006383e6ea6c3d06a28,6136436209486be7c7d370d3,,"[""comma""]",0,[0.007000000000005002],75,0,75,0,1
,,,,,,61311fd128819c143e3409f9,,,,,,61311fd128819c143e3409f9,Mężczyzna,18,2021-09-06_18h37.23.190,rantool2,2021.1.4,MacIntel,55.55555556,6135e006383e6ea6c3d06a28,6136436209486be7c7d370d3,,"[""comma""]",0,[0.018000000000029104],76,0,76,0,1
,,,,,,61311fd128819c143e3409f9,,,,,,61311fd128819c143e3409f9,Mężczyzna,18,2021-09-06_18h37.23.190,rantool2,2021.1.4,MacIntel,55.55555556,6135e006383e6ea6c3d06a28,6136436209486be7c7d370d3,,"[""comma""]",0,[0.10800000000000409],77,0,77,0,1
,,,,,,61311fd128819c143e3409f9,,,,,,61311fd128819c143e3409f9,Mężczyzna,18,2021-09-06_18h37.23.190,rantool2,2021.1.4,MacIntel,55.55555556,6135e006383e6ea6c3d06a28,6136436209486be7c7d370d3,,"[""period""]",0,[0.3079999999999927],78,0,78,0,1
,,,,,,61311fd128819c143e3409f9,,,,,,61311fd128819c143e3409f9,Mężczyzna,18,2021-09-06_18h37.23.190,rantool2,2021.1.4,MacIntel,55.55555556,6135e006383e6ea6c3d06a28,6136436209486be7c7d370d3,,"[""period""]",0,[0.33199999999999363],79,0,79,0,1
,,,,,,61311fd128819c143e3409f9,,,,,,61311fd128819c143e3409f9,Mężczyzna,18,2021-09-06_18h37.23.190,rantool2,2021.1.4,MacIntel,55.55555556,6135e006383e6ea6c3d06a28,6136436209486be7c7d370d3,,"[""period""]",0,[0.2820000000000391],80,0,80,0,1
,,,,,,61311fd128819c143e3409f9,,,,,,61311fd128819c143e3409f9,Mężczyzna,18,2021-09-06_18h37.23.190,rantool2,2021.1.4,MacIntel,55.55555556,6135e006383e6ea6c3d06a28,6136436209486be7c7d370d3,,"[""comma""]",0,[0.05099999999998772],81,0,81,0,1
,,,,,,61311fd128819c143e3409f9,,,,,,61311fd128819c143e3409f9,Mężczyzna,18,2021-09-06_18h37.23.190,rantool2,2021.1.4,MacIntel,55.55555556,6135e006383e6ea6c3d06a28,6136436209486be7c7d370d3,,"[""period"",""period""]",0,"[0.0009999999999763531,1.9769999999999754]",82,0,82,0,1
,,,,,,61311fd128819c143e3409f9,,,,,,61311fd128819c143e3409f9,Mężczyzna,18,2021-09-06_18h37.23.190,rantool2,2021.1.4,MacIntel,55.55555556,6135e006383e6ea6c3d06a28,6136436209486be7c7d370d3,,0,0,,83,0,83,0,1
,,,,,,61311fd128819c143e3409f9,,,,,,61311fd128819c143e3409f9,Mężczyzna,18,2021-09-06_18h37.23.190,rantool2,2021.1.4,MacIntel,55.55555556,6135e006383e6ea6c3d06a28,6136436209486be7c7d370d3,,"[""comma"",""period""]",0,"[0.08699999999998909,1.9669999999999845]",84,0,84,0,1
,,,,,,61311fd128819c143e3409f9,,,,,,61311fd128819c143e3409f9,Mężczyzna,18,2021-09-06_18h37.23.190,rantool2,2021.1.4,MacIntel,55.55555556,6135e006383e6ea6c3d06a28,6136436209486be7c7d370d3,,0,0,,85,0,85,0,1
,,,,,,61311fd128819c143e3409f9,,,,,,61311fd128819c143e3409f9,Mężczyzna,18,2021-09-06_18h37.23.190,rantool2,2021.1.4,MacIntel,55.55555556,6135e006383e6ea6c3d06a28,6136436209486be7c7d370d3,,"[""period""]",0,[0.28300000000001546],86,0,86,0,1
,,,,,,61311fd128819c143e3409f9,,,,,,61311fd128819c143e3409f9,Mężczyzna,18,2021-09-06_18h37.23.190,rantool2,2021.1.4,MacIntel,55.55555556,6135e006383e6ea6c3d06a28,6136436209486be7c7d370d3,,"[""period"",""period""]",0,"[0.2340000000000373,1.9580000000000268]",87,0,87,0,1
,,,,,,61311fd128819c143e3409f9,,,,,,61311fd128819c143e3409f9,Mężczyzna,18,2021-09-06_18h37.23.190,rantool2,2021.1.4,MacIntel,55.55555556,6135e006383e6ea6c3d06a28,6136436209486be7c7d370d3,,0,0,,88,0,88,0,1
,,,,,,61311fd128819c143e3409f9,,,,,,61311fd128819c143e3409f9,Mężczyzna,18,2021-09-06_18h37.23.190,rantool2,2021.1.4,MacIntel,55.55555556,6135e006383e6ea6c3d06a28,6136436209486be7c7d370d3,,"[""comma""]",0,[0.025000000000034106],89,0,89,0,1
,,,,,,61311fd128819c143e3409f9,,,,,,61311fd128819c143e3409f9,Mężczyzna,18,2021-09-06_18h37.23.190,rantool2,2021.1.4,MacIntel,55.55555556,6135e006383e6ea6c3d06a28,6136436209486be7c7d370d3,,"[""period""]",0,[0.3229999999999791],90,0,90,0,1
,,,,,,61311fd128819c143e3409f9,,,,,,61311fd128819c143e3409f9,Mężczyzna,18,2021-09-06_18h37.23.190,rantool2,2021.1.4,MacIntel,55.55555556,6135e006383e6ea6c3d06a28,6136436209486be7c7d370d3,,"[""comma""]",0,[0.28300000000001546],91,0,91,0,1
,,,,,,61311fd128819c143e3409f9,,,,,,61311fd128819c143e3409f9,Mężczyzna,18,2021-09-06_18h37.23.190,rantool2,2021.1.4,MacIntel,55.55555556,6135e006383e6ea6c3d06a28,6136436209486be7c7d370d3,,"[""comma""]",0,[0.03299999999995862],92,0,92,0,1
,,,,,,61311fd128819c143e3409f9,,,,,,61311fd128819c143e3409f9,Mężczyzna,18,2021-09-06_18h37.23.190,rantool2,2021.1.4,MacIntel,55.55555556,6135e006383e6ea6c3d06a28,6136436209486be7c7d370d3,,"[""comma""]",0,[0.34499999999997044],93,0,93,0,1
,,,,,,61311fd128819c143e3409f9,,,,,,61311fd128819c143e3409f9,Mężczyzna,18,2021-09-06_18h37.23.190,rantool2,2021.1.4,MacIntel,55.55555556,6135e006383e6ea6c3d06a28,6136436209486be7c7d370d3,,"[""period""]",0,[0.22299999999995634],94,0,94,0,1
,,,,,,61311fd128819c143e3409f9,,,,,,61311fd128819c143e3409f9,Mężczyzna,18,2021-09-06_18h37.23.190,rantool2,2021.1.4,MacIntel,55.55555556,6135e006383e6ea6c3d06a28,6136436209486be7c7d370d3,,"[""comma"",""comma""]",0,"[0.02600000000001046,1.809000000000026]",95,0,95,0,1
,,,,,,61311fd128819c143e3409f9,,,,,,61311fd128819c143e3409f9,Mężczyzna,18,2021-09-06_18h37.23.190,rantool2,2021.1.4,MacIntel,55.55555556,6135e006383e6ea6c3d06a28,6136436209486be7c7d370d3,,"[""comma""]",0,[1.7699999999999818],96,0,96,0,1
,,,,,,61311fd128819c143e3409f9,,,,,,61311fd128819c143e3409f9,Mężczyzna,18,2021-09-06_18h37.23.190,rantool2,2021.1.4,MacIntel,55.55555556,6135e006383e6ea6c3d06a28,6136436209486be7c7d370d3,,0,0,,97,0,97,0,1
,,,,,,61311fd128819c143e3409f9,,,,,,61311fd128819c143e3409f9,Mężczyzna,18,2021-09-06_18h37.23.190,rantool2,2021.1.4,MacIntel,55.55555556,6135e006383e6ea6c3d06a28,6136436209486be7c7d370d3,,"[""comma""]",0,[0.15899999999999181],98,0,98,0,1
,,,,,,61311fd128819c143e3409f9,,,,,,61311fd128819c143e3409f9,Mężczyzna,18,2021-09-06_18h37.23.190,rantool2,2021.1.4,MacIntel,55.55555556,6135e006383e6ea6c3d06a28,6136436209486be7c7d370d3,,"[""comma""]",0,[0.2999999999999545],99,0,99,0,1
,,,,,,61311fd128819c143e3409f9,,,,,,61311fd128819c143e3409f9,Mężczyzna,18,2021-09-06_18h37.23.190,rantool2,2021.1.4,MacIntel,55.55555556,6135e006383e6ea6c3d06a28,6136436209486be7c7d370d3,,"[""period""]",0,[-0.016999999999995907],100,0,100,0,1
,,,,,,61311fd128819c143e3409f9,,,,,,61311fd128819c143e3409f9,Mężczyzna,18,2021-09-06_18h37.23.190,rantool2,2021.1.4,MacIntel,55.55555556,6135e006383e6ea6c3d06a28,6136436209486be7c7d370d3,,"[""comma""]",0,[0.2899999999999636],101,0,101,0,1
,,,,,,61311fd128819c143e3409f9,,,,,,61311fd128819c143e3409f9,Mężczyzna,18,2021-09-06_18h37.23.190,rantool2,2021.1.4,MacIntel,55.55555556,6135e006383e6ea6c3d06a28,6136436209486be7c7d370d3,,"[""period""]",0,[0.5269999999999868],102,0,102,0,1
,,,,,,61311fd128819c143e3409f9,,,,,,61311fd128819c143e3409f9,Mężczyzna,18,2021-09-06_18h37.23.190,rantool2,2021.1.4,MacIntel,55.55555556,6135e006383e6ea6c3d06a28,6136436209486be7c7d370d3,,"[""period""]",0,[0.3499999999999659],103,0,103,0,1
,,,,,,61311fd128819c143e3409f9,,,,,,61311fd128819c143e3409f9,Mężczyzna,18,2021-09-06_18h37.23.190,rantool2,2021.1.4,MacIntel,55.55555556,6135e006383e6ea6c3d06a28,6136436209486be7c7d370d3,,"[""comma""]",0,[0.27600000000001046],104,0,104,0,1
,,,,,,61311fd128819c143e3409f9,,,,,,61311fd128819c143e3409f9,Mężczyzna,18,2021-09-06_18h37.23.190,rantool2,2021.1.4,MacIntel,55.55555556,6135e006383e6ea6c3d06a28,6136436209486be7c7d370d3,,"[""comma""]",0,[0.2510000000000332],105,0,105,0,1
,,,,,,61311fd128819c143e3409f9,,,,,,61311fd128819c143e3409f9,Mężczyzna,18,2021-09-06_18h37.23.190,rantool2,2021.1.4,MacIntel,55.55555556,6135e006383e6ea6c3d06a28,6136436209486be7c7d370d3,,"[""comma""]",0,[0.15100000000001046],106,0,106,0,1
,,,,,,61311fd128819c143e3409f9,,,,,,61311fd128819c143e3409f9,Mężczyzna,18,2021-09-06_18h37.23.190,rantool2,2021.1.4,MacIntel,55.55555556,6135e006383e6ea6c3d06a28,6136436209486be7c7d370d3,,"[""period""]",0,[0.2909999999999968],107,0,107,0,1
,,,,,,61311fd128819c143e3409f9,,,,,,61311fd128819c143e3409f9,Mężczyzna,18,2021-09-06_18h37.23.190,rantool2,2021.1.4,MacIntel,55.55555556,6135e006383e6ea6c3d06a28,6136436209486be7c7d370d3,,"[""comma""]",0,[0.3079999999999927],108,0,108,0,1
,,,,,,61311fd128819c143e3409f9,,,,,,61311fd128819c143e3409f9,Mężczyzna,18,2021-09-06_18h37.23.190,rantool2,2021.1.4,MacIntel,55.55555556,6135e006383e6ea6c3d06a28,6136436209486be7c7d370d3,,"[""period""]",0,[0.5240000000000009],109,0,109,0,1
,,,,,,61311fd128819c143e3409f9,,,,,,61311fd128819c143e3409f9,Mężczyzna,18,2021-09-06_18h37.23.190,rantool2,2021.1.4,MacIntel,55.55555556,6135e006383e6ea6c3d06a28,6136436209486be7c7d370d3,,"[""period""]",0,[0.40699999999998226],110,0,110,0,1
,,,,,,61311fd128819c143e3409f9,,,,,,61311fd128819c143e3409f9,Mężczyzna,18,2021-09-06_18h37.23.190,rantool2,2021.1.4,MacIntel,55.55555556,6135e006383e6ea6c3d06a28,6136436209486be7c7d370d3,,"[""period""]",0,[0.2599999999999909],111,0,111,0,1
,,,,,,61311fd128819c143e3409f9,,,,,,61311fd128819c143e3409f9,Mężczyzna,18,2021-09-06_18h37.23.190,rantool2,2021.1.4,MacIntel,55.55555556,6135e006383e6ea6c3d06a28,6136436209486be7c7d370d3,,"[""comma"",""period""]",0,"[0.0020000000000095497,1.850999999999999]",112,0,112,0,1
,,,,,,61311fd128819c143e3409f9,,,,,,61311fd128819c143e3409f9,Mężczyzna,18,2021-09-06_18h37.23.190,rantool2,2021.1.4,MacIntel,55.55555556,6135e006383e6ea6c3d06a28,6136436209486be7c7d370d3,,"[""comma""]",0,[1.8069999999999595],113,0,113,0,1
,,,,,,61311fd128819c143e3409f9,,,,,,61311fd128819c143e3409f9,Mężczyzna,18,2021-09-06_18h37.23.190,rantool2,2021.1.4,MacIntel,55.55555556,6135e006383e6ea6c3d06a28,6136436209486be7c7d370d3,,0,0,,114,0,114,0,1
,,,,,,61311fd128819c143e3409f9,,,,,,61311fd128819c143e3409f9,Mężczyzna,18,2021-09-06_18h37.23.190,rantool2,2021.1.4,MacIntel,55.55555556,6135e006383e6ea6c3d06a28,6136436209486be7c7d370d3,,"[""comma""]",0,[0.25],115,0,115,0,1
,,,,,,61311fd128819c143e3409f9,,,,,,61311fd128819c143e3409f9,Mężczyzna,18,2021-09-06_18h37.23.190,rantool2,2021.1.4,MacIntel,55.55555556,6135e006383e6ea6c3d06a28,6136436209486be7c7d370d3,,"[""period""]",0,[0.3590000000000373],116,0,116,0,1
,,,,,,61311fd128819c143e3409f9,,,,,,61311fd128819c143e3409f9,Mężczyzna,18,2021-09-06_18h37.23.190,rantool2,2021.1.4,MacIntel,55.55555556,6135e006383e6ea6c3d06a28,6136436209486be7c7d370d3,,"[""comma""]",0,[0.3240000000000691],117,0,117,0,1
,,,,,,61311fd128819c143e3409f9,,,,,,61311fd128819c143e3409f9,Mężczyzna,18,2021-09-06_18h37.23.190,rantool2,2021.1.4,MacIntel,55.55555556,6135e006383e6ea6c3d06a28,6136436209486be7c7d370d3,,"[""comma""]",0,[0.27500000000009095],118,0,118,0,1
,,,,,,61311fd128819c143e3409f9,,,,,,61311fd128819c143e3409f9,Mężczyzna,18,2021-09-06_18h37.23.190,rantool2,2021.1.4,MacIntel,55.55555556,6135e006383e6ea6c3d06a28,6136436209486be7c7d370d3,,"[""period""]",0,[0.3089999999999691],119,0,119,0,1
