key_resp_5.keys,key_resp_5.corr,key_resp_5.rt,trials.thisRepN,trials.thisTrialN,trials.thisN,trials.thisIndex,trials.ran,id*,Płeć*,Wiek*,date,expName,psychopyVersion,OS,frameRate,id,STUDY_ID,SESSION_ID,key_resp_7.keys,key_resp_7.rt,trials_2.thisRepN,trials_2.thisTrialN,trials_2.thisN,trials_2.thisIndex,trials_2.ran,series_0,series_1,acss_0,acss_1,comparison
"[""comma""]",0,[0.9653350000005503],0,0,0,0,1,5d1751e2ede7260018ea70fb,Mężczyzna,21,2021-07-13_22h11.06.556,rantool2,2021.1.4,Win32,60.2300789,5d1751e2ede7260018ea70fb,60d9d14f4a8a35a482e0d9bf,60edeee7dd50b55a5f45a370,,,,,,,,,,,,
"[""period""]",0,[0.6286399999955847],1,0,1,0,1,5d1751e2ede7260018ea70fb,Mężczyzna,21,2021-07-13_22h11.06.556,rantool2,2021.1.4,Win32,60.2300789,5d1751e2ede7260018ea70fb,60d9d14f4a8a35a482e0d9bf,60edeee7dd50b55a5f45a370,,,,,,,,,,,,
"[""period""]",0,[0.28323500000283275],2,0,2,0,1,5d1751e2ede7260018ea70fb,Mężczyzna,21,2021-07-13_22h11.06.556,rantool2,2021.1.4,Win32,60.2300789,5d1751e2ede7260018ea70fb,60d9d14f4a8a35a482e0d9bf,60edeee7dd50b55a5f45a370,,,,,,,,,,,,
"[""comma""]",0,[0.26226499999756925],3,0,3,0,1,5d1751e2ede7260018ea70fb,Mężczyzna,21,2021-07-13_22h11.06.556,rantool2,2021.1.4,Win32,60.2300789,5d1751e2ede7260018ea70fb,60d9d14f4a8a35a482e0d9bf,60edeee7dd50b55a5f45a370,,,,,,,,,,,,
"[""period""]",0,[0.2732149999937974],4,0,4,0,1,5d1751e2ede7260018ea70fb,Mężczyzna,21,2021-07-13_22h11.06.556,rantool2,2021.1.4,Win32,60.2300789,5d1751e2ede7260018ea70fb,60d9d14f4a8a35a482e0d9bf,60edeee7dd50b55a5f45a370,,,,,,,,,,,,
"[""comma""]",0,[0.25534999999945285],5,0,5,0,1,5d1751e2ede7260018ea70fb,Mężczyzna,21,2021-07-13_22h11.06.556,rantool2,2021.1.4,Win32,60.2300789,5d1751e2ede7260018ea70fb,60d9d14f4a8a35a482e0d9bf,60edeee7dd50b55a5f45a370,,,,,,,,,,,,
"[""comma""]",0,[0.24658500000055028],6,0,6,0,1,5d1751e2ede7260018ea70fb,Mężczyzna,21,2021-07-13_22h11.06.556,rantool2,2021.1.4,Win32,60.2300789,5d1751e2ede7260018ea70fb,60d9d14f4a8a35a482e0d9bf,60edeee7dd50b55a5f45a370,,,,,,,,,,,,
"[""comma""]",0,[0.2532050000008894],7,0,7,0,1,5d1751e2ede7260018ea70fb,Mężczyzna,21,2021-07-13_22h11.06.556,rantool2,2021.1.4,Win32,60.2300789,5d1751e2ede7260018ea70fb,60d9d14f4a8a35a482e0d9bf,60edeee7dd50b55a5f45a370,,,,,,,,,,,,
"[""period""]",0,[0.21604500000103144],8,0,8,0,1,5d1751e2ede7260018ea70fb,Mężczyzna,21,2021-07-13_22h11.06.556,rantool2,2021.1.4,Win32,60.2300789,5d1751e2ede7260018ea70fb,60d9d14f4a8a35a482e0d9bf,60edeee7dd50b55a5f45a370,,,,,,,,,,,,
"[""comma""]",0,[0.31652500000200234],9,0,9,0,1,5d1751e2ede7260018ea70fb,Mężczyzna,21,2021-07-13_22h11.06.556,rantool2,2021.1.4,Win32,60.2300789,5d1751e2ede7260018ea70fb,60d9d14f4a8a35a482e0d9bf,60edeee7dd50b55a5f45a370,,,,,,,,,,,,
"[""comma""]",0,[0.2497399999992922],10,0,10,0,1,5d1751e2ede7260018ea70fb,Mężczyzna,21,2021-07-13_22h11.06.556,rantool2,2021.1.4,Win32,60.2300789,5d1751e2ede7260018ea70fb,60d9d14f4a8a35a482e0d9bf,60edeee7dd50b55a5f45a370,,,,,,,,,,,,
"[""comma""]",0,[0.26803500000073655],11,0,11,0,1,5d1751e2ede7260018ea70fb,Mężczyzna,21,2021-07-13_22h11.06.556,rantool2,2021.1.4,Win32,60.2300789,5d1751e2ede7260018ea70fb,60d9d14f4a8a35a482e0d9bf,60edeee7dd50b55a5f45a370,,,,,,,,,,,,
"[""period""]",0,[0.507040000004281],12,0,12,0,1,5d1751e2ede7260018ea70fb,Mężczyzna,21,2021-07-13_22h11.06.556,rantool2,2021.1.4,Win32,60.2300789,5d1751e2ede7260018ea70fb,60d9d14f4a8a35a482e0d9bf,60edeee7dd50b55a5f45a370,,,,,,,,,,,,
"[""period""]",0,[0.5733049999980722],13,0,13,0,1,5d1751e2ede7260018ea70fb,Mężczyzna,21,2021-07-13_22h11.06.556,rantool2,2021.1.4,Win32,60.2300789,5d1751e2ede7260018ea70fb,60d9d14f4a8a35a482e0d9bf,60edeee7dd50b55a5f45a370,,,,,,,,,,,,
"[""comma""]",0,[0.24636999999370346],14,0,14,0,1,5d1751e2ede7260018ea70fb,Mężczyzna,21,2021-07-13_22h11.06.556,rantool2,2021.1.4,Win32,60.2300789,5d1751e2ede7260018ea70fb,60d9d14f4a8a35a482e0d9bf,60edeee7dd50b55a5f45a370,,,,,,,,,,,,
"[""period"",""period""]",0,"[0.24008499999763444,0.9237300000020241]",15,0,15,0,1,5d1751e2ede7260018ea70fb,Mężczyzna,21,2021-07-13_22h11.06.556,rantool2,2021.1.4,Win32,60.2300789,5d1751e2ede7260018ea70fb,60d9d14f4a8a35a482e0d9bf,60edeee7dd50b55a5f45a370,,,,,,,,,,,,
"[""period""]",0,[0.27595499999733875],16,0,16,0,1,5d1751e2ede7260018ea70fb,Mężczyzna,21,2021-07-13_22h11.06.556,rantool2,2021.1.4,Win32,60.2300789,5d1751e2ede7260018ea70fb,60d9d14f4a8a35a482e0d9bf,60edeee7dd50b55a5f45a370,,,,,,,,,,,,
"[""comma"",""period""]",0,"[0.26153500000532404,1.9000450000021374]",17,0,17,0,1,5d1751e2ede7260018ea70fb,Mężczyzna,21,2021-07-13_22h11.06.556,rantool2,2021.1.4,Win32,60.2300789,5d1751e2ede7260018ea70fb,60d9d14f4a8a35a482e0d9bf,60edeee7dd50b55a5f45a370,,,,,,,,,,,,
"[""period""]",0,[0.26305999999749474],18,0,18,0,1,5d1751e2ede7260018ea70fb,Mężczyzna,21,2021-07-13_22h11.06.556,rantool2,2021.1.4,Win32,60.2300789,5d1751e2ede7260018ea70fb,60d9d14f4a8a35a482e0d9bf,60edeee7dd50b55a5f45a370,,,,,,,,,,,,
"[""comma""]",0,[0.35023499999829255],19,0,19,0,1,5d1751e2ede7260018ea70fb,Mężczyzna,21,2021-07-13_22h11.06.556,rantool2,2021.1.4,Win32,60.2300789,5d1751e2ede7260018ea70fb,60d9d14f4a8a35a482e0d9bf,60edeee7dd50b55a5f45a370,,,,,,,,,,,,
"[""comma""]",0,[0.3891300000032061],20,0,20,0,1,5d1751e2ede7260018ea70fb,Mężczyzna,21,2021-07-13_22h11.06.556,rantool2,2021.1.4,Win32,60.2300789,5d1751e2ede7260018ea70fb,60d9d14f4a8a35a482e0d9bf,60edeee7dd50b55a5f45a370,,,,,,,,,,,,
"[""period""]",0,[0.2695700000040233],21,0,21,0,1,5d1751e2ede7260018ea70fb,Mężczyzna,21,2021-07-13_22h11.06.556,rantool2,2021.1.4,Win32,60.2300789,5d1751e2ede7260018ea70fb,60d9d14f4a8a35a482e0d9bf,60edeee7dd50b55a5f45a370,,,,,,,,,,,,
"[""comma""]",0,[0.2514900000026046],22,0,22,0,1,5d1751e2ede7260018ea70fb,Mężczyzna,21,2021-07-13_22h11.06.556,rantool2,2021.1.4,Win32,60.2300789,5d1751e2ede7260018ea70fb,60d9d14f4a8a35a482e0d9bf,60edeee7dd50b55a5f45a370,,,,,,,,,,,,
"[""period""]",0,[0.2792399999962072],23,0,23,0,1,5d1751e2ede7260018ea70fb,Mężczyzna,21,2021-07-13_22h11.06.556,rantool2,2021.1.4,Win32,60.2300789,5d1751e2ede7260018ea70fb,60d9d14f4a8a35a482e0d9bf,60edeee7dd50b55a5f45a370,,,,,,,,,,,,
"[""comma""]",0,[0.49140500000044085],24,0,24,0,1,5d1751e2ede7260018ea70fb,Mężczyzna,21,2021-07-13_22h11.06.556,rantool2,2021.1.4,Win32,60.2300789,5d1751e2ede7260018ea70fb,60d9d14f4a8a35a482e0d9bf,60edeee7dd50b55a5f45a370,,,,,,,,,,,,
"[""period""]",0,[0.25465499999700114],25,0,25,0,1,5d1751e2ede7260018ea70fb,Mężczyzna,21,2021-07-13_22h11.06.556,rantool2,2021.1.4,Win32,60.2300789,5d1751e2ede7260018ea70fb,60d9d14f4a8a35a482e0d9bf,60edeee7dd50b55a5f45a370,,,,,,,,,,,,
"[""comma""]",0,[0.31694499999821346],26,0,26,0,1,5d1751e2ede7260018ea70fb,Mężczyzna,21,2021-07-13_22h11.06.556,rantool2,2021.1.4,Win32,60.2300789,5d1751e2ede7260018ea70fb,60d9d14f4a8a35a482e0d9bf,60edeee7dd50b55a5f45a370,,,,,,,,,,,,
"[""period""]",0,[0.36776999999710824],27,0,27,0,1,5d1751e2ede7260018ea70fb,Mężczyzna,21,2021-07-13_22h11.06.556,rantool2,2021.1.4,Win32,60.2300789,5d1751e2ede7260018ea70fb,60d9d14f4a8a35a482e0d9bf,60edeee7dd50b55a5f45a370,,,,,,,,,,,,
"[""comma""]",0,[0.3278750000024502],28,0,28,0,1,5d1751e2ede7260018ea70fb,Mężczyzna,21,2021-07-13_22h11.06.556,rantool2,2021.1.4,Win32,60.2300789,5d1751e2ede7260018ea70fb,60d9d14f4a8a35a482e0d9bf,60edeee7dd50b55a5f45a370,,,,,,,,,,,,
"[""period""]",0,[0.2735300000058487],29,0,29,0,1,5d1751e2ede7260018ea70fb,Mężczyzna,21,2021-07-13_22h11.06.556,rantool2,2021.1.4,Win32,60.2300789,5d1751e2ede7260018ea70fb,60d9d14f4a8a35a482e0d9bf,60edeee7dd50b55a5f45a370,,,,,,,,,,,,
"[""comma""]",0,[0.29641999999876134],30,0,30,0,1,5d1751e2ede7260018ea70fb,Mężczyzna,21,2021-07-13_22h11.06.556,rantool2,2021.1.4,Win32,60.2300789,5d1751e2ede7260018ea70fb,60d9d14f4a8a35a482e0d9bf,60edeee7dd50b55a5f45a370,,,,,,,,,,,,
"[""comma""]",0,[0.36260500000207685],31,0,31,0,1,5d1751e2ede7260018ea70fb,Mężczyzna,21,2021-07-13_22h11.06.556,rantool2,2021.1.4,Win32,60.2300789,5d1751e2ede7260018ea70fb,60d9d14f4a8a35a482e0d9bf,60edeee7dd50b55a5f45a370,,,,,,,,,,,,
"[""period"",""period""]",0,"[0.44262000000185253,1.9234199999991688]",32,0,32,0,1,5d1751e2ede7260018ea70fb,Mężczyzna,21,2021-07-13_22h11.06.556,rantool2,2021.1.4,Win32,60.2300789,5d1751e2ede7260018ea70fb,60d9d14f4a8a35a482e0d9bf,60edeee7dd50b55a5f45a370,,,,,,,,,,,,
0,0,,33,0,33,0,1,5d1751e2ede7260018ea70fb,Mężczyzna,21,2021-07-13_22h11.06.556,rantool2,2021.1.4,Win32,60.2300789,5d1751e2ede7260018ea70fb,60d9d14f4a8a35a482e0d9bf,60edeee7dd50b55a5f45a370,,,,,,,,,,,,
"[""comma""]",0,[1.7574150000000373],34,0,34,0,1,5d1751e2ede7260018ea70fb,Mężczyzna,21,2021-07-13_22h11.06.556,rantool2,2021.1.4,Win32,60.2300789,5d1751e2ede7260018ea70fb,60d9d14f4a8a35a482e0d9bf,60edeee7dd50b55a5f45a370,,,,,,,,,,,,
0,0,,35,0,35,0,1,5d1751e2ede7260018ea70fb,Mężczyzna,21,2021-07-13_22h11.06.556,rantool2,2021.1.4,Win32,60.2300789,5d1751e2ede7260018ea70fb,60d9d14f4a8a35a482e0d9bf,60edeee7dd50b55a5f45a370,,,,,,,,,,,,
"[""period""]",0,[0.4094200000035926],36,0,36,0,1,5d1751e2ede7260018ea70fb,Mężczyzna,21,2021-07-13_22h11.06.556,rantool2,2021.1.4,Win32,60.2300789,5d1751e2ede7260018ea70fb,60d9d14f4a8a35a482e0d9bf,60edeee7dd50b55a5f45a370,,,,,,,,,,,,
"[""comma""]",0,[0.44886000000406057],37,0,37,0,1,5d1751e2ede7260018ea70fb,Mężczyzna,21,2021-07-13_22h11.06.556,rantool2,2021.1.4,Win32,60.2300789,5d1751e2ede7260018ea70fb,60d9d14f4a8a35a482e0d9bf,60edeee7dd50b55a5f45a370,,,,,,,,,,,,
"[""period""]",0,[0.32910500000434695],38,0,38,0,1,5d1751e2ede7260018ea70fb,Mężczyzna,21,2021-07-13_22h11.06.556,rantool2,2021.1.4,Win32,60.2300789,5d1751e2ede7260018ea70fb,60d9d14f4a8a35a482e0d9bf,60edeee7dd50b55a5f45a370,,,,,,,,,,,,
"[""period""]",0,[0.7012850000025992],39,0,39,0,1,5d1751e2ede7260018ea70fb,Mężczyzna,21,2021-07-13_22h11.06.556,rantool2,2021.1.4,Win32,60.2300789,5d1751e2ede7260018ea70fb,60d9d14f4a8a35a482e0d9bf,60edeee7dd50b55a5f45a370,,,,,,,,,,,,
"[""comma""]",0,[0.27528500000312306],40,0,40,0,1,5d1751e2ede7260018ea70fb,Mężczyzna,21,2021-07-13_22h11.06.556,rantool2,2021.1.4,Win32,60.2300789,5d1751e2ede7260018ea70fb,60d9d14f4a8a35a482e0d9bf,60edeee7dd50b55a5f45a370,,,,,,,,,,,,
"[""comma""]",0,[0.2266299999973853],41,0,41,0,1,5d1751e2ede7260018ea70fb,Mężczyzna,21,2021-07-13_22h11.06.556,rantool2,2021.1.4,Win32,60.2300789,5d1751e2ede7260018ea70fb,60d9d14f4a8a35a482e0d9bf,60edeee7dd50b55a5f45a370,,,,,,,,,,,,
"[""period"",""period""]",0,"[0.3079749999963042,1.6039650000022903]",42,0,42,0,1,5d1751e2ede7260018ea70fb,Mężczyzna,21,2021-07-13_22h11.06.556,rantool2,2021.1.4,Win32,60.2300789,5d1751e2ede7260018ea70fb,60d9d14f4a8a35a482e0d9bf,60edeee7dd50b55a5f45a370,,,,,,,,,,,,
"[""period""]",0,[0.37233500000024833],43,0,43,0,1,5d1751e2ede7260018ea70fb,Mężczyzna,21,2021-07-13_22h11.06.556,rantool2,2021.1.4,Win32,60.2300789,5d1751e2ede7260018ea70fb,60d9d14f4a8a35a482e0d9bf,60edeee7dd50b55a5f45a370,,,,,,,,,,,,
"[""comma""]",0,[0.383280000001605],44,0,44,0,1,5d1751e2ede7260018ea70fb,Mężczyzna,21,2021-07-13_22h11.06.556,rantool2,2021.1.4,Win32,60.2300789,5d1751e2ede7260018ea70fb,60d9d14f4a8a35a482e0d9bf,60edeee7dd50b55a5f45a370,,,,,,,,,,,,
"[""comma""]",0,[0.30885000000080254],45,0,45,0,1,5d1751e2ede7260018ea70fb,Mężczyzna,21,2021-07-13_22h11.06.556,rantool2,2021.1.4,Win32,60.2300789,5d1751e2ede7260018ea70fb,60d9d14f4a8a35a482e0d9bf,60edeee7dd50b55a5f45a370,,,,,,,,,,,,
"[""comma""]",0,[0.36586499999975786],46,0,46,0,1,5d1751e2ede7260018ea70fb,Mężczyzna,21,2021-07-13_22h11.06.556,rantool2,2021.1.4,Win32,60.2300789,5d1751e2ede7260018ea70fb,60d9d14f4a8a35a482e0d9bf,60edeee7dd50b55a5f45a370,,,,,,,,,,,,
"[""comma""]",0,[0.5619399999995949],47,0,47,0,1,5d1751e2ede7260018ea70fb,Mężczyzna,21,2021-07-13_22h11.06.556,rantool2,2021.1.4,Win32,60.2300789,5d1751e2ede7260018ea70fb,60d9d14f4a8a35a482e0d9bf,60edeee7dd50b55a5f45a370,,,,,,,,,,,,
"[""comma""]",0,[0.6449199999988195],48,0,48,0,1,5d1751e2ede7260018ea70fb,Mężczyzna,21,2021-07-13_22h11.06.556,rantool2,2021.1.4,Win32,60.2300789,5d1751e2ede7260018ea70fb,60d9d14f4a8a35a482e0d9bf,60edeee7dd50b55a5f45a370,,,,,,,,,,,,
"[""comma""]",0,[1.175939999993716],49,0,49,0,1,5d1751e2ede7260018ea70fb,Mężczyzna,21,2021-07-13_22h11.06.556,rantool2,2021.1.4,Win32,60.2300789,5d1751e2ede7260018ea70fb,60d9d14f4a8a35a482e0d9bf,60edeee7dd50b55a5f45a370,,,,,,,,,,,,
"[""comma""]",0,[0.5397300000042833],50,0,50,0,1,5d1751e2ede7260018ea70fb,Mężczyzna,21,2021-07-13_22h11.06.556,rantool2,2021.1.4,Win32,60.2300789,5d1751e2ede7260018ea70fb,60d9d14f4a8a35a482e0d9bf,60edeee7dd50b55a5f45a370,,,,,,,,,,,,
"[""period""]",0,[0.6958099999976639],51,0,51,0,1,5d1751e2ede7260018ea70fb,Mężczyzna,21,2021-07-13_22h11.06.556,rantool2,2021.1.4,Win32,60.2300789,5d1751e2ede7260018ea70fb,60d9d14f4a8a35a482e0d9bf,60edeee7dd50b55a5f45a370,,,,,,,,,,,,
0,0,,52,0,52,0,1,5d1751e2ede7260018ea70fb,Mężczyzna,21,2021-07-13_22h11.06.556,rantool2,2021.1.4,Win32,60.2300789,5d1751e2ede7260018ea70fb,60d9d14f4a8a35a482e0d9bf,60edeee7dd50b55a5f45a370,,,,,,,,,,,,
"[""comma""]",0,[0.47097000000212574],53,0,53,0,1,5d1751e2ede7260018ea70fb,Mężczyzna,21,2021-07-13_22h11.06.556,rantool2,2021.1.4,Win32,60.2300789,5d1751e2ede7260018ea70fb,60d9d14f4a8a35a482e0d9bf,60edeee7dd50b55a5f45a370,,,,,,,,,,,,
"[""comma""]",0,[0.46115500000450993],54,0,54,0,1,5d1751e2ede7260018ea70fb,Mężczyzna,21,2021-07-13_22h11.06.556,rantool2,2021.1.4,Win32,60.2300789,5d1751e2ede7260018ea70fb,60d9d14f4a8a35a482e0d9bf,60edeee7dd50b55a5f45a370,,,,,,,,,,,,
"[""comma""]",0,[0.5882849999979953],55,0,55,0,1,5d1751e2ede7260018ea70fb,Mężczyzna,21,2021-07-13_22h11.06.556,rantool2,2021.1.4,Win32,60.2300789,5d1751e2ede7260018ea70fb,60d9d14f4a8a35a482e0d9bf,60edeee7dd50b55a5f45a370,,,,,,,,,,,,
"[""period""]",0,[0.25884000000201013],56,0,56,0,1,5d1751e2ede7260018ea70fb,Mężczyzna,21,2021-07-13_22h11.06.556,rantool2,2021.1.4,Win32,60.2300789,5d1751e2ede7260018ea70fb,60d9d14f4a8a35a482e0d9bf,60edeee7dd50b55a5f45a370,,,,,,,,,,,,
"[""comma""]",0,[0.2882299999985207],57,0,57,0,1,5d1751e2ede7260018ea70fb,Mężczyzna,21,2021-07-13_22h11.06.556,rantool2,2021.1.4,Win32,60.2300789,5d1751e2ede7260018ea70fb,60d9d14f4a8a35a482e0d9bf,60edeee7dd50b55a5f45a370,,,,,,,,,,,,
"[""period""]",0,[0.37754000000109045],58,0,58,0,1,5d1751e2ede7260018ea70fb,Mężczyzna,21,2021-07-13_22h11.06.556,rantool2,2021.1.4,Win32,60.2300789,5d1751e2ede7260018ea70fb,60d9d14f4a8a35a482e0d9bf,60edeee7dd50b55a5f45a370,,,,,,,,,,,,
"[""comma""]",0,[0.42282999999588355],59,0,59,0,1,5d1751e2ede7260018ea70fb,Mężczyzna,21,2021-07-13_22h11.06.556,rantool2,2021.1.4,Win32,60.2300789,5d1751e2ede7260018ea70fb,60d9d14f4a8a35a482e0d9bf,60edeee7dd50b55a5f45a370,,,,,,,,,,,,
"[""period""]",0,[0.44425000000046566],60,0,60,0,1,5d1751e2ede7260018ea70fb,Mężczyzna,21,2021-07-13_22h11.06.556,rantool2,2021.1.4,Win32,60.2300789,5d1751e2ede7260018ea70fb,60d9d14f4a8a35a482e0d9bf,60edeee7dd50b55a5f45a370,,,,,,,,,,,,
"[""comma""]",0,[0.4427749999961179],61,0,61,0,1,5d1751e2ede7260018ea70fb,Mężczyzna,21,2021-07-13_22h11.06.556,rantool2,2021.1.4,Win32,60.2300789,5d1751e2ede7260018ea70fb,60d9d14f4a8a35a482e0d9bf,60edeee7dd50b55a5f45a370,,,,,,,,,,,,
"[""comma""]",0,[0.8566950000019915],62,0,62,0,1,5d1751e2ede7260018ea70fb,Mężczyzna,21,2021-07-13_22h11.06.556,rantool2,2021.1.4,Win32,60.2300789,5d1751e2ede7260018ea70fb,60d9d14f4a8a35a482e0d9bf,60edeee7dd50b55a5f45a370,,,,,,,,,,,,
"[""comma""]",0,[0.320169999998825],63,0,63,0,1,5d1751e2ede7260018ea70fb,Mężczyzna,21,2021-07-13_22h11.06.556,rantool2,2021.1.4,Win32,60.2300789,5d1751e2ede7260018ea70fb,60d9d14f4a8a35a482e0d9bf,60edeee7dd50b55a5f45a370,,,,,,,,,,,,
"[""comma""]",0,[0.7001750000054017],64,0,64,0,1,5d1751e2ede7260018ea70fb,Mężczyzna,21,2021-07-13_22h11.06.556,rantool2,2021.1.4,Win32,60.2300789,5d1751e2ede7260018ea70fb,60d9d14f4a8a35a482e0d9bf,60edeee7dd50b55a5f45a370,,,,,,,,,,,,
"[""period""]",0,[0.6031300000031479],65,0,65,0,1,5d1751e2ede7260018ea70fb,Mężczyzna,21,2021-07-13_22h11.06.556,rantool2,2021.1.4,Win32,60.2300789,5d1751e2ede7260018ea70fb,60d9d14f4a8a35a482e0d9bf,60edeee7dd50b55a5f45a370,,,,,,,,,,,,
"[""comma""]",0,[0.45042999999714084],66,0,66,0,1,5d1751e2ede7260018ea70fb,Mężczyzna,21,2021-07-13_22h11.06.556,rantool2,2021.1.4,Win32,60.2300789,5d1751e2ede7260018ea70fb,60d9d14f4a8a35a482e0d9bf,60edeee7dd50b55a5f45a370,,,,,,,,,,,,
"[""comma""]",0,[0.5322200000009616],67,0,67,0,1,5d1751e2ede7260018ea70fb,Mężczyzna,21,2021-07-13_22h11.06.556,rantool2,2021.1.4,Win32,60.2300789,5d1751e2ede7260018ea70fb,60d9d14f4a8a35a482e0d9bf,60edeee7dd50b55a5f45a370,,,,,,,,,,,,
"[""period""]",0,[0.36778500000241365],68,0,68,0,1,5d1751e2ede7260018ea70fb,Mężczyzna,21,2021-07-13_22h11.06.556,rantool2,2021.1.4,Win32,60.2300789,5d1751e2ede7260018ea70fb,60d9d14f4a8a35a482e0d9bf,60edeee7dd50b55a5f45a370,,,,,,,,,,,,
"[""comma""]",0,[0.2363249999978052],69,0,69,0,1,5d1751e2ede7260018ea70fb,Mężczyzna,21,2021-07-13_22h11.06.556,rantool2,2021.1.4,Win32,60.2300789,5d1751e2ede7260018ea70fb,60d9d14f4a8a35a482e0d9bf,60edeee7dd50b55a5f45a370,,,,,,,,,,,,
"[""comma""]",0,[0.2484650000039892],70,0,70,0,1,5d1751e2ede7260018ea70fb,Mężczyzna,21,2021-07-13_22h11.06.556,rantool2,2021.1.4,Win32,60.2300789,5d1751e2ede7260018ea70fb,60d9d14f4a8a35a482e0d9bf,60edeee7dd50b55a5f45a370,,,,,,,,,,,,
"[""period""]",0,[0.3132899999984602],71,0,71,0,1,5d1751e2ede7260018ea70fb,Mężczyzna,21,2021-07-13_22h11.06.556,rantool2,2021.1.4,Win32,60.2300789,5d1751e2ede7260018ea70fb,60d9d14f4a8a35a482e0d9bf,60edeee7dd50b55a5f45a370,,,,,,,,,,,,
"[""comma""]",0,[0.3659499999992022],72,0,72,0,1,5d1751e2ede7260018ea70fb,Mężczyzna,21,2021-07-13_22h11.06.556,rantool2,2021.1.4,Win32,60.2300789,5d1751e2ede7260018ea70fb,60d9d14f4a8a35a482e0d9bf,60edeee7dd50b55a5f45a370,,,,,,,,,,,,
"[""comma""]",0,[0.5774749999982305],73,0,73,0,1,5d1751e2ede7260018ea70fb,Mężczyzna,21,2021-07-13_22h11.06.556,rantool2,2021.1.4,Win32,60.2300789,5d1751e2ede7260018ea70fb,60d9d14f4a8a35a482e0d9bf,60edeee7dd50b55a5f45a370,,,,,,,,,,,,
"[""comma""]",0,[0.5521399999997811],74,0,74,0,1,5d1751e2ede7260018ea70fb,Mężczyzna,21,2021-07-13_22h11.06.556,rantool2,2021.1.4,Win32,60.2300789,5d1751e2ede7260018ea70fb,60d9d14f4a8a35a482e0d9bf,60edeee7dd50b55a5f45a370,,,,,,,,,,,,
"[""comma""]",0,[0.5621200000020963],75,0,75,0,1,5d1751e2ede7260018ea70fb,Mężczyzna,21,2021-07-13_22h11.06.556,rantool2,2021.1.4,Win32,60.2300789,5d1751e2ede7260018ea70fb,60d9d14f4a8a35a482e0d9bf,60edeee7dd50b55a5f45a370,,,,,,,,,,,,
"[""comma""]",0,[0.4651649999941583],76,0,76,0,1,5d1751e2ede7260018ea70fb,Mężczyzna,21,2021-07-13_22h11.06.556,rantool2,2021.1.4,Win32,60.2300789,5d1751e2ede7260018ea70fb,60d9d14f4a8a35a482e0d9bf,60edeee7dd50b55a5f45a370,,,,,,,,,,,,
"[""comma""]",0,[0.674374999994825],77,0,77,0,1,5d1751e2ede7260018ea70fb,Mężczyzna,21,2021-07-13_22h11.06.556,rantool2,2021.1.4,Win32,60.2300789,5d1751e2ede7260018ea70fb,60d9d14f4a8a35a482e0d9bf,60edeee7dd50b55a5f45a370,,,,,,,,,,,,
"[""period""]",0,[0.3354650000039783],78,0,78,0,1,5d1751e2ede7260018ea70fb,Mężczyzna,21,2021-07-13_22h11.06.556,rantool2,2021.1.4,Win32,60.2300789,5d1751e2ede7260018ea70fb,60d9d14f4a8a35a482e0d9bf,60edeee7dd50b55a5f45a370,,,,,,,,,,,,
"[""period""]",0,[0.4114750000007916],79,0,79,0,1,5d1751e2ede7260018ea70fb,Mężczyzna,21,2021-07-13_22h11.06.556,rantool2,2021.1.4,Win32,60.2300789,5d1751e2ede7260018ea70fb,60d9d14f4a8a35a482e0d9bf,60edeee7dd50b55a5f45a370,,,,,,,,,,,,
"[""comma""]",0,[0.9038899999939076],80,0,80,0,1,5d1751e2ede7260018ea70fb,Mężczyzna,21,2021-07-13_22h11.06.556,rantool2,2021.1.4,Win32,60.2300789,5d1751e2ede7260018ea70fb,60d9d14f4a8a35a482e0d9bf,60edeee7dd50b55a5f45a370,,,,,,,,,,,,
"[""comma""]",0,[0.32025499999917884],81,0,81,0,1,5d1751e2ede7260018ea70fb,Mężczyzna,21,2021-07-13_22h11.06.556,rantool2,2021.1.4,Win32,60.2300789,5d1751e2ede7260018ea70fb,60d9d14f4a8a35a482e0d9bf,60edeee7dd50b55a5f45a370,,,,,,,,,,,,
"[""comma""]",0,[0.45565499999793246],82,0,82,0,1,5d1751e2ede7260018ea70fb,Mężczyzna,21,2021-07-13_22h11.06.556,rantool2,2021.1.4,Win32,60.2300789,5d1751e2ede7260018ea70fb,60d9d14f4a8a35a482e0d9bf,60edeee7dd50b55a5f45a370,,,,,,,,,,,,
"[""comma""]",0,[0.6669349999936003],83,0,83,0,1,5d1751e2ede7260018ea70fb,Mężczyzna,21,2021-07-13_22h11.06.556,rantool2,2021.1.4,Win32,60.2300789,5d1751e2ede7260018ea70fb,60d9d14f4a8a35a482e0d9bf,60edeee7dd50b55a5f45a370,,,,,,,,,,,,
"[""comma""]",0,[0.6039250000030734],84,0,84,0,1,5d1751e2ede7260018ea70fb,Mężczyzna,21,2021-07-13_22h11.06.556,rantool2,2021.1.4,Win32,60.2300789,5d1751e2ede7260018ea70fb,60d9d14f4a8a35a482e0d9bf,60edeee7dd50b55a5f45a370,,,,,,,,,,,,
"[""period""]",0,[0.3908649999939371],85,0,85,0,1,5d1751e2ede7260018ea70fb,Mężczyzna,21,2021-07-13_22h11.06.556,rantool2,2021.1.4,Win32,60.2300789,5d1751e2ede7260018ea70fb,60d9d14f4a8a35a482e0d9bf,60edeee7dd50b55a5f45a370,,,,,,,,,,,,
"[""comma""]",0,[0.5058050000006915],86,0,86,0,1,5d1751e2ede7260018ea70fb,Mężczyzna,21,2021-07-13_22h11.06.556,rantool2,2021.1.4,Win32,60.2300789,5d1751e2ede7260018ea70fb,60d9d14f4a8a35a482e0d9bf,60edeee7dd50b55a5f45a370,,,,,,,,,,,,
"[""period""]",0,[0.2527449999979581],87,0,87,0,1,5d1751e2ede7260018ea70fb,Mężczyzna,21,2021-07-13_22h11.06.556,rantool2,2021.1.4,Win32,60.2300789,5d1751e2ede7260018ea70fb,60d9d14f4a8a35a482e0d9bf,60edeee7dd50b55a5f45a370,,,,,,,,,,,,
"[""comma""]",0,[0.26789499999722466],88,0,88,0,1,5d1751e2ede7260018ea70fb,Mężczyzna,21,2021-07-13_22h11.06.556,rantool2,2021.1.4,Win32,60.2300789,5d1751e2ede7260018ea70fb,60d9d14f4a8a35a482e0d9bf,60edeee7dd50b55a5f45a370,,,,,,,,,,,,
"[""period""]",0,[0.42051499999774933],89,0,89,0,1,5d1751e2ede7260018ea70fb,Mężczyzna,21,2021-07-13_22h11.06.556,rantool2,2021.1.4,Win32,60.2300789,5d1751e2ede7260018ea70fb,60d9d14f4a8a35a482e0d9bf,60edeee7dd50b55a5f45a370,,,,,,,,,,,,
"[""comma""]",0,[0.1334399999980178],90,0,90,0,1,5d1751e2ede7260018ea70fb,Mężczyzna,21,2021-07-13_22h11.06.556,rantool2,2021.1.4,Win32,60.2300789,5d1751e2ede7260018ea70fb,60d9d14f4a8a35a482e0d9bf,60edeee7dd50b55a5f45a370,,,,,,,,,,,,
"[""period""]",0,[0.36309500000061234],91,0,91,0,1,5d1751e2ede7260018ea70fb,Mężczyzna,21,2021-07-13_22h11.06.556,rantool2,2021.1.4,Win32,60.2300789,5d1751e2ede7260018ea70fb,60d9d14f4a8a35a482e0d9bf,60edeee7dd50b55a5f45a370,,,,,,,,,,,,
"[""comma""]",0,[0.2552399999985937],92,0,92,0,1,5d1751e2ede7260018ea70fb,Mężczyzna,21,2021-07-13_22h11.06.556,rantool2,2021.1.4,Win32,60.2300789,5d1751e2ede7260018ea70fb,60d9d14f4a8a35a482e0d9bf,60edeee7dd50b55a5f45a370,,,,,,,,,,,,
"[""period""]",0,[0.24960499999701824],93,0,93,0,1,5d1751e2ede7260018ea70fb,Mężczyzna,21,2021-07-13_22h11.06.556,rantool2,2021.1.4,Win32,60.2300789,5d1751e2ede7260018ea70fb,60d9d14f4a8a35a482e0d9bf,60edeee7dd50b55a5f45a370,,,,,,,,,,,,
"[""comma""]",0,[0.5013399999952526],94,0,94,0,1,5d1751e2ede7260018ea70fb,Mężczyzna,21,2021-07-13_22h11.06.556,rantool2,2021.1.4,Win32,60.2300789,5d1751e2ede7260018ea70fb,60d9d14f4a8a35a482e0d9bf,60edeee7dd50b55a5f45a370,,,,,,,,,,,,
"[""period""]",0,[0.46665000000211876],95,0,95,0,1,5d1751e2ede7260018ea70fb,Mężczyzna,21,2021-07-13_22h11.06.556,rantool2,2021.1.4,Win32,60.2300789,5d1751e2ede7260018ea70fb,60d9d14f4a8a35a482e0d9bf,60edeee7dd50b55a5f45a370,,,,,,,,,,,,
"[""comma""]",0,[0.5406549999972867],96,0,96,0,1,5d1751e2ede7260018ea70fb,Mężczyzna,21,2021-07-13_22h11.06.556,rantool2,2021.1.4,Win32,60.2300789,5d1751e2ede7260018ea70fb,60d9d14f4a8a35a482e0d9bf,60edeee7dd50b55a5f45a370,,,,,,,,,,,,
"[""period""]",0,[0.288594999998395],97,0,97,0,1,5d1751e2ede7260018ea70fb,Mężczyzna,21,2021-07-13_22h11.06.556,rantool2,2021.1.4,Win32,60.2300789,5d1751e2ede7260018ea70fb,60d9d14f4a8a35a482e0d9bf,60edeee7dd50b55a5f45a370,,,,,,,,,,,,
"[""comma""]",0,[0.5496199999981854],98,0,98,0,1,5d1751e2ede7260018ea70fb,Mężczyzna,21,2021-07-13_22h11.06.556,rantool2,2021.1.4,Win32,60.2300789,5d1751e2ede7260018ea70fb,60d9d14f4a8a35a482e0d9bf,60edeee7dd50b55a5f45a370,,,,,,,,,,,,
"[""period""]",0,[0.36771500000031665],99,0,99,0,1,5d1751e2ede7260018ea70fb,Mężczyzna,21,2021-07-13_22h11.06.556,rantool2,2021.1.4,Win32,60.2300789,5d1751e2ede7260018ea70fb,60d9d14f4a8a35a482e0d9bf,60edeee7dd50b55a5f45a370,,,,,,,,,,,,
"[""comma""]",0,[0.5304749999995693],100,0,100,0,1,5d1751e2ede7260018ea70fb,Mężczyzna,21,2021-07-13_22h11.06.556,rantool2,2021.1.4,Win32,60.2300789,5d1751e2ede7260018ea70fb,60d9d14f4a8a35a482e0d9bf,60edeee7dd50b55a5f45a370,,,,,,,,,,,,
"[""comma""]",0,[0.350115000001324],101,0,101,0,1,5d1751e2ede7260018ea70fb,Mężczyzna,21,2021-07-13_22h11.06.556,rantool2,2021.1.4,Win32,60.2300789,5d1751e2ede7260018ea70fb,60d9d14f4a8a35a482e0d9bf,60edeee7dd50b55a5f45a370,,,,,,,,,,,,
"[""period""]",0,[0.41618000000016764],102,0,102,0,1,5d1751e2ede7260018ea70fb,Mężczyzna,21,2021-07-13_22h11.06.556,rantool2,2021.1.4,Win32,60.2300789,5d1751e2ede7260018ea70fb,60d9d14f4a8a35a482e0d9bf,60edeee7dd50b55a5f45a370,,,,,,,,,,,,
"[""comma""]",0,[0.48354500000300504],103,0,103,0,1,5d1751e2ede7260018ea70fb,Mężczyzna,21,2021-07-13_22h11.06.556,rantool2,2021.1.4,Win32,60.2300789,5d1751e2ede7260018ea70fb,60d9d14f4a8a35a482e0d9bf,60edeee7dd50b55a5f45a370,,,,,,,,,,,,
"[""comma""]",0,[0.5328149999986636],104,0,104,0,1,5d1751e2ede7260018ea70fb,Mężczyzna,21,2021-07-13_22h11.06.556,rantool2,2021.1.4,Win32,60.2300789,5d1751e2ede7260018ea70fb,60d9d14f4a8a35a482e0d9bf,60edeee7dd50b55a5f45a370,,,,,,,,,,,,
"[""comma""]",0,[0.6153699999993023],105,0,105,0,1,5d1751e2ede7260018ea70fb,Mężczyzna,21,2021-07-13_22h11.06.556,rantool2,2021.1.4,Win32,60.2300789,5d1751e2ede7260018ea70fb,60d9d14f4a8a35a482e0d9bf,60edeee7dd50b55a5f45a370,,,,,,,,,,,,
"[""comma""]",0,[0.5512950000049841],106,0,106,0,1,5d1751e2ede7260018ea70fb,Mężczyzna,21,2021-07-13_22h11.06.556,rantool2,2021.1.4,Win32,60.2300789,5d1751e2ede7260018ea70fb,60d9d14f4a8a35a482e0d9bf,60edeee7dd50b55a5f45a370,,,,,,,,,,,,
"[""comma""]",0,[0.4602700000034474],107,0,107,0,1,5d1751e2ede7260018ea70fb,Mężczyzna,21,2021-07-13_22h11.06.556,rantool2,2021.1.4,Win32,60.2300789,5d1751e2ede7260018ea70fb,60d9d14f4a8a35a482e0d9bf,60edeee7dd50b55a5f45a370,,,,,,,,,,,,
"[""period""]",0,[0.4336000000041622],108,0,108,0,1,5d1751e2ede7260018ea70fb,Mężczyzna,21,2021-07-13_22h11.06.556,rantool2,2021.1.4,Win32,60.2300789,5d1751e2ede7260018ea70fb,60d9d14f4a8a35a482e0d9bf,60edeee7dd50b55a5f45a370,,,,,,,,,,,,
"[""comma"",""comma""]",0,"[0.3236499999984517,1.6774449999936678]",109,0,109,0,1,5d1751e2ede7260018ea70fb,Mężczyzna,21,2021-07-13_22h11.06.556,rantool2,2021.1.4,Win32,60.2300789,5d1751e2ede7260018ea70fb,60d9d14f4a8a35a482e0d9bf,60edeee7dd50b55a5f45a370,,,,,,,,,,,,
"[""comma""]",0,[0.38660499999946296],110,0,110,0,1,5d1751e2ede7260018ea70fb,Mężczyzna,21,2021-07-13_22h11.06.556,rantool2,2021.1.4,Win32,60.2300789,5d1751e2ede7260018ea70fb,60d9d14f4a8a35a482e0d9bf,60edeee7dd50b55a5f45a370,,,,,,,,,,,,
"[""period""]",0,[0.3568250000025728],111,0,111,0,1,5d1751e2ede7260018ea70fb,Mężczyzna,21,2021-07-13_22h11.06.556,rantool2,2021.1.4,Win32,60.2300789,5d1751e2ede7260018ea70fb,60d9d14f4a8a35a482e0d9bf,60edeee7dd50b55a5f45a370,,,,,,,,,,,,
"[""comma""]",0,[0.6467450000054669],112,0,112,0,1,5d1751e2ede7260018ea70fb,Mężczyzna,21,2021-07-13_22h11.06.556,rantool2,2021.1.4,Win32,60.2300789,5d1751e2ede7260018ea70fb,60d9d14f4a8a35a482e0d9bf,60edeee7dd50b55a5f45a370,,,,,,,,,,,,
"[""comma""]",0,[0.6271500000004835],113,0,113,0,1,5d1751e2ede7260018ea70fb,Mężczyzna,21,2021-07-13_22h11.06.556,rantool2,2021.1.4,Win32,60.2300789,5d1751e2ede7260018ea70fb,60d9d14f4a8a35a482e0d9bf,60edeee7dd50b55a5f45a370,,,,,,,,,,,,
"[""period""]",0,[0.11172999999689637],114,0,114,0,1,5d1751e2ede7260018ea70fb,Mężczyzna,21,2021-07-13_22h11.06.556,rantool2,2021.1.4,Win32,60.2300789,5d1751e2ede7260018ea70fb,60d9d14f4a8a35a482e0d9bf,60edeee7dd50b55a5f45a370,,,,,,,,,,,,
"[""comma""]",0,[0.5603849999972681],115,0,115,0,1,5d1751e2ede7260018ea70fb,Mężczyzna,21,2021-07-13_22h11.06.556,rantool2,2021.1.4,Win32,60.2300789,5d1751e2ede7260018ea70fb,60d9d14f4a8a35a482e0d9bf,60edeee7dd50b55a5f45a370,,,,,,,,,,,,
"[""period""]",0,[0.33266999999636937],116,0,116,0,1,5d1751e2ede7260018ea70fb,Mężczyzna,21,2021-07-13_22h11.06.556,rantool2,2021.1.4,Win32,60.2300789,5d1751e2ede7260018ea70fb,60d9d14f4a8a35a482e0d9bf,60edeee7dd50b55a5f45a370,,,,,,,,,,,,
"[""comma""]",0,[0.44876499999350017],117,0,117,0,1,5d1751e2ede7260018ea70fb,Mężczyzna,21,2021-07-13_22h11.06.556,rantool2,2021.1.4,Win32,60.2300789,5d1751e2ede7260018ea70fb,60d9d14f4a8a35a482e0d9bf,60edeee7dd50b55a5f45a370,,,,,,,,,,,,
"[""period""]",0,[0.30510499999923013],118,0,118,0,1,5d1751e2ede7260018ea70fb,Mężczyzna,21,2021-07-13_22h11.06.556,rantool2,2021.1.4,Win32,60.2300789,5d1751e2ede7260018ea70fb,60d9d14f4a8a35a482e0d9bf,60edeee7dd50b55a5f45a370,,,,,,,,,,,,
"[""comma""]",0,[0.3335299999964718],119,0,119,0,1,5d1751e2ede7260018ea70fb,Mężczyzna,21,2021-07-13_22h11.06.556,rantool2,2021.1.4,Win32,60.2300789,5d1751e2ede7260018ea70fb,60d9d14f4a8a35a482e0d9bf,60edeee7dd50b55a5f45a370,,,,,,,,,,,,
,,,,,,,,5d1751e2ede7260018ea70fb,Mężczyzna,21,2021-07-13_22h11.06.556,rantool2,2021.1.4,Win32,60.2300789,5d1751e2ede7260018ea70fb,60d9d14f4a8a35a482e0d9bf,60edeee7dd50b55a5f45a370,j,1.72023,0,0,0,7,1,OOORRRO,OOORRRR,21.6194508,21.899017,series_1
,,,,,,,,5d1751e2ede7260018ea70fb,Mężczyzna,21,2021-07-13_22h11.06.556,rantool2,2021.1.4,Win32,60.2300789,5d1751e2ede7260018ea70fb,60d9d14f4a8a35a482e0d9bf,60edeee7dd50b55a5f45a370,j,1.427105,0,1,1,30,1,ORRRROO,ORRRROR,22.46748491,22.03072203,series_0
,,,,,,,,5d1751e2ede7260018ea70fb,Mężczyzna,21,2021-07-13_22h11.06.556,rantool2,2021.1.4,Win32,60.2300789,5d1751e2ede7260018ea70fb,60d9d14f4a8a35a482e0d9bf,60edeee7dd50b55a5f45a370,j,1.79322,0,2,2,14,1,OORRROO,OORRROR,22.24142883,22.16977179,series_0
,,,,,,,,5d1751e2ede7260018ea70fb,Mężczyzna,21,2021-07-13_22h11.06.556,rantool2,2021.1.4,Win32,60.2300789,5d1751e2ede7260018ea70fb,60d9d14f4a8a35a482e0d9bf,60edeee7dd50b55a5f45a370,f,0.12211,0,3,3,55,1,RRORRRO,RRORRRR,21.56657303,21.21223021,series_0
,,,,,,,,5d1751e2ede7260018ea70fb,Mężczyzna,21,2021-07-13_22h11.06.556,rantool2,2021.1.4,Win32,60.2300789,5d1751e2ede7260018ea70fb,60d9d14f4a8a35a482e0d9bf,60edeee7dd50b55a5f45a370,f,0.79275,0,4,4,0,1,OOOOOOO,OOOOOOR,18.52739004,19.62521613,series_1
,,,,,,,,5d1751e2ede7260018ea70fb,Mężczyzna,21,2021-07-13_22h11.06.556,rantool2,2021.1.4,Win32,60.2300789,5d1751e2ede7260018ea70fb,60d9d14f4a8a35a482e0d9bf,60edeee7dd50b55a5f45a370,f,1.519665,0,5,5,56,1,RRROOOO,RRROOOR,21.6194508,22.31681875,series_1
,,,,,,,,5d1751e2ede7260018ea70fb,Mężczyzna,21,2021-07-13_22h11.06.556,rantool2,2021.1.4,Win32,60.2300789,5d1751e2ede7260018ea70fb,60d9d14f4a8a35a482e0d9bf,60edeee7dd50b55a5f45a370,f,3.089515,0,6,6,25,1,ORROORO,ORROORR,21.79500819,22.61624387,series_1
,,,,,,,,5d1751e2ede7260018ea70fb,Mężczyzna,21,2021-07-13_22h11.06.556,rantool2,2021.1.4,Win32,60.2300789,5d1751e2ede7260018ea70fb,60d9d14f4a8a35a482e0d9bf,60edeee7dd50b55a5f45a370,f,2.11403,0,7,7,54,1,RRORROO,RRORROR,21.55250791,20.9984461,series_0
,,,,,,,,5d1751e2ede7260018ea70fb,Mężczyzna,21,2021-07-13_22h11.06.556,rantool2,2021.1.4,Win32,60.2300789,5d1751e2ede7260018ea70fb,60d9d14f4a8a35a482e0d9bf,60edeee7dd50b55a5f45a370,j,2.69418,0,8,8,21,1,ORORORO,ORORORR,20.39515459,22.06781359,series_1
,,,,,,,,5d1751e2ede7260018ea70fb,Mężczyzna,21,2021-07-13_22h11.06.556,rantool2,2021.1.4,Win32,60.2300789,5d1751e2ede7260018ea70fb,60d9d14f4a8a35a482e0d9bf,60edeee7dd50b55a5f45a370,j,2.682145,0,9,9,57,1,RRROORO,RRROORR,21.82425538,22.07102821,series_1
,,,,,,,,5d1751e2ede7260018ea70fb,Mężczyzna,21,2021-07-13_22h11.06.556,rantool2,2021.1.4,Win32,60.2300789,5d1751e2ede7260018ea70fb,60d9d14f4a8a35a482e0d9bf,60edeee7dd50b55a5f45a370,f,1.50617,0,10,10,12,1,OORROOO,OORROOR,21.30250474,22.02786418,series_1
,,,,,,,,5d1751e2ede7260018ea70fb,Mężczyzna,21,2021-07-13_22h11.06.556,rantool2,2021.1.4,Win32,60.2300789,5d1751e2ede7260018ea70fb,60d9d14f4a8a35a482e0d9bf,60edeee7dd50b55a5f45a370,j,2.88563,0,11,11,13,1,OORRORO,OORRORR,21.66733484,22.11181017,series_1
,,,,,,,,5d1751e2ede7260018ea70fb,Mężczyzna,21,2021-07-13_22h11.06.556,rantool2,2021.1.4,Win32,60.2300789,5d1751e2ede7260018ea70fb,60d9d14f4a8a35a482e0d9bf,60edeee7dd50b55a5f45a370,j,2.892225,0,12,12,3,1,OOOORRO,OOOORRR,20.90986523,21.74922619,series_1
,,,,,,,,5d1751e2ede7260018ea70fb,Mężczyzna,21,2021-07-13_22h11.06.556,rantool2,2021.1.4,Win32,60.2300789,5d1751e2ede7260018ea70fb,60d9d14f4a8a35a482e0d9bf,60edeee7dd50b55a5f45a370,j,1.5043,0,13,13,10,1,OOROROO,OOROROR,21.31236711,21.07490964,series_0
,,,,,,,,5d1751e2ede7260018ea70fb,Mężczyzna,21,2021-07-13_22h11.06.556,rantool2,2021.1.4,Win32,60.2300789,5d1751e2ede7260018ea70fb,60d9d14f4a8a35a482e0d9bf,60edeee7dd50b55a5f45a370,j,1.682355,0,14,14,41,1,ROROORO,ROROORR,20.42602454,21.71443381,series_1
,,,,,,,,5d1751e2ede7260018ea70fb,Mężczyzna,21,2021-07-13_22h11.06.556,rantool2,2021.1.4,Win32,60.2300789,5d1751e2ede7260018ea70fb,60d9d14f4a8a35a482e0d9bf,60edeee7dd50b55a5f45a370,j,1.06921,0,15,15,44,1,RORROOO,RORROOR,21.66733484,22.02566557,series_1
,,,,,,,,5d1751e2ede7260018ea70fb,Mężczyzna,21,2021-07-13_22h11.06.556,rantool2,2021.1.4,Win32,60.2300789,5d1751e2ede7260018ea70fb,60d9d14f4a8a35a482e0d9bf,60edeee7dd50b55a5f45a370,f,1.17536,0,16,16,26,1,ORROROO,ORROROR,22.02732763,21.71443381,series_0
,,,,,,,,5d1751e2ede7260018ea70fb,Mężczyzna,21,2021-07-13_22h11.06.556,rantool2,2021.1.4,Win32,60.2300789,5d1751e2ede7260018ea70fb,60d9d14f4a8a35a482e0d9bf,60edeee7dd50b55a5f45a370,j,1.219015,0,17,17,51,1,RROORRO,RROORRR,21.89852628,22.02786418,series_1
,,,,,,,,5d1751e2ede7260018ea70fb,Mężczyzna,21,2021-07-13_22h11.06.556,rantool2,2021.1.4,Win32,60.2300789,5d1751e2ede7260018ea70fb,60d9d14f4a8a35a482e0d9bf,60edeee7dd50b55a5f45a370,f,1.782115,0,18,18,52,1,RROROOO,RROROOR,22.18365867,22.11097995,series_0
,,,,,,,,5d1751e2ede7260018ea70fb,Mężczyzna,21,2021-07-13_22h11.06.556,rantool2,2021.1.4,Win32,60.2300789,5d1751e2ede7260018ea70fb,60d9d14f4a8a35a482e0d9bf,60edeee7dd50b55a5f45a370,f,2.02602,0,19,19,9,1,OOROORO,OOROORR,21.07991943,22.2428857,series_1
,,,,,,,,5d1751e2ede7260018ea70fb,Mężczyzna,21,2021-07-13_22h11.06.556,rantool2,2021.1.4,Win32,60.2300789,5d1751e2ede7260018ea70fb,60d9d14f4a8a35a482e0d9bf,60edeee7dd50b55a5f45a370,f,1.468485,0,20,20,59,1,RRRORRO,RRRORRR,21.56657303,20.89823192,series_0
,,,,,,,,5d1751e2ede7260018ea70fb,Mężczyzna,21,2021-07-13_22h11.06.556,rantool2,2021.1.4,Win32,60.2300789,5d1751e2ede7260018ea70fb,60d9d14f4a8a35a482e0d9bf,60edeee7dd50b55a5f45a370,j,1.36682,0,21,21,16,1,OROOOOO,OROOOOR,20.43051175,21.17347734,series_1
,,,,,,,,5d1751e2ede7260018ea70fb,Mężczyzna,21,2021-07-13_22h11.06.556,rantool2,2021.1.4,Win32,60.2300789,5d1751e2ede7260018ea70fb,60d9d14f4a8a35a482e0d9bf,60edeee7dd50b55a5f45a370,f,2.1106,0,22,22,38,1,ROORROO,ROORROR,21.79500819,21.36812781,series_0
,,,,,,,,5d1751e2ede7260018ea70fb,Mężczyzna,21,2021-07-13_22h11.06.556,rantool2,2021.1.4,Win32,60.2300789,5d1751e2ede7260018ea70fb,60d9d14f4a8a35a482e0d9bf,60edeee7dd50b55a5f45a370,j,1.134485,0,23,23,18,1,OROOROO,OROOROR,20.84860893,21.22513037,series_1
,,,,,,,,5d1751e2ede7260018ea70fb,Mężczyzna,21,2021-07-13_22h11.06.556,rantool2,2021.1.4,Win32,60.2300789,5d1751e2ede7260018ea70fb,60d9d14f4a8a35a482e0d9bf,60edeee7dd50b55a5f45a370,f,1.566395,0,24,24,29,1,ORRRORO,ORRRORR,22.00300695,22.12173012,series_1
,,,,,,,,5d1751e2ede7260018ea70fb,Mężczyzna,21,2021-07-13_22h11.06.556,rantool2,2021.1.4,Win32,60.2300789,5d1751e2ede7260018ea70fb,60d9d14f4a8a35a482e0d9bf,60edeee7dd50b55a5f45a370,f,0.740725,0,25,25,5,1,OOORORO,OOORORR,20.87963819,21.9921709,series_1
,,,,,,,,5d1751e2ede7260018ea70fb,Mężczyzna,21,2021-07-13_22h11.06.556,rantool2,2021.1.4,Win32,60.2300789,5d1751e2ede7260018ea70fb,60d9d14f4a8a35a482e0d9bf,60edeee7dd50b55a5f45a370,j,0.683785,0,26,26,11,1,OORORRO,OORORRR,22.18365867,22.6797523,series_1
,,,,,,,,5d1751e2ede7260018ea70fb,Mężczyzna,21,2021-07-13_22h11.06.556,rantool2,2021.1.4,Win32,60.2300789,5d1751e2ede7260018ea70fb,60d9d14f4a8a35a482e0d9bf,60edeee7dd50b55a5f45a370,j,0.907455,0,27,27,42,1,ROROROO,ROROROR,20.39515459,19.8361834,series_0
,,,,,,,,5d1751e2ede7260018ea70fb,Mężczyzna,21,2021-07-13_22h11.06.556,rantool2,2021.1.4,Win32,60.2300789,5d1751e2ede7260018ea70fb,60d9d14f4a8a35a482e0d9bf,60edeee7dd50b55a5f45a370,f,1.11197,0,28,28,8,1,OOROOOO,OOROOOR,19.91402015,20.89823192,series_1
,,,,,,,,5d1751e2ede7260018ea70fb,Mężczyzna,21,2021-07-13_22h11.06.556,rantool2,2021.1.4,Win32,60.2300789,5d1751e2ede7260018ea70fb,60d9d14f4a8a35a482e0d9bf,60edeee7dd50b55a5f45a370,j,0.948915,0,29,29,24,1,ORROOOO,ORROOOR,21.12383932,22.07102821,series_1
,,,,,,,,5d1751e2ede7260018ea70fb,Mężczyzna,21,2021-07-13_22h11.06.556,rantool2,2021.1.4,Win32,60.2300789,5d1751e2ede7260018ea70fb,60d9d14f4a8a35a482e0d9bf,60edeee7dd50b55a5f45a370,f,1.085815,0,30,30,31,1,ORRRRRO,ORRRRRR,22.16413392,20.74050628,series_0
,,,,,,,,5d1751e2ede7260018ea70fb,Mężczyzna,21,2021-07-13_22h11.06.556,rantool2,2021.1.4,Win32,60.2300789,5d1751e2ede7260018ea70fb,60d9d14f4a8a35a482e0d9bf,60edeee7dd50b55a5f45a370,j,1.05899,0,31,31,61,1,RRRRORO,RRRRORR,21.81333602,21.17347734,series_0
,,,,,,,,5d1751e2ede7260018ea70fb,Mężczyzna,21,2021-07-13_22h11.06.556,rantool2,2021.1.4,Win32,60.2300789,5d1751e2ede7260018ea70fb,60d9d14f4a8a35a482e0d9bf,60edeee7dd50b55a5f45a370,j,1.293245,0,32,32,1,1,OOOOORO,OOOOORR,19.92253567,20.74050628,series_1
,,,,,,,,5d1751e2ede7260018ea70fb,Mężczyzna,21,2021-07-13_22h11.06.556,rantool2,2021.1.4,Win32,60.2300789,5d1751e2ede7260018ea70fb,60d9d14f4a8a35a482e0d9bf,60edeee7dd50b55a5f45a370,j,1.193595,0,33,33,19,1,OROORRO,OROORRR,21.73568164,22.11181017,series_1
,,,,,,,,5d1751e2ede7260018ea70fb,Mężczyzna,21,2021-07-13_22h11.06.556,rantool2,2021.1.4,Win32,60.2300789,5d1751e2ede7260018ea70fb,60d9d14f4a8a35a482e0d9bf,60edeee7dd50b55a5f45a370,j,1.36153,0,34,34,62,1,RRRRROO,RRRRROR,22.16413392,21.27974287,series_0
,,,,,,,,5d1751e2ede7260018ea70fb,Mężczyzna,21,2021-07-13_22h11.06.556,rantool2,2021.1.4,Win32,60.2300789,5d1751e2ede7260018ea70fb,60d9d14f4a8a35a482e0d9bf,60edeee7dd50b55a5f45a370,j,1.441615,0,35,35,40,1,ROROOOO,ROROOOR,20.87963819,21.37121559,series_1
,,,,,,,,5d1751e2ede7260018ea70fb,Mężczyzna,21,2021-07-13_22h11.06.556,rantool2,2021.1.4,Win32,60.2300789,5d1751e2ede7260018ea70fb,60d9d14f4a8a35a482e0d9bf,60edeee7dd50b55a5f45a370,f,1.390005,0,36,36,20,1,OROROOO,OROROOR,21.31236711,21.90565814,series_1
,,,,,,,,5d1751e2ede7260018ea70fb,Mężczyzna,21,2021-07-13_22h11.06.556,rantool2,2021.1.4,Win32,60.2300789,5d1751e2ede7260018ea70fb,60d9d14f4a8a35a482e0d9bf,60edeee7dd50b55a5f45a370,j,1.17055,0,37,37,32,1,ROOOOOO,ROOOOOR,19.92253567,21.27974287,series_1
,,,,,,,,5d1751e2ede7260018ea70fb,Mężczyzna,21,2021-07-13_22h11.06.556,rantool2,2021.1.4,Win32,60.2300789,5d1751e2ede7260018ea70fb,60d9d14f4a8a35a482e0d9bf,60edeee7dd50b55a5f45a370,f,1.267765,0,38,38,22,1,ORORROO,ORORROR,22.02732763,21.57657071,series_0
,,,,,,,,5d1751e2ede7260018ea70fb,Mężczyzna,21,2021-07-13_22h11.06.556,rantool2,2021.1.4,Win32,60.2300789,5d1751e2ede7260018ea70fb,60d9d14f4a8a35a482e0d9bf,60edeee7dd50b55a5f45a370,j,1.225075,0,39,39,43,1,RORORRO,RORORRR,20.71309134,21.07490964,series_1
,,,,,,,,5d1751e2ede7260018ea70fb,Mężczyzna,21,2021-07-13_22h11.06.556,rantool2,2021.1.4,Win32,60.2300789,5d1751e2ede7260018ea70fb,60d9d14f4a8a35a482e0d9bf,60edeee7dd50b55a5f45a370,f,1.33813,0,40,40,53,1,RRORORO,RRORORR,20.71309134,21.90565814,series_1
,,,,,,,,5d1751e2ede7260018ea70fb,Mężczyzna,21,2021-07-13_22h11.06.556,rantool2,2021.1.4,Win32,60.2300789,5d1751e2ede7260018ea70fb,60d9d14f4a8a35a482e0d9bf,60edeee7dd50b55a5f45a370,j,1.015835,0,41,41,45,1,RORRORO,RORRORR,20.78182524,21.22513037,series_1
,,,,,,,,5d1751e2ede7260018ea70fb,Mężczyzna,21,2021-07-13_22h11.06.556,rantool2,2021.1.4,Win32,60.2300789,5d1751e2ede7260018ea70fb,60d9d14f4a8a35a482e0d9bf,60edeee7dd50b55a5f45a370,j,0.84457,0,42,42,46,1,RORRROO,RORRROR,22.00300695,21.24781509,series_0
,,,,,,,,5d1751e2ede7260018ea70fb,Mężczyzna,21,2021-07-13_22h11.06.556,rantool2,2021.1.4,Win32,60.2300789,5d1751e2ede7260018ea70fb,60d9d14f4a8a35a482e0d9bf,60edeee7dd50b55a5f45a370,f,0.879555,0,43,43,35,1,ROOORRO,ROOORRR,21.76276513,22.16977179,series_1
,,,,,,,,5d1751e2ede7260018ea70fb,Mężczyzna,21,2021-07-13_22h11.06.556,rantool2,2021.1.4,Win32,60.2300789,5d1751e2ede7260018ea70fb,60d9d14f4a8a35a482e0d9bf,60edeee7dd50b55a5f45a370,j,1.212845,0,44,44,58,1,RRROROO,RRROROR,22.1285618,21.37121559,series_0
,,,,,,,,5d1751e2ede7260018ea70fb,Mężczyzna,21,2021-07-13_22h11.06.556,rantool2,2021.1.4,Win32,60.2300789,5d1751e2ede7260018ea70fb,60d9d14f4a8a35a482e0d9bf,60edeee7dd50b55a5f45a370,j,1.004415,0,45,45,63,1,RRRRRRO,RRRRRRR,21.35278725,19.62521613,series_0
,,,,,,,,5d1751e2ede7260018ea70fb,Mężczyzna,21,2021-07-13_22h11.06.556,rantool2,2021.1.4,Win32,60.2300789,5d1751e2ede7260018ea70fb,60d9d14f4a8a35a482e0d9bf,60edeee7dd50b55a5f45a370,j,3.031855,0,46,46,49,1,RROOORO,RROOORR,21.76276513,22.53364006,series_1
,,,,,,,,5d1751e2ede7260018ea70fb,Mężczyzna,21,2021-07-13_22h11.06.556,rantool2,2021.1.4,Win32,60.2300789,5d1751e2ede7260018ea70fb,60d9d14f4a8a35a482e0d9bf,60edeee7dd50b55a5f45a370,j,1.33338,0,47,47,34,1,ROOOROO,ROOOROR,21.03750787,21.24781509,series_1
,,,,,,,,5d1751e2ede7260018ea70fb,Mężczyzna,21,2021-07-13_22h11.06.556,rantool2,2021.1.4,Win32,60.2300789,5d1751e2ede7260018ea70fb,60d9d14f4a8a35a482e0d9bf,60edeee7dd50b55a5f45a370,f,1.012475,0,48,48,33,1,ROOOORO,ROOOORR,20.83779602,22.03072203,series_1
,,,,,,,,5d1751e2ede7260018ea70fb,Mężczyzna,21,2021-07-13_22h11.06.556,rantool2,2021.1.4,Win32,60.2300789,5d1751e2ede7260018ea70fb,60d9d14f4a8a35a482e0d9bf,60edeee7dd50b55a5f45a370,f,1.10361,0,49,49,48,1,RROOOOO,RROOOOR,20.90986523,22.15934078,series_1
,,,,,,,,5d1751e2ede7260018ea70fb,Mężczyzna,21,2021-07-13_22h11.06.556,rantool2,2021.1.4,Win32,60.2300789,5d1751e2ede7260018ea70fb,60d9d14f4a8a35a482e0d9bf,60edeee7dd50b55a5f45a370,j,1.41728,0,50,50,36,1,ROOROOO,ROOROOR,21.07991943,20.9984461,series_0
,,,,,,,,5d1751e2ede7260018ea70fb,Mężczyzna,21,2021-07-13_22h11.06.556,rantool2,2021.1.4,Win32,60.2300789,5d1751e2ede7260018ea70fb,60d9d14f4a8a35a482e0d9bf,60edeee7dd50b55a5f45a370,f,1.267145,0,51,51,2,1,OOOOROO,OOOOROR,20.43051175,21.02936224,series_1
,,,,,,,,5d1751e2ede7260018ea70fb,Mężczyzna,21,2021-07-13_22h11.06.556,rantool2,2021.1.4,Win32,60.2300789,5d1751e2ede7260018ea70fb,60d9d14f4a8a35a482e0d9bf,60edeee7dd50b55a5f45a370,f,2.631895,0,52,52,15,1,OORRRRO,OORRRRR,22.10108823,21.74922619,series_0
,,,,,,,,5d1751e2ede7260018ea70fb,Mężczyzna,21,2021-07-13_22h11.06.556,rantool2,2021.1.4,Win32,60.2300789,5d1751e2ede7260018ea70fb,60d9d14f4a8a35a482e0d9bf,60edeee7dd50b55a5f45a370,j,1.90948,0,53,53,6,1,OOORROO,OOORROR,21.12383932,21.38562617,series_1
,,,,,,,,5d1751e2ede7260018ea70fb,Mężczyzna,21,2021-07-13_22h11.06.556,rantool2,2021.1.4,Win32,60.2300789,5d1751e2ede7260018ea70fb,60d9d14f4a8a35a482e0d9bf,60edeee7dd50b55a5f45a370,j,2.09259,0,54,54,50,1,RROOROO,RROOROR,21.73568164,22.02566557,series_1
,,,,,,,,5d1751e2ede7260018ea70fb,Mężczyzna,21,2021-07-13_22h11.06.556,rantool2,2021.1.4,Win32,60.2300789,5d1751e2ede7260018ea70fb,60d9d14f4a8a35a482e0d9bf,60edeee7dd50b55a5f45a370,j,1.333835,0,55,55,37,1,ROORORO,ROORORR,20.42602454,21.57657071,series_1
,,,,,,,,5d1751e2ede7260018ea70fb,Mężczyzna,21,2021-07-13_22h11.06.556,rantool2,2021.1.4,Win32,60.2300789,5d1751e2ede7260018ea70fb,60d9d14f4a8a35a482e0d9bf,60edeee7dd50b55a5f45a370,j,0.973395,0,56,56,39,1,ROORRRO,ROORRRR,21.82425538,21.38562617,series_0
,,,,,,,,5d1751e2ede7260018ea70fb,Mężczyzna,21,2021-07-13_22h11.06.556,rantool2,2021.1.4,Win32,60.2300789,5d1751e2ede7260018ea70fb,60d9d14f4a8a35a482e0d9bf,60edeee7dd50b55a5f45a370,j,1.200675,0,57,57,47,1,RORRRRO,RORRRRR,21.81333602,21.02936224,series_0
,,,,,,,,5d1751e2ede7260018ea70fb,Mężczyzna,21,2021-07-13_22h11.06.556,rantool2,2021.1.4,Win32,60.2300789,5d1751e2ede7260018ea70fb,60d9d14f4a8a35a482e0d9bf,60edeee7dd50b55a5f45a370,f,1.05138,0,58,58,4,1,OOOROOO,OOOROOR,19.91402015,21.21223021,series_1
,,,,,,,,5d1751e2ede7260018ea70fb,Mężczyzna,21,2021-07-13_22h11.06.556,rantool2,2021.1.4,Win32,60.2300789,5d1751e2ede7260018ea70fb,60d9d14f4a8a35a482e0d9bf,60edeee7dd50b55a5f45a370,j,1.27096,0,59,59,60,1,RRRROOO,RRRROOR,22.10108823,22.15934078,series_1
,,,,,,,,5d1751e2ede7260018ea70fb,Mężczyzna,21,2021-07-13_22h11.06.556,rantool2,2021.1.4,Win32,60.2300789,5d1751e2ede7260018ea70fb,60d9d14f4a8a35a482e0d9bf,60edeee7dd50b55a5f45a370,f,1.388265,0,60,60,23,1,ORORRRO,ORORRRR,22.1285618,21.9921709,series_0
,,,,,,,,5d1751e2ede7260018ea70fb,Mężczyzna,21,2021-07-13_22h11.06.556,rantool2,2021.1.4,Win32,60.2300789,5d1751e2ede7260018ea70fb,60d9d14f4a8a35a482e0d9bf,60edeee7dd50b55a5f45a370,j,2.44333,0,61,61,28,1,ORRROOO,ORRROOR,22.24142883,22.53364006,series_1
,,,,,,,,5d1751e2ede7260018ea70fb,Mężczyzna,21,2021-07-13_22h11.06.556,rantool2,2021.1.4,Win32,60.2300789,5d1751e2ede7260018ea70fb,60d9d14f4a8a35a482e0d9bf,60edeee7dd50b55a5f45a370,j,1.56594,0,62,62,17,1,OROOORO,OROOORR,21.03750787,22.12173012,series_1
,,,,,,,,5d1751e2ede7260018ea70fb,Mężczyzna,21,2021-07-13_22h11.06.556,rantool2,2021.1.4,Win32,60.2300789,5d1751e2ede7260018ea70fb,60d9d14f4a8a35a482e0d9bf,60edeee7dd50b55a5f45a370,f,1.127425,0,63,63,27,1,ORRORRO,ORRORRR,21.55250791,22.2428857,series_1
