key_resp_7.keys,key_resp_7.rt,trials_2.thisRepN,trials_2.thisTrialN,trials_2.thisN,trials_2.thisIndex,trials_2.ran,id,series_0,series_1,acss_0,acss_1,comparison,id*,Płeć*,Wiek*,date,expName,psychopyVersion,OS,frameRate,STUDY_ID,SESSION_ID,key_resp_5.keys,key_resp_5.corr,key_resp_5.rt,trials.thisRepN,trials.thisTrialN,trials.thisN,trials.thisIndex,trials.ran
j,2.6332,0,0,0,2,1,5bbeeb1b8f3bd70001e7a828,OOOOROO,OOOOROR,20.43051175,21.02936224,series_1,5bbeeb1b8f3bd70001e7a828,Mężczyzna,27,2021-09-06_19h02.20.546,rantool2,2021.1.4,Win32,60.06006006,6135e006383e6ea6c3d06a28,613649832792e5453e0d4ee6,,,,,,,,
f,4.7672,0,1,1,23,1,5bbeeb1b8f3bd70001e7a828,ORORRRO,ORORRRR,22.1285618,21.9921709,series_0,5bbeeb1b8f3bd70001e7a828,Mężczyzna,27,2021-09-06_19h02.20.546,rantool2,2021.1.4,Win32,60.06006006,6135e006383e6ea6c3d06a28,613649832792e5453e0d4ee6,,,,,,,,
j,2.9134,0,2,2,11,1,5bbeeb1b8f3bd70001e7a828,OORORRO,OORORRR,22.18365867,22.6797523,series_1,5bbeeb1b8f3bd70001e7a828,Mężczyzna,27,2021-09-06_19h02.20.546,rantool2,2021.1.4,Win32,60.06006006,6135e006383e6ea6c3d06a28,613649832792e5453e0d4ee6,,,,,,,,
f,2.0885,0,3,3,24,1,5bbeeb1b8f3bd70001e7a828,ORROOOO,ORROOOR,21.12383932,22.07102821,series_1,5bbeeb1b8f3bd70001e7a828,Mężczyzna,27,2021-09-06_19h02.20.546,rantool2,2021.1.4,Win32,60.06006006,6135e006383e6ea6c3d06a28,613649832792e5453e0d4ee6,,,,,,,,
f,2.8238,0,4,4,33,1,5bbeeb1b8f3bd70001e7a828,ROOOORO,ROOOORR,20.83779602,22.03072203,series_1,5bbeeb1b8f3bd70001e7a828,Mężczyzna,27,2021-09-06_19h02.20.546,rantool2,2021.1.4,Win32,60.06006006,6135e006383e6ea6c3d06a28,613649832792e5453e0d4ee6,,,,,,,,
j,2.4323,0,5,5,25,1,5bbeeb1b8f3bd70001e7a828,ORROORO,ORROORR,21.79500819,22.61624387,series_1,5bbeeb1b8f3bd70001e7a828,Mężczyzna,27,2021-09-06_19h02.20.546,rantool2,2021.1.4,Win32,60.06006006,6135e006383e6ea6c3d06a28,613649832792e5453e0d4ee6,,,,,,,,
j,2.6098,0,6,6,30,1,5bbeeb1b8f3bd70001e7a828,ORRRROO,ORRRROR,22.46748491,22.03072203,series_0,5bbeeb1b8f3bd70001e7a828,Mężczyzna,27,2021-09-06_19h02.20.546,rantool2,2021.1.4,Win32,60.06006006,6135e006383e6ea6c3d06a28,613649832792e5453e0d4ee6,,,,,,,,
f,2.3294,0,7,7,12,1,5bbeeb1b8f3bd70001e7a828,OORROOO,OORROOR,21.30250474,22.02786418,series_1,5bbeeb1b8f3bd70001e7a828,Mężczyzna,27,2021-09-06_19h02.20.546,rantool2,2021.1.4,Win32,60.06006006,6135e006383e6ea6c3d06a28,613649832792e5453e0d4ee6,,,,,,,,
j,1.3563,0,8,8,20,1,5bbeeb1b8f3bd70001e7a828,OROROOO,OROROOR,21.31236711,21.90565814,series_1,5bbeeb1b8f3bd70001e7a828,Mężczyzna,27,2021-09-06_19h02.20.546,rantool2,2021.1.4,Win32,60.06006006,6135e006383e6ea6c3d06a28,613649832792e5453e0d4ee6,,,,,,,,
j,2.2556,0,9,9,13,1,5bbeeb1b8f3bd70001e7a828,OORRORO,OORRORR,21.66733484,22.11181017,series_1,5bbeeb1b8f3bd70001e7a828,Mężczyzna,27,2021-09-06_19h02.20.546,rantool2,2021.1.4,Win32,60.06006006,6135e006383e6ea6c3d06a28,613649832792e5453e0d4ee6,,,,,,,,
j,1.9393,0,10,10,61,1,5bbeeb1b8f3bd70001e7a828,RRRRORO,RRRRORR,21.81333602,21.17347734,series_0,5bbeeb1b8f3bd70001e7a828,Mężczyzna,27,2021-09-06_19h02.20.546,rantool2,2021.1.4,Win32,60.06006006,6135e006383e6ea6c3d06a28,613649832792e5453e0d4ee6,,,,,,,,
f,3.5044,0,11,11,55,1,5bbeeb1b8f3bd70001e7a828,RRORRRO,RRORRRR,21.56657303,21.21223021,series_0,5bbeeb1b8f3bd70001e7a828,Mężczyzna,27,2021-09-06_19h02.20.546,rantool2,2021.1.4,Win32,60.06006006,6135e006383e6ea6c3d06a28,613649832792e5453e0d4ee6,,,,,,,,
j,1.9707,0,12,12,16,1,5bbeeb1b8f3bd70001e7a828,OROOOOO,OROOOOR,20.43051175,21.17347734,series_1,5bbeeb1b8f3bd70001e7a828,Mężczyzna,27,2021-09-06_19h02.20.546,rantool2,2021.1.4,Win32,60.06006006,6135e006383e6ea6c3d06a28,613649832792e5453e0d4ee6,,,,,,,,
f,1.525,0,13,13,40,1,5bbeeb1b8f3bd70001e7a828,ROROOOO,ROROOOR,20.87963819,21.37121559,series_1,5bbeeb1b8f3bd70001e7a828,Mężczyzna,27,2021-09-06_19h02.20.546,rantool2,2021.1.4,Win32,60.06006006,6135e006383e6ea6c3d06a28,613649832792e5453e0d4ee6,,,,,,,,
j,2.1212,0,14,14,4,1,5bbeeb1b8f3bd70001e7a828,OOOROOO,OOOROOR,19.91402015,21.21223021,series_1,5bbeeb1b8f3bd70001e7a828,Mężczyzna,27,2021-09-06_19h02.20.546,rantool2,2021.1.4,Win32,60.06006006,6135e006383e6ea6c3d06a28,613649832792e5453e0d4ee6,,,,,,,,
j,1.3599,0,15,15,42,1,5bbeeb1b8f3bd70001e7a828,ROROROO,ROROROR,20.39515459,19.8361834,series_0,5bbeeb1b8f3bd70001e7a828,Mężczyzna,27,2021-09-06_19h02.20.546,rantool2,2021.1.4,Win32,60.06006006,6135e006383e6ea6c3d06a28,613649832792e5453e0d4ee6,,,,,,,,
f,1.7204,0,16,16,43,1,5bbeeb1b8f3bd70001e7a828,RORORRO,RORORRR,20.71309134,21.07490964,series_1,5bbeeb1b8f3bd70001e7a828,Mężczyzna,27,2021-09-06_19h02.20.546,rantool2,2021.1.4,Win32,60.06006006,6135e006383e6ea6c3d06a28,613649832792e5453e0d4ee6,,,,,,,,
j,1.5581,0,17,17,45,1,5bbeeb1b8f3bd70001e7a828,RORRORO,RORRORR,20.78182524,21.22513037,series_1,5bbeeb1b8f3bd70001e7a828,Mężczyzna,27,2021-09-06_19h02.20.546,rantool2,2021.1.4,Win32,60.06006006,6135e006383e6ea6c3d06a28,613649832792e5453e0d4ee6,,,,,,,,
f,1.7025,0,18,18,8,1,5bbeeb1b8f3bd70001e7a828,OOROOOO,OOROOOR,19.91402015,20.89823192,series_1,5bbeeb1b8f3bd70001e7a828,Mężczyzna,27,2021-09-06_19h02.20.546,rantool2,2021.1.4,Win32,60.06006006,6135e006383e6ea6c3d06a28,613649832792e5453e0d4ee6,,,,,,,,
j,1.7873,0,19,19,35,1,5bbeeb1b8f3bd70001e7a828,ROOORRO,ROOORRR,21.76276513,22.16977179,series_1,5bbeeb1b8f3bd70001e7a828,Mężczyzna,27,2021-09-06_19h02.20.546,rantool2,2021.1.4,Win32,60.06006006,6135e006383e6ea6c3d06a28,613649832792e5453e0d4ee6,,,,,,,,
j,1.6536,0,20,20,5,1,5bbeeb1b8f3bd70001e7a828,OOORORO,OOORORR,20.87963819,21.9921709,series_1,5bbeeb1b8f3bd70001e7a828,Mężczyzna,27,2021-09-06_19h02.20.546,rantool2,2021.1.4,Win32,60.06006006,6135e006383e6ea6c3d06a28,613649832792e5453e0d4ee6,,,,,,,,
j,2.7589,0,21,21,60,1,5bbeeb1b8f3bd70001e7a828,RRRROOO,RRRROOR,22.10108823,22.15934078,series_1,5bbeeb1b8f3bd70001e7a828,Mężczyzna,27,2021-09-06_19h02.20.546,rantool2,2021.1.4,Win32,60.06006006,6135e006383e6ea6c3d06a28,613649832792e5453e0d4ee6,,,,,,,,
f,2.3022,0,22,22,10,1,5bbeeb1b8f3bd70001e7a828,OOROROO,OOROROR,21.31236711,21.07490964,series_0,5bbeeb1b8f3bd70001e7a828,Mężczyzna,27,2021-09-06_19h02.20.546,rantool2,2021.1.4,Win32,60.06006006,6135e006383e6ea6c3d06a28,613649832792e5453e0d4ee6,,,,,,,,
j,1.2445,0,23,23,50,1,5bbeeb1b8f3bd70001e7a828,RROOROO,RROOROR,21.73568164,22.02566557,series_1,5bbeeb1b8f3bd70001e7a828,Mężczyzna,27,2021-09-06_19h02.20.546,rantool2,2021.1.4,Win32,60.06006006,6135e006383e6ea6c3d06a28,613649832792e5453e0d4ee6,,,,,,,,
j,1.3,0,24,24,1,1,5bbeeb1b8f3bd70001e7a828,OOOOORO,OOOOORR,19.92253567,20.74050628,series_1,5bbeeb1b8f3bd70001e7a828,Mężczyzna,27,2021-09-06_19h02.20.546,rantool2,2021.1.4,Win32,60.06006006,6135e006383e6ea6c3d06a28,613649832792e5453e0d4ee6,,,,,,,,
f,2.382,0,25,25,28,1,5bbeeb1b8f3bd70001e7a828,ORRROOO,ORRROOR,22.24142883,22.53364006,series_1,5bbeeb1b8f3bd70001e7a828,Mężczyzna,27,2021-09-06_19h02.20.546,rantool2,2021.1.4,Win32,60.06006006,6135e006383e6ea6c3d06a28,613649832792e5453e0d4ee6,,,,,,,,
f,2.0057,0,26,26,6,1,5bbeeb1b8f3bd70001e7a828,OOORROO,OOORROR,21.12383932,21.38562617,series_1,5bbeeb1b8f3bd70001e7a828,Mężczyzna,27,2021-09-06_19h02.20.546,rantool2,2021.1.4,Win32,60.06006006,6135e006383e6ea6c3d06a28,613649832792e5453e0d4ee6,,,,,,,,
f,2.1634,0,27,27,52,1,5bbeeb1b8f3bd70001e7a828,RROROOO,RROROOR,22.18365867,22.11097995,series_0,5bbeeb1b8f3bd70001e7a828,Mężczyzna,27,2021-09-06_19h02.20.546,rantool2,2021.1.4,Win32,60.06006006,6135e006383e6ea6c3d06a28,613649832792e5453e0d4ee6,,,,,,,,
f,1.4547,0,28,28,21,1,5bbeeb1b8f3bd70001e7a828,ORORORO,ORORORR,20.39515459,22.06781359,series_1,5bbeeb1b8f3bd70001e7a828,Mężczyzna,27,2021-09-06_19h02.20.546,rantool2,2021.1.4,Win32,60.06006006,6135e006383e6ea6c3d06a28,613649832792e5453e0d4ee6,,,,,,,,
j,1.6223,0,29,29,29,1,5bbeeb1b8f3bd70001e7a828,ORRRORO,ORRRORR,22.00300695,22.12173012,series_1,5bbeeb1b8f3bd70001e7a828,Mężczyzna,27,2021-09-06_19h02.20.546,rantool2,2021.1.4,Win32,60.06006006,6135e006383e6ea6c3d06a28,613649832792e5453e0d4ee6,,,,,,,,
f,1.2497,0,30,30,56,1,5bbeeb1b8f3bd70001e7a828,RRROOOO,RRROOOR,21.6194508,22.31681875,series_1,5bbeeb1b8f3bd70001e7a828,Mężczyzna,27,2021-09-06_19h02.20.546,rantool2,2021.1.4,Win32,60.06006006,6135e006383e6ea6c3d06a28,613649832792e5453e0d4ee6,,,,,,,,
f,2.7016,0,31,31,49,1,5bbeeb1b8f3bd70001e7a828,RROOORO,RROOORR,21.76276513,22.53364006,series_1,5bbeeb1b8f3bd70001e7a828,Mężczyzna,27,2021-09-06_19h02.20.546,rantool2,2021.1.4,Win32,60.06006006,6135e006383e6ea6c3d06a28,613649832792e5453e0d4ee6,,,,,,,,
j,2.6314,0,32,32,41,1,5bbeeb1b8f3bd70001e7a828,ROROORO,ROROORR,20.42602454,21.71443381,series_1,5bbeeb1b8f3bd70001e7a828,Mężczyzna,27,2021-09-06_19h02.20.546,rantool2,2021.1.4,Win32,60.06006006,6135e006383e6ea6c3d06a28,613649832792e5453e0d4ee6,,,,,,,,
f,2.1211,0,33,33,0,1,5bbeeb1b8f3bd70001e7a828,OOOOOOO,OOOOOOR,18.52739004,19.62521613,series_1,5bbeeb1b8f3bd70001e7a828,Mężczyzna,27,2021-09-06_19h02.20.546,rantool2,2021.1.4,Win32,60.06006006,6135e006383e6ea6c3d06a28,613649832792e5453e0d4ee6,,,,,,,,
f,2.1649,0,34,34,14,1,5bbeeb1b8f3bd70001e7a828,OORRROO,OORRROR,22.24142883,22.16977179,series_0,5bbeeb1b8f3bd70001e7a828,Mężczyzna,27,2021-09-06_19h02.20.546,rantool2,2021.1.4,Win32,60.06006006,6135e006383e6ea6c3d06a28,613649832792e5453e0d4ee6,,,,,,,,
j,1.5035,0,35,35,39,1,5bbeeb1b8f3bd70001e7a828,ROORRRO,ROORRRR,21.82425538,21.38562617,series_0,5bbeeb1b8f3bd70001e7a828,Mężczyzna,27,2021-09-06_19h02.20.546,rantool2,2021.1.4,Win32,60.06006006,6135e006383e6ea6c3d06a28,613649832792e5453e0d4ee6,,,,,,,,
f,1.1075,0,36,36,3,1,5bbeeb1b8f3bd70001e7a828,OOOORRO,OOOORRR,20.90986523,21.74922619,series_1,5bbeeb1b8f3bd70001e7a828,Mężczyzna,27,2021-09-06_19h02.20.546,rantool2,2021.1.4,Win32,60.06006006,6135e006383e6ea6c3d06a28,613649832792e5453e0d4ee6,,,,,,,,
f,2.1428,0,37,37,31,1,5bbeeb1b8f3bd70001e7a828,ORRRRRO,ORRRRRR,22.16413392,20.74050628,series_0,5bbeeb1b8f3bd70001e7a828,Mężczyzna,27,2021-09-06_19h02.20.546,rantool2,2021.1.4,Win32,60.06006006,6135e006383e6ea6c3d06a28,613649832792e5453e0d4ee6,,,,,,,,
j,2.7742,0,38,38,27,1,5bbeeb1b8f3bd70001e7a828,ORRORRO,ORRORRR,21.55250791,22.2428857,series_1,5bbeeb1b8f3bd70001e7a828,Mężczyzna,27,2021-09-06_19h02.20.546,rantool2,2021.1.4,Win32,60.06006006,6135e006383e6ea6c3d06a28,613649832792e5453e0d4ee6,,,,,,,,
j,2.5883,0,39,39,53,1,5bbeeb1b8f3bd70001e7a828,RRORORO,RRORORR,20.71309134,21.90565814,series_1,5bbeeb1b8f3bd70001e7a828,Mężczyzna,27,2021-09-06_19h02.20.546,rantool2,2021.1.4,Win32,60.06006006,6135e006383e6ea6c3d06a28,613649832792e5453e0d4ee6,,,,,,,,
j,2.967,0,40,40,62,1,5bbeeb1b8f3bd70001e7a828,RRRRROO,RRRRROR,22.16413392,21.27974287,series_0,5bbeeb1b8f3bd70001e7a828,Mężczyzna,27,2021-09-06_19h02.20.546,rantool2,2021.1.4,Win32,60.06006006,6135e006383e6ea6c3d06a28,613649832792e5453e0d4ee6,,,,,,,,
j,1.5367,0,41,41,26,1,5bbeeb1b8f3bd70001e7a828,ORROROO,ORROROR,22.02732763,21.71443381,series_0,5bbeeb1b8f3bd70001e7a828,Mężczyzna,27,2021-09-06_19h02.20.546,rantool2,2021.1.4,Win32,60.06006006,6135e006383e6ea6c3d06a28,613649832792e5453e0d4ee6,,,,,,,,
f,2.1641,0,42,42,46,1,5bbeeb1b8f3bd70001e7a828,RORRROO,RORRROR,22.00300695,21.24781509,series_0,5bbeeb1b8f3bd70001e7a828,Mężczyzna,27,2021-09-06_19h02.20.546,rantool2,2021.1.4,Win32,60.06006006,6135e006383e6ea6c3d06a28,613649832792e5453e0d4ee6,,,,,,,,
f,1.7347,0,43,43,32,1,5bbeeb1b8f3bd70001e7a828,ROOOOOO,ROOOOOR,19.92253567,21.27974287,series_1,5bbeeb1b8f3bd70001e7a828,Mężczyzna,27,2021-09-06_19h02.20.546,rantool2,2021.1.4,Win32,60.06006006,6135e006383e6ea6c3d06a28,613649832792e5453e0d4ee6,,,,,,,,
j,1.8278,0,44,44,19,1,5bbeeb1b8f3bd70001e7a828,OROORRO,OROORRR,21.73568164,22.11181017,series_1,5bbeeb1b8f3bd70001e7a828,Mężczyzna,27,2021-09-06_19h02.20.546,rantool2,2021.1.4,Win32,60.06006006,6135e006383e6ea6c3d06a28,613649832792e5453e0d4ee6,,,,,,,,
j,1.7783,0,45,45,15,1,5bbeeb1b8f3bd70001e7a828,OORRRRO,OORRRRR,22.10108823,21.74922619,series_0,5bbeeb1b8f3bd70001e7a828,Mężczyzna,27,2021-09-06_19h02.20.546,rantool2,2021.1.4,Win32,60.06006006,6135e006383e6ea6c3d06a28,613649832792e5453e0d4ee6,,,,,,,,
f,2.2364,0,46,46,37,1,5bbeeb1b8f3bd70001e7a828,ROORORO,ROORORR,20.42602454,21.57657071,series_1,5bbeeb1b8f3bd70001e7a828,Mężczyzna,27,2021-09-06_19h02.20.546,rantool2,2021.1.4,Win32,60.06006006,6135e006383e6ea6c3d06a28,613649832792e5453e0d4ee6,,,,,,,,
f,2.3609,0,47,47,63,1,5bbeeb1b8f3bd70001e7a828,RRRRRRO,RRRRRRR,21.35278725,19.62521613,series_0,5bbeeb1b8f3bd70001e7a828,Mężczyzna,27,2021-09-06_19h02.20.546,rantool2,2021.1.4,Win32,60.06006006,6135e006383e6ea6c3d06a28,613649832792e5453e0d4ee6,,,,,,,,
j,1.8872,0,48,48,18,1,5bbeeb1b8f3bd70001e7a828,OROOROO,OROOROR,20.84860893,21.22513037,series_1,5bbeeb1b8f3bd70001e7a828,Mężczyzna,27,2021-09-06_19h02.20.546,rantool2,2021.1.4,Win32,60.06006006,6135e006383e6ea6c3d06a28,613649832792e5453e0d4ee6,,,,,,,,
j,1.6522,0,49,49,44,1,5bbeeb1b8f3bd70001e7a828,RORROOO,RORROOR,21.66733484,22.02566557,series_1,5bbeeb1b8f3bd70001e7a828,Mężczyzna,27,2021-09-06_19h02.20.546,rantool2,2021.1.4,Win32,60.06006006,6135e006383e6ea6c3d06a28,613649832792e5453e0d4ee6,,,,,,,,
f,1.8963,0,50,50,47,1,5bbeeb1b8f3bd70001e7a828,RORRRRO,RORRRRR,21.81333602,21.02936224,series_0,5bbeeb1b8f3bd70001e7a828,Mężczyzna,27,2021-09-06_19h02.20.546,rantool2,2021.1.4,Win32,60.06006006,6135e006383e6ea6c3d06a28,613649832792e5453e0d4ee6,,,,,,,,
j,1.6438,0,51,51,22,1,5bbeeb1b8f3bd70001e7a828,ORORROO,ORORROR,22.02732763,21.57657071,series_0,5bbeeb1b8f3bd70001e7a828,Mężczyzna,27,2021-09-06_19h02.20.546,rantool2,2021.1.4,Win32,60.06006006,6135e006383e6ea6c3d06a28,613649832792e5453e0d4ee6,,,,,,,,
f,2.2158,0,52,52,59,1,5bbeeb1b8f3bd70001e7a828,RRRORRO,RRRORRR,21.56657303,20.89823192,series_0,5bbeeb1b8f3bd70001e7a828,Mężczyzna,27,2021-09-06_19h02.20.546,rantool2,2021.1.4,Win32,60.06006006,6135e006383e6ea6c3d06a28,613649832792e5453e0d4ee6,,,,,,,,
f,2.4028,0,53,53,38,1,5bbeeb1b8f3bd70001e7a828,ROORROO,ROORROR,21.79500819,21.36812781,series_0,5bbeeb1b8f3bd70001e7a828,Mężczyzna,27,2021-09-06_19h02.20.546,rantool2,2021.1.4,Win32,60.06006006,6135e006383e6ea6c3d06a28,613649832792e5453e0d4ee6,,,,,,,,
j,3.0615,0,54,54,7,1,5bbeeb1b8f3bd70001e7a828,OOORRRO,OOORRRR,21.6194508,21.899017,series_1,5bbeeb1b8f3bd70001e7a828,Mężczyzna,27,2021-09-06_19h02.20.546,rantool2,2021.1.4,Win32,60.06006006,6135e006383e6ea6c3d06a28,613649832792e5453e0d4ee6,,,,,,,,
j,2.2537,0,55,55,57,1,5bbeeb1b8f3bd70001e7a828,RRROORO,RRROORR,21.82425538,22.07102821,series_1,5bbeeb1b8f3bd70001e7a828,Mężczyzna,27,2021-09-06_19h02.20.546,rantool2,2021.1.4,Win32,60.06006006,6135e006383e6ea6c3d06a28,613649832792e5453e0d4ee6,,,,,,,,
j,1.7467,0,56,56,54,1,5bbeeb1b8f3bd70001e7a828,RRORROO,RRORROR,21.55250791,20.9984461,series_0,5bbeeb1b8f3bd70001e7a828,Mężczyzna,27,2021-09-06_19h02.20.546,rantool2,2021.1.4,Win32,60.06006006,6135e006383e6ea6c3d06a28,613649832792e5453e0d4ee6,,,,,,,,
f,0.977,0,57,57,48,1,5bbeeb1b8f3bd70001e7a828,RROOOOO,RROOOOR,20.90986523,22.15934078,series_1,5bbeeb1b8f3bd70001e7a828,Mężczyzna,27,2021-09-06_19h02.20.546,rantool2,2021.1.4,Win32,60.06006006,6135e006383e6ea6c3d06a28,613649832792e5453e0d4ee6,,,,,,,,
j,1.5043,0,58,58,34,1,5bbeeb1b8f3bd70001e7a828,ROOOROO,ROOOROR,21.03750787,21.24781509,series_1,5bbeeb1b8f3bd70001e7a828,Mężczyzna,27,2021-09-06_19h02.20.546,rantool2,2021.1.4,Win32,60.06006006,6135e006383e6ea6c3d06a28,613649832792e5453e0d4ee6,,,,,,,,
f,2.0083,0,59,59,51,1,5bbeeb1b8f3bd70001e7a828,RROORRO,RROORRR,21.89852628,22.02786418,series_1,5bbeeb1b8f3bd70001e7a828,Mężczyzna,27,2021-09-06_19h02.20.546,rantool2,2021.1.4,Win32,60.06006006,6135e006383e6ea6c3d06a28,613649832792e5453e0d4ee6,,,,,,,,
f,2.8848,0,60,60,9,1,5bbeeb1b8f3bd70001e7a828,OOROORO,OOROORR,21.07991943,22.2428857,series_1,5bbeeb1b8f3bd70001e7a828,Mężczyzna,27,2021-09-06_19h02.20.546,rantool2,2021.1.4,Win32,60.06006006,6135e006383e6ea6c3d06a28,613649832792e5453e0d4ee6,,,,,,,,
j,2.6278,0,61,61,17,1,5bbeeb1b8f3bd70001e7a828,OROOORO,OROOORR,21.03750787,22.12173012,series_1,5bbeeb1b8f3bd70001e7a828,Mężczyzna,27,2021-09-06_19h02.20.546,rantool2,2021.1.4,Win32,60.06006006,6135e006383e6ea6c3d06a28,613649832792e5453e0d4ee6,,,,,,,,
f,1.9889,0,62,62,58,1,5bbeeb1b8f3bd70001e7a828,RRROROO,RRROROR,22.1285618,21.37121559,series_0,5bbeeb1b8f3bd70001e7a828,Mężczyzna,27,2021-09-06_19h02.20.546,rantool2,2021.1.4,Win32,60.06006006,6135e006383e6ea6c3d06a28,613649832792e5453e0d4ee6,,,,,,,,
f,1.9287,0,63,63,36,1,5bbeeb1b8f3bd70001e7a828,ROOROOO,ROOROOR,21.07991943,20.9984461,series_0,5bbeeb1b8f3bd70001e7a828,Mężczyzna,27,2021-09-06_19h02.20.546,rantool2,2021.1.4,Win32,60.06006006,6135e006383e6ea6c3d06a28,613649832792e5453e0d4ee6,,,,,,,,
,,,,,,,5bbeeb1b8f3bd70001e7a828,,,,,,5bbeeb1b8f3bd70001e7a828,Mężczyzna,27,2021-09-06_19h02.20.546,rantool2,2021.1.4,Win32,60.06006006,6135e006383e6ea6c3d06a28,613649832792e5453e0d4ee6,"[""comma""]",0,[1.3661999999284546],0,0,0,0,1
,,,,,,,5bbeeb1b8f3bd70001e7a828,,,,,,5bbeeb1b8f3bd70001e7a828,Mężczyzna,27,2021-09-06_19h02.20.546,rantool2,2021.1.4,Win32,60.06006006,6135e006383e6ea6c3d06a28,613649832792e5453e0d4ee6,"[""period""]",0,[0.5486999999284592],1,0,1,0,1
,,,,,,,5bbeeb1b8f3bd70001e7a828,,,,,,5bbeeb1b8f3bd70001e7a828,Mężczyzna,27,2021-09-06_19h02.20.546,rantool2,2021.1.4,Win32,60.06006006,6135e006383e6ea6c3d06a28,613649832792e5453e0d4ee6,"[""period""]",0,[0.49869999992847625],2,0,2,0,1
,,,,,,,5bbeeb1b8f3bd70001e7a828,,,,,,5bbeeb1b8f3bd70001e7a828,Mężczyzna,27,2021-09-06_19h02.20.546,rantool2,2021.1.4,Win32,60.06006006,6135e006383e6ea6c3d06a28,613649832792e5453e0d4ee6,"[""comma"",""period""]",0,"[0.7236999999284706,0.7871999999284753]",3,0,3,0,1
,,,,,,,5bbeeb1b8f3bd70001e7a828,,,,,,5bbeeb1b8f3bd70001e7a828,Mężczyzna,27,2021-09-06_19h02.20.546,rantool2,2021.1.4,Win32,60.06006006,6135e006383e6ea6c3d06a28,613649832792e5453e0d4ee6,"[""comma""]",0,[0.6045000000000016],4,0,4,0,1
,,,,,,,5bbeeb1b8f3bd70001e7a828,,,,,,5bbeeb1b8f3bd70001e7a828,Mężczyzna,27,2021-09-06_19h02.20.546,rantool2,2021.1.4,Win32,60.06006006,6135e006383e6ea6c3d06a28,613649832792e5453e0d4ee6,"[""period""]",0,[0.3063000000715306],5,0,5,0,1
,,,,,,,5bbeeb1b8f3bd70001e7a828,,,,,,5bbeeb1b8f3bd70001e7a828,Mężczyzna,27,2021-09-06_19h02.20.546,rantool2,2021.1.4,Win32,60.06006006,6135e006383e6ea6c3d06a28,613649832792e5453e0d4ee6,"[""comma""]",0,[0.30020000004770964],6,0,6,0,1
,,,,,,,5bbeeb1b8f3bd70001e7a828,,,,,,5bbeeb1b8f3bd70001e7a828,Mężczyzna,27,2021-09-06_19h02.20.546,rantool2,2021.1.4,Win32,60.06006006,6135e006383e6ea6c3d06a28,613649832792e5453e0d4ee6,"[""comma""]",0,[0.28649999999998954],7,0,7,0,1
,,,,,,,5bbeeb1b8f3bd70001e7a828,,,,,,5bbeeb1b8f3bd70001e7a828,Mężczyzna,27,2021-09-06_19h02.20.546,rantool2,2021.1.4,Win32,60.06006006,6135e006383e6ea6c3d06a28,613649832792e5453e0d4ee6,"[""comma""]",0,[0.32779999995227627],8,0,8,0,1
,,,,,,,5bbeeb1b8f3bd70001e7a828,,,,,,5bbeeb1b8f3bd70001e7a828,Mężczyzna,27,2021-09-06_19h02.20.546,rantool2,2021.1.4,Win32,60.06006006,6135e006383e6ea6c3d06a28,613649832792e5453e0d4ee6,"[""period""]",0,[0.3086000000238869],9,0,9,0,1
,,,,,,,5bbeeb1b8f3bd70001e7a828,,,,,,5bbeeb1b8f3bd70001e7a828,Mężczyzna,27,2021-09-06_19h02.20.546,rantool2,2021.1.4,Win32,60.06006006,6135e006383e6ea6c3d06a28,613649832792e5453e0d4ee6,"[""comma""]",0,[0.3047000000477169],10,0,10,0,1
,,,,,,,5bbeeb1b8f3bd70001e7a828,,,,,,5bbeeb1b8f3bd70001e7a828,Mężczyzna,27,2021-09-06_19h02.20.546,rantool2,2021.1.4,Win32,60.06006006,6135e006383e6ea6c3d06a28,613649832792e5453e0d4ee6,"[""comma""]",0,[0.3036000000238346],11,0,11,0,1
,,,,,,,5bbeeb1b8f3bd70001e7a828,,,,,,5bbeeb1b8f3bd70001e7a828,Mężczyzna,27,2021-09-06_19h02.20.546,rantool2,2021.1.4,Win32,60.06006006,6135e006383e6ea6c3d06a28,613649832792e5453e0d4ee6,"[""period""]",0,[0.2846000000238291],12,0,12,0,1
,,,,,,,5bbeeb1b8f3bd70001e7a828,,,,,,5bbeeb1b8f3bd70001e7a828,Mężczyzna,27,2021-09-06_19h02.20.546,rantool2,2021.1.4,Win32,60.06006006,6135e006383e6ea6c3d06a28,613649832792e5453e0d4ee6,"[""period""]",0,[0.3861999999284649],13,0,13,0,1
,,,,,,,5bbeeb1b8f3bd70001e7a828,,,,,,5bbeeb1b8f3bd70001e7a828,Mężczyzna,27,2021-09-06_19h02.20.546,rantool2,2021.1.4,Win32,60.06006006,6135e006383e6ea6c3d06a28,613649832792e5453e0d4ee6,"[""comma""]",0,[0.2533999999761818],14,0,14,0,1
,,,,,,,5bbeeb1b8f3bd70001e7a828,,,,,,5bbeeb1b8f3bd70001e7a828,Mężczyzna,27,2021-09-06_19h02.20.546,rantool2,2021.1.4,Win32,60.06006006,6135e006383e6ea6c3d06a28,613649832792e5453e0d4ee6,"[""period""]",0,[0.07900000000000773],15,0,15,0,1
,,,,,,,5bbeeb1b8f3bd70001e7a828,,,,,,5bbeeb1b8f3bd70001e7a828,Mężczyzna,27,2021-09-06_19h02.20.546,rantool2,2021.1.4,Win32,60.06006006,6135e006383e6ea6c3d06a28,613649832792e5453e0d4ee6,"[""period""]",0,[0.32389999997616314],16,0,16,0,1
,,,,,,,5bbeeb1b8f3bd70001e7a828,,,,,,5bbeeb1b8f3bd70001e7a828,Mężczyzna,27,2021-09-06_19h02.20.546,rantool2,2021.1.4,Win32,60.06006006,6135e006383e6ea6c3d06a28,613649832792e5453e0d4ee6,"[""comma""]",0,[0.35199999999997544],17,0,17,0,1
,,,,,,,5bbeeb1b8f3bd70001e7a828,,,,,,5bbeeb1b8f3bd70001e7a828,Mężczyzna,27,2021-09-06_19h02.20.546,rantool2,2021.1.4,Win32,60.06006006,6135e006383e6ea6c3d06a28,613649832792e5453e0d4ee6,"[""period""]",0,[0.3916000000238],18,0,18,0,1
,,,,,,,5bbeeb1b8f3bd70001e7a828,,,,,,5bbeeb1b8f3bd70001e7a828,Mężczyzna,27,2021-09-06_19h02.20.546,rantool2,2021.1.4,Win32,60.06006006,6135e006383e6ea6c3d06a28,613649832792e5453e0d4ee6,"[""period""]",0,[0.4141000000238364],19,0,19,0,1
,,,,,,,5bbeeb1b8f3bd70001e7a828,,,,,,5bbeeb1b8f3bd70001e7a828,Mężczyzna,27,2021-09-06_19h02.20.546,rantool2,2021.1.4,Win32,60.06006006,6135e006383e6ea6c3d06a28,613649832792e5453e0d4ee6,"[""period""]",0,[0.25689999997615587],20,0,20,0,1
,,,,,,,5bbeeb1b8f3bd70001e7a828,,,,,,5bbeeb1b8f3bd70001e7a828,Mężczyzna,27,2021-09-06_19h02.20.546,rantool2,2021.1.4,Win32,60.06006006,6135e006383e6ea6c3d06a28,613649832792e5453e0d4ee6,"[""period""]",0,[0.10449999999997317],21,0,21,0,1
,,,,,,,5bbeeb1b8f3bd70001e7a828,,,,,,5bbeeb1b8f3bd70001e7a828,Mężczyzna,27,2021-09-06_19h02.20.546,rantool2,2021.1.4,Win32,60.06006006,6135e006383e6ea6c3d06a28,613649832792e5453e0d4ee6,"[""comma""]",0,[0.3037999999523322],22,0,22,0,1
,,,,,,,5bbeeb1b8f3bd70001e7a828,,,,,,5bbeeb1b8f3bd70001e7a828,Mężczyzna,27,2021-09-06_19h02.20.546,rantool2,2021.1.4,Win32,60.06006006,6135e006383e6ea6c3d06a28,613649832792e5453e0d4ee6,"[""comma""]",0,[0.1815000000000282],23,0,23,0,1
,,,,,,,5bbeeb1b8f3bd70001e7a828,,,,,,5bbeeb1b8f3bd70001e7a828,Mężczyzna,27,2021-09-06_19h02.20.546,rantool2,2021.1.4,Win32,60.06006006,6135e006383e6ea6c3d06a28,613649832792e5453e0d4ee6,"[""period""]",0,[0.24020000004770736],24,0,24,0,1
,,,,,,,5bbeeb1b8f3bd70001e7a828,,,,,,5bbeeb1b8f3bd70001e7a828,Mężczyzna,27,2021-09-06_19h02.20.546,rantool2,2021.1.4,Win32,60.06006006,6135e006383e6ea6c3d06a28,613649832792e5453e0d4ee6,"[""period""]",0,[0.3886999999284626],25,0,25,0,1
,,,,,,,5bbeeb1b8f3bd70001e7a828,,,,,,5bbeeb1b8f3bd70001e7a828,Mężczyzna,27,2021-09-06_19h02.20.546,rantool2,2021.1.4,Win32,60.06006006,6135e006383e6ea6c3d06a28,613649832792e5453e0d4ee6,"[""comma""]",0,[0.2617000000476537],26,0,26,0,1
,,,,,,,5bbeeb1b8f3bd70001e7a828,,,,,,5bbeeb1b8f3bd70001e7a828,Mężczyzna,27,2021-09-06_19h02.20.546,rantool2,2021.1.4,Win32,60.06006006,6135e006383e6ea6c3d06a28,613649832792e5453e0d4ee6,"[""period""]",0,[0.03189999997613313],27,0,27,0,1
,,,,,,,5bbeeb1b8f3bd70001e7a828,,,,,,5bbeeb1b8f3bd70001e7a828,Mężczyzna,27,2021-09-06_19h02.20.546,rantool2,2021.1.4,Win32,60.06006006,6135e006383e6ea6c3d06a28,613649832792e5453e0d4ee6,"[""comma""]",0,[0.1941999999284576],28,0,28,0,1
,,,,,,,5bbeeb1b8f3bd70001e7a828,,,,,,5bbeeb1b8f3bd70001e7a828,Mężczyzna,27,2021-09-06_19h02.20.546,rantool2,2021.1.4,Win32,60.06006006,6135e006383e6ea6c3d06a28,613649832792e5453e0d4ee6,"[""period""]",0,[0.3728000000715497],29,0,29,0,1
,,,,,,,5bbeeb1b8f3bd70001e7a828,,,,,,5bbeeb1b8f3bd70001e7a828,Mężczyzna,27,2021-09-06_19h02.20.546,rantool2,2021.1.4,Win32,60.06006006,6135e006383e6ea6c3d06a28,613649832792e5453e0d4ee6,"[""period""]",0,[0.28770000004766416],30,0,30,0,1
,,,,,,,5bbeeb1b8f3bd70001e7a828,,,,,,5bbeeb1b8f3bd70001e7a828,Mężczyzna,27,2021-09-06_19h02.20.546,rantool2,2021.1.4,Win32,60.06006006,6135e006383e6ea6c3d06a28,613649832792e5453e0d4ee6,"[""comma""]",0,[0.4143999999761263],31,0,31,0,1
,,,,,,,5bbeeb1b8f3bd70001e7a828,,,,,,5bbeeb1b8f3bd70001e7a828,Mężczyzna,27,2021-09-06_19h02.20.546,rantool2,2021.1.4,Win32,60.06006006,6135e006383e6ea6c3d06a28,613649832792e5453e0d4ee6,"[""period"",""period""]",0,"[0.3142999999523113,1.85479999995232]",32,0,32,0,1
,,,,,,,5bbeeb1b8f3bd70001e7a828,,,,,,5bbeeb1b8f3bd70001e7a828,Mężczyzna,27,2021-09-06_19h02.20.546,rantool2,2021.1.4,Win32,60.06006006,6135e006383e6ea6c3d06a28,613649832792e5453e0d4ee6,"[""period""]",0,[0.6896000000238587],33,0,33,0,1
,,,,,,,5bbeeb1b8f3bd70001e7a828,,,,,,5bbeeb1b8f3bd70001e7a828,Mężczyzna,27,2021-09-06_19h02.20.546,rantool2,2021.1.4,Win32,60.06006006,6135e006383e6ea6c3d06a28,613649832792e5453e0d4ee6,"[""period""]",0,[0.36120000004768826],34,0,34,0,1
,,,,,,,5bbeeb1b8f3bd70001e7a828,,,,,,5bbeeb1b8f3bd70001e7a828,Mężczyzna,27,2021-09-06_19h02.20.546,rantool2,2021.1.4,Win32,60.06006006,6135e006383e6ea6c3d06a28,613649832792e5453e0d4ee6,"[""comma""]",0,[0.4486000000238164],35,0,35,0,1
,,,,,,,5bbeeb1b8f3bd70001e7a828,,,,,,5bbeeb1b8f3bd70001e7a828,Mężczyzna,27,2021-09-06_19h02.20.546,rantool2,2021.1.4,Win32,60.06006006,6135e006383e6ea6c3d06a28,613649832792e5453e0d4ee6,"[""period""]",0,[0.5270999999046353],36,0,36,0,1
,,,,,,,5bbeeb1b8f3bd70001e7a828,,,,,,5bbeeb1b8f3bd70001e7a828,Mężczyzna,27,2021-09-06_19h02.20.546,rantool2,2021.1.4,Win32,60.06006006,6135e006383e6ea6c3d06a28,613649832792e5453e0d4ee6,"[""comma""]",0,[0.05009999990460301],37,0,37,0,1
,,,,,,,5bbeeb1b8f3bd70001e7a828,,,,,,5bbeeb1b8f3bd70001e7a828,Mężczyzna,27,2021-09-06_19h02.20.546,rantool2,2021.1.4,Win32,60.06006006,6135e006383e6ea6c3d06a28,613649832792e5453e0d4ee6,"[""comma""]",0,[0.42099999999999227],38,0,38,0,1
,,,,,,,5bbeeb1b8f3bd70001e7a828,,,,,,5bbeeb1b8f3bd70001e7a828,Mężczyzna,27,2021-09-06_19h02.20.546,rantool2,2021.1.4,Win32,60.06006006,6135e006383e6ea6c3d06a28,613649832792e5453e0d4ee6,"[""period""]",0,[0.3157999999522758],39,0,39,0,1
,,,,,,,5bbeeb1b8f3bd70001e7a828,,,,,,5bbeeb1b8f3bd70001e7a828,Mężczyzna,27,2021-09-06_19h02.20.546,rantool2,2021.1.4,Win32,60.06006006,6135e006383e6ea6c3d06a28,613649832792e5453e0d4ee6,"[""comma""]",0,[0.1209999999999809],40,0,40,0,1
,,,,,,,5bbeeb1b8f3bd70001e7a828,,,,,,5bbeeb1b8f3bd70001e7a828,Mężczyzna,27,2021-09-06_19h02.20.546,rantool2,2021.1.4,Win32,60.06006006,6135e006383e6ea6c3d06a28,613649832792e5453e0d4ee6,"[""comma""]",0,[0.322200000047701],41,0,41,0,1
,,,,,,,5bbeeb1b8f3bd70001e7a828,,,,,,5bbeeb1b8f3bd70001e7a828,Mężczyzna,27,2021-09-06_19h02.20.546,rantool2,2021.1.4,Win32,60.06006006,6135e006383e6ea6c3d06a28,613649832792e5453e0d4ee6,"[""period""]",0,[0.37899999999996226],42,0,42,0,1
,,,,,,,5bbeeb1b8f3bd70001e7a828,,,,,,5bbeeb1b8f3bd70001e7a828,Mężczyzna,27,2021-09-06_19h02.20.546,rantool2,2021.1.4,Win32,60.06006006,6135e006383e6ea6c3d06a28,613649832792e5453e0d4ee6,"[""comma""]",0,[0.3313000000715647],43,0,43,0,1
,,,,,,,5bbeeb1b8f3bd70001e7a828,,,,,,5bbeeb1b8f3bd70001e7a828,Mężczyzna,27,2021-09-06_19h02.20.546,rantool2,2021.1.4,Win32,60.06006006,6135e006383e6ea6c3d06a28,613649832792e5453e0d4ee6,"[""comma""]",0,[0.38749999999998863],44,0,44,0,1
,,,,,,,5bbeeb1b8f3bd70001e7a828,,,,,,5bbeeb1b8f3bd70001e7a828,Mężczyzna,27,2021-09-06_19h02.20.546,rantool2,2021.1.4,Win32,60.06006006,6135e006383e6ea6c3d06a28,613649832792e5453e0d4ee6,"[""period""]",0,[0.41420000004768553],45,0,45,0,1
,,,,,,,5bbeeb1b8f3bd70001e7a828,,,,,,5bbeeb1b8f3bd70001e7a828,Mężczyzna,27,2021-09-06_19h02.20.546,rantool2,2021.1.4,Win32,60.06006006,6135e006383e6ea6c3d06a28,613649832792e5453e0d4ee6,"[""period""]",0,[0.7692999999523522],46,0,46,0,1
,,,,,,,5bbeeb1b8f3bd70001e7a828,,,,,,5bbeeb1b8f3bd70001e7a828,Mężczyzna,27,2021-09-06_19h02.20.546,rantool2,2021.1.4,Win32,60.06006006,6135e006383e6ea6c3d06a28,613649832792e5453e0d4ee6,"[""comma""]",0,[0.3422000000476828],47,0,47,0,1
,,,,,,,5bbeeb1b8f3bd70001e7a828,,,,,,5bbeeb1b8f3bd70001e7a828,Mężczyzna,27,2021-09-06_19h02.20.546,rantool2,2021.1.4,Win32,60.06006006,6135e006383e6ea6c3d06a28,613649832792e5453e0d4ee6,"[""comma""]",0,[0.3606999999284426],48,0,48,0,1
,,,,,,,5bbeeb1b8f3bd70001e7a828,,,,,,5bbeeb1b8f3bd70001e7a828,Mężczyzna,27,2021-09-06_19h02.20.546,rantool2,2021.1.4,Win32,60.06006006,6135e006383e6ea6c3d06a28,613649832792e5453e0d4ee6,"[""period""]",0,[0.3717000000477242],49,0,49,0,1
,,,,,,,5bbeeb1b8f3bd70001e7a828,,,,,,5bbeeb1b8f3bd70001e7a828,Mężczyzna,27,2021-09-06_19h02.20.546,rantool2,2021.1.4,Win32,60.06006006,6135e006383e6ea6c3d06a28,613649832792e5453e0d4ee6,"[""period""]",0,[0.33620000004765416],50,0,50,0,1
,,,,,,,5bbeeb1b8f3bd70001e7a828,,,,,,5bbeeb1b8f3bd70001e7a828,Mężczyzna,27,2021-09-06_19h02.20.546,rantool2,2021.1.4,Win32,60.06006006,6135e006383e6ea6c3d06a28,613649832792e5453e0d4ee6,"[""period""]",0,[0.33630000007156013],51,0,51,0,1
,,,,,,,5bbeeb1b8f3bd70001e7a828,,,,,,5bbeeb1b8f3bd70001e7a828,Mężczyzna,27,2021-09-06_19h02.20.546,rantool2,2021.1.4,Win32,60.06006006,6135e006383e6ea6c3d06a28,613649832792e5453e0d4ee6,"[""period""]",0,[0.32719999992843896],52,0,52,0,1
,,,,,,,5bbeeb1b8f3bd70001e7a828,,,,,,5bbeeb1b8f3bd70001e7a828,Mężczyzna,27,2021-09-06_19h02.20.546,rantool2,2021.1.4,Win32,60.06006006,6135e006383e6ea6c3d06a28,613649832792e5453e0d4ee6,"[""comma""]",0,[0.3283999999761704],53,0,53,0,1
,,,,,,,5bbeeb1b8f3bd70001e7a828,,,,,,5bbeeb1b8f3bd70001e7a828,Mężczyzna,27,2021-09-06_19h02.20.546,rantool2,2021.1.4,Win32,60.06006006,6135e006383e6ea6c3d06a28,613649832792e5453e0d4ee6,"[""period""]",0,[0.35789999997615496],54,0,54,0,1
,,,,,,,5bbeeb1b8f3bd70001e7a828,,,,,,5bbeeb1b8f3bd70001e7a828,Mężczyzna,27,2021-09-06_19h02.20.546,rantool2,2021.1.4,Win32,60.06006006,6135e006383e6ea6c3d06a28,613649832792e5453e0d4ee6,"[""period""]",0,[0.3822000000476464],55,0,55,0,1
,,,,,,,5bbeeb1b8f3bd70001e7a828,,,,,,5bbeeb1b8f3bd70001e7a828,Mężczyzna,27,2021-09-06_19h02.20.546,rantool2,2021.1.4,Win32,60.06006006,6135e006383e6ea6c3d06a28,613649832792e5453e0d4ee6,"[""comma""]",0,[0.7610999999046157],56,0,56,0,1
,,,,,,,5bbeeb1b8f3bd70001e7a828,,,,,,5bbeeb1b8f3bd70001e7a828,Mężczyzna,27,2021-09-06_19h02.20.546,rantool2,2021.1.4,Win32,60.06006006,6135e006383e6ea6c3d06a28,613649832792e5453e0d4ee6,"[""comma""]",0,[1.0360000000000014],57,0,57,0,1
,,,,,,,5bbeeb1b8f3bd70001e7a828,,,,,,5bbeeb1b8f3bd70001e7a828,Mężczyzna,27,2021-09-06_19h02.20.546,rantool2,2021.1.4,Win32,60.06006006,6135e006383e6ea6c3d06a28,613649832792e5453e0d4ee6,"[""comma""]",0,[0.4883999999761386],58,0,58,0,1
,,,,,,,5bbeeb1b8f3bd70001e7a828,,,,,,5bbeeb1b8f3bd70001e7a828,Mężczyzna,27,2021-09-06_19h02.20.546,rantool2,2021.1.4,Win32,60.06006006,6135e006383e6ea6c3d06a28,613649832792e5453e0d4ee6,"[""period""]",0,[0.3421000000238337],59,0,59,0,1
,,,,,,,5bbeeb1b8f3bd70001e7a828,,,,,,5bbeeb1b8f3bd70001e7a828,Mężczyzna,27,2021-09-06_19h02.20.546,rantool2,2021.1.4,Win32,60.06006006,6135e006383e6ea6c3d06a28,613649832792e5453e0d4ee6,"[""comma""]",0,[0.3353999999761186],60,0,60,0,1
,,,,,,,5bbeeb1b8f3bd70001e7a828,,,,,,5bbeeb1b8f3bd70001e7a828,Mężczyzna,27,2021-09-06_19h02.20.546,rantool2,2021.1.4,Win32,60.06006006,6135e006383e6ea6c3d06a28,613649832792e5453e0d4ee6,"[""comma""]",0,[0.285000000000025],61,0,61,0,1
,,,,,,,5bbeeb1b8f3bd70001e7a828,,,,,,5bbeeb1b8f3bd70001e7a828,Mężczyzna,27,2021-09-06_19h02.20.546,rantool2,2021.1.4,Win32,60.06006006,6135e006383e6ea6c3d06a28,613649832792e5453e0d4ee6,"[""comma""]",0,[0.40950000000003683],62,0,62,0,1
,,,,,,,5bbeeb1b8f3bd70001e7a828,,,,,,5bbeeb1b8f3bd70001e7a828,Mężczyzna,27,2021-09-06_19h02.20.546,rantool2,2021.1.4,Win32,60.06006006,6135e006383e6ea6c3d06a28,613649832792e5453e0d4ee6,"[""period""]",0,[0.32879999995230946],63,0,63,0,1
,,,,,,,5bbeeb1b8f3bd70001e7a828,,,,,,5bbeeb1b8f3bd70001e7a828,Mężczyzna,27,2021-09-06_19h02.20.546,rantool2,2021.1.4,Win32,60.06006006,6135e006383e6ea6c3d06a28,613649832792e5453e0d4ee6,"[""period""]",0,[0.38069999992848125],64,0,64,0,1
,,,,,,,5bbeeb1b8f3bd70001e7a828,,,,,,5bbeeb1b8f3bd70001e7a828,Mężczyzna,27,2021-09-06_19h02.20.546,rantool2,2021.1.4,Win32,60.06006006,6135e006383e6ea6c3d06a28,613649832792e5453e0d4ee6,"[""comma""]",0,[0.44990000009534015],65,0,65,0,1
,,,,,,,5bbeeb1b8f3bd70001e7a828,,,,,,5bbeeb1b8f3bd70001e7a828,Mężczyzna,27,2021-09-06_19h02.20.546,rantool2,2021.1.4,Win32,60.06006006,6135e006383e6ea6c3d06a28,613649832792e5453e0d4ee6,"[""period""]",0,[0.42939999997611267],66,0,66,0,1
,,,,,,,5bbeeb1b8f3bd70001e7a828,,,,,,5bbeeb1b8f3bd70001e7a828,Mężczyzna,27,2021-09-06_19h02.20.546,rantool2,2021.1.4,Win32,60.06006006,6135e006383e6ea6c3d06a28,613649832792e5453e0d4ee6,"[""comma""]",0,[0.31239999997615087],67,0,67,0,1
,,,,,,,5bbeeb1b8f3bd70001e7a828,,,,,,5bbeeb1b8f3bd70001e7a828,Mężczyzna,27,2021-09-06_19h02.20.546,rantool2,2021.1.4,Win32,60.06006006,6135e006383e6ea6c3d06a28,613649832792e5453e0d4ee6,"[""comma""]",0,[0.2763999999761495],68,0,68,0,1
,,,,,,,5bbeeb1b8f3bd70001e7a828,,,,,,5bbeeb1b8f3bd70001e7a828,Mężczyzna,27,2021-09-06_19h02.20.546,rantool2,2021.1.4,Win32,60.06006006,6135e006383e6ea6c3d06a28,613649832792e5453e0d4ee6,"[""period""]",0,[0.27649999999999864],69,0,69,0,1
,,,,,,,5bbeeb1b8f3bd70001e7a828,,,,,,5bbeeb1b8f3bd70001e7a828,Mężczyzna,27,2021-09-06_19h02.20.546,rantool2,2021.1.4,Win32,60.06006006,6135e006383e6ea6c3d06a28,613649832792e5453e0d4ee6,"[""comma""]",0,[0.2842999999522817],70,0,70,0,1
,,,,,,,5bbeeb1b8f3bd70001e7a828,,,,,,5bbeeb1b8f3bd70001e7a828,Mężczyzna,27,2021-09-06_19h02.20.546,rantool2,2021.1.4,Win32,60.06006006,6135e006383e6ea6c3d06a28,613649832792e5453e0d4ee6,"[""period""]",0,[0.5330000000000155],71,0,71,0,1
,,,,,,,5bbeeb1b8f3bd70001e7a828,,,,,,5bbeeb1b8f3bd70001e7a828,Mężczyzna,27,2021-09-06_19h02.20.546,rantool2,2021.1.4,Win32,60.06006006,6135e006383e6ea6c3d06a28,613649832792e5453e0d4ee6,"[""period""]",0,[0.3096000000238064],72,0,72,0,1
,,,,,,,5bbeeb1b8f3bd70001e7a828,,,,,,5bbeeb1b8f3bd70001e7a828,Mężczyzna,27,2021-09-06_19h02.20.546,rantool2,2021.1.4,Win32,60.06006006,6135e006383e6ea6c3d06a28,613649832792e5453e0d4ee6,"[""period""]",0,[0.4116999999284303],73,0,73,0,1
,,,,,,,5bbeeb1b8f3bd70001e7a828,,,,,,5bbeeb1b8f3bd70001e7a828,Mężczyzna,27,2021-09-06_19h02.20.546,rantool2,2021.1.4,Win32,60.06006006,6135e006383e6ea6c3d06a28,613649832792e5453e0d4ee6,"[""comma""]",0,[0.3076000000238537],74,0,74,0,1
,,,,,,,5bbeeb1b8f3bd70001e7a828,,,,,,5bbeeb1b8f3bd70001e7a828,Mężczyzna,27,2021-09-06_19h02.20.546,rantool2,2021.1.4,Win32,60.06006006,6135e006383e6ea6c3d06a28,613649832792e5453e0d4ee6,"[""comma""]",0,[0.32099999999996953],75,0,75,0,1
,,,,,,,5bbeeb1b8f3bd70001e7a828,,,,,,5bbeeb1b8f3bd70001e7a828,Mężczyzna,27,2021-09-06_19h02.20.546,rantool2,2021.1.4,Win32,60.06006006,6135e006383e6ea6c3d06a28,613649832792e5453e0d4ee6,"[""period""]",0,[0.3061999999284808],76,0,76,0,1
,,,,,,,5bbeeb1b8f3bd70001e7a828,,,,,,5bbeeb1b8f3bd70001e7a828,Mężczyzna,27,2021-09-06_19h02.20.546,rantool2,2021.1.4,Win32,60.06006006,6135e006383e6ea6c3d06a28,613649832792e5453e0d4ee6,"[""comma""]",0,[0.3185999999046203],77,0,77,0,1
,,,,,,,5bbeeb1b8f3bd70001e7a828,,,,,,5bbeeb1b8f3bd70001e7a828,Mężczyzna,27,2021-09-06_19h02.20.546,rantool2,2021.1.4,Win32,60.06006006,6135e006383e6ea6c3d06a28,613649832792e5453e0d4ee6,"[""comma""]",0,[0.3201000000238423],78,0,78,0,1
,,,,,,,5bbeeb1b8f3bd70001e7a828,,,,,,5bbeeb1b8f3bd70001e7a828,Mężczyzna,27,2021-09-06_19h02.20.546,rantool2,2021.1.4,Win32,60.06006006,6135e006383e6ea6c3d06a28,613649832792e5453e0d4ee6,"[""period""]",0,[0.38889999997616087],79,0,79,0,1
,,,,,,,5bbeeb1b8f3bd70001e7a828,,,,,,5bbeeb1b8f3bd70001e7a828,Mężczyzna,27,2021-09-06_19h02.20.546,rantool2,2021.1.4,Win32,60.06006006,6135e006383e6ea6c3d06a28,613649832792e5453e0d4ee6,"[""comma""]",0,[0.14679999995234994],80,0,80,0,1
,,,,,,,5bbeeb1b8f3bd70001e7a828,,,,,,5bbeeb1b8f3bd70001e7a828,Mężczyzna,27,2021-09-06_19h02.20.546,rantool2,2021.1.4,Win32,60.06006006,6135e006383e6ea6c3d06a28,613649832792e5453e0d4ee6,"[""comma""]",0,[0.43519999992844305],81,0,81,0,1
,,,,,,,5bbeeb1b8f3bd70001e7a828,,,,,,5bbeeb1b8f3bd70001e7a828,Mężczyzna,27,2021-09-06_19h02.20.546,rantool2,2021.1.4,Win32,60.06006006,6135e006383e6ea6c3d06a28,613649832792e5453e0d4ee6,"[""period""]",0,[0.29180000007147555],82,0,82,0,1
,,,,,,,5bbeeb1b8f3bd70001e7a828,,,,,,5bbeeb1b8f3bd70001e7a828,Mężczyzna,27,2021-09-06_19h02.20.546,rantool2,2021.1.4,Win32,60.06006006,6135e006383e6ea6c3d06a28,613649832792e5453e0d4ee6,"[""period""]",0,[0.2687999999523072],83,0,83,0,1
,,,,,,,5bbeeb1b8f3bd70001e7a828,,,,,,5bbeeb1b8f3bd70001e7a828,Mężczyzna,27,2021-09-06_19h02.20.546,rantool2,2021.1.4,Win32,60.06006006,6135e006383e6ea6c3d06a28,613649832792e5453e0d4ee6,"[""comma""]",0,[0.3258000000715242],84,0,84,0,1
,,,,,,,5bbeeb1b8f3bd70001e7a828,,,,,,5bbeeb1b8f3bd70001e7a828,Mężczyzna,27,2021-09-06_19h02.20.546,rantool2,2021.1.4,Win32,60.06006006,6135e006383e6ea6c3d06a28,613649832792e5453e0d4ee6,"[""comma""]",0,[0.4777999999523104],85,0,85,0,1
,,,,,,,5bbeeb1b8f3bd70001e7a828,,,,,,5bbeeb1b8f3bd70001e7a828,Mężczyzna,27,2021-09-06_19h02.20.546,rantool2,2021.1.4,Win32,60.06006006,6135e006383e6ea6c3d06a28,613649832792e5453e0d4ee6,"[""period""]",0,[0.40749999999997044],86,0,86,0,1
,,,,,,,5bbeeb1b8f3bd70001e7a828,,,,,,5bbeeb1b8f3bd70001e7a828,Mężczyzna,27,2021-09-06_19h02.20.546,rantool2,2021.1.4,Win32,60.06006006,6135e006383e6ea6c3d06a28,613649832792e5453e0d4ee6,"[""period""]",0,[0.35710000002382003],87,0,87,0,1
,,,,,,,5bbeeb1b8f3bd70001e7a828,,,,,,5bbeeb1b8f3bd70001e7a828,Mężczyzna,27,2021-09-06_19h02.20.546,rantool2,2021.1.4,Win32,60.06006006,6135e006383e6ea6c3d06a28,613649832792e5453e0d4ee6,"[""comma""]",0,[0.32200000000000273],88,0,88,0,1
,,,,,,,5bbeeb1b8f3bd70001e7a828,,,,,,5bbeeb1b8f3bd70001e7a828,Mężczyzna,27,2021-09-06_19h02.20.546,rantool2,2021.1.4,Win32,60.06006006,6135e006383e6ea6c3d06a28,613649832792e5453e0d4ee6,"[""period""]",0,[0.27109999990460665],89,0,89,0,1
,,,,,,,5bbeeb1b8f3bd70001e7a828,,,,,,5bbeeb1b8f3bd70001e7a828,Mężczyzna,27,2021-09-06_19h02.20.546,rantool2,2021.1.4,Win32,60.06006006,6135e006383e6ea6c3d06a28,613649832792e5453e0d4ee6,"[""comma""]",0,[0.3266999999284508],90,0,90,0,1
,,,,,,,5bbeeb1b8f3bd70001e7a828,,,,,,5bbeeb1b8f3bd70001e7a828,Mężczyzna,27,2021-09-06_19h02.20.546,rantool2,2021.1.4,Win32,60.06006006,6135e006383e6ea6c3d06a28,613649832792e5453e0d4ee6,"[""period""]",0,[0.32110000002381867],91,0,91,0,1
,,,,,,,5bbeeb1b8f3bd70001e7a828,,,,,,5bbeeb1b8f3bd70001e7a828,Mężczyzna,27,2021-09-06_19h02.20.546,rantool2,2021.1.4,Win32,60.06006006,6135e006383e6ea6c3d06a28,613649832792e5453e0d4ee6,"[""period""]",0,[0.296299999952339],92,0,92,0,1
,,,,,,,5bbeeb1b8f3bd70001e7a828,,,,,,5bbeeb1b8f3bd70001e7a828,Mężczyzna,27,2021-09-06_19h02.20.546,rantool2,2021.1.4,Win32,60.06006006,6135e006383e6ea6c3d06a28,613649832792e5453e0d4ee6,"[""comma"",""comma""]",0,"[0.2980000000000018,1.8308999999761681]",93,0,93,0,1
,,,,,,,5bbeeb1b8f3bd70001e7a828,,,,,,5bbeeb1b8f3bd70001e7a828,Mężczyzna,27,2021-09-06_19h02.20.546,rantool2,2021.1.4,Win32,60.06006006,6135e006383e6ea6c3d06a28,613649832792e5453e0d4ee6,0,0,,94,0,94,0,1
,,,,,,,5bbeeb1b8f3bd70001e7a828,,,,,,5bbeeb1b8f3bd70001e7a828,Mężczyzna,27,2021-09-06_19h02.20.546,rantool2,2021.1.4,Win32,60.06006006,6135e006383e6ea6c3d06a28,613649832792e5453e0d4ee6,"[""period""]",0,[0.33389999997615405],95,0,95,0,1
,,,,,,,5bbeeb1b8f3bd70001e7a828,,,,,,5bbeeb1b8f3bd70001e7a828,Mężczyzna,27,2021-09-06_19h02.20.546,rantool2,2021.1.4,Win32,60.06006006,6135e006383e6ea6c3d06a28,613649832792e5453e0d4ee6,"[""comma""]",0,[0.41510000002381275],96,0,96,0,1
,,,,,,,5bbeeb1b8f3bd70001e7a828,,,,,,5bbeeb1b8f3bd70001e7a828,Mężczyzna,27,2021-09-06_19h02.20.546,rantool2,2021.1.4,Win32,60.06006006,6135e006383e6ea6c3d06a28,613649832792e5453e0d4ee6,"[""comma""]",0,[0.6663999999761359],97,0,97,0,1
,,,,,,,5bbeeb1b8f3bd70001e7a828,,,,,,5bbeeb1b8f3bd70001e7a828,Mężczyzna,27,2021-09-06_19h02.20.546,rantool2,2021.1.4,Win32,60.06006006,6135e006383e6ea6c3d06a28,613649832792e5453e0d4ee6,"[""period""]",0,[0.8757999999522781],98,0,98,0,1
,,,,,,,5bbeeb1b8f3bd70001e7a828,,,,,,5bbeeb1b8f3bd70001e7a828,Mężczyzna,27,2021-09-06_19h02.20.546,rantool2,2021.1.4,Win32,60.06006006,6135e006383e6ea6c3d06a28,613649832792e5453e0d4ee6,"[""comma""]",0,[0.3016999999284735],99,0,99,0,1
,,,,,,,5bbeeb1b8f3bd70001e7a828,,,,,,5bbeeb1b8f3bd70001e7a828,Mężczyzna,27,2021-09-06_19h02.20.546,rantool2,2021.1.4,Win32,60.06006006,6135e006383e6ea6c3d06a28,613649832792e5453e0d4ee6,"[""comma""]",0,[0.2962000000476337],100,0,100,0,1
,,,,,,,5bbeeb1b8f3bd70001e7a828,,,,,,5bbeeb1b8f3bd70001e7a828,Mężczyzna,27,2021-09-06_19h02.20.546,rantool2,2021.1.4,Win32,60.06006006,6135e006383e6ea6c3d06a28,613649832792e5453e0d4ee6,"[""period""]",0,[0.30989999997615314],101,0,101,0,1
,,,,,,,5bbeeb1b8f3bd70001e7a828,,,,,,5bbeeb1b8f3bd70001e7a828,Mężczyzna,27,2021-09-06_19h02.20.546,rantool2,2021.1.4,Win32,60.06006006,6135e006383e6ea6c3d06a28,613649832792e5453e0d4ee6,"[""comma""]",0,[0.3037999999523322],102,0,102,0,1
,,,,,,,5bbeeb1b8f3bd70001e7a828,,,,,,5bbeeb1b8f3bd70001e7a828,Mężczyzna,27,2021-09-06_19h02.20.546,rantool2,2021.1.4,Win32,60.06006006,6135e006383e6ea6c3d06a28,613649832792e5453e0d4ee6,"[""period""]",0,[0.04420000004768099],103,0,103,0,1
,,,,,,,5bbeeb1b8f3bd70001e7a828,,,,,,5bbeeb1b8f3bd70001e7a828,Mężczyzna,27,2021-09-06_19h02.20.546,rantool2,2021.1.4,Win32,60.06006006,6135e006383e6ea6c3d06a28,613649832792e5453e0d4ee6,"[""comma""]",0,[0.30989999997615314],104,0,104,0,1
,,,,,,,5bbeeb1b8f3bd70001e7a828,,,,,,5bbeeb1b8f3bd70001e7a828,Mężczyzna,27,2021-09-06_19h02.20.546,rantool2,2021.1.4,Win32,60.06006006,6135e006383e6ea6c3d06a28,613649832792e5453e0d4ee6,"[""comma""]",0,[0.2970999999046171],105,0,105,0,1
,,,,,,,5bbeeb1b8f3bd70001e7a828,,,,,,5bbeeb1b8f3bd70001e7a828,Mężczyzna,27,2021-09-06_19h02.20.546,rantool2,2021.1.4,Win32,60.06006006,6135e006383e6ea6c3d06a28,613649832792e5453e0d4ee6,"[""comma""]",0,[0.2851999999284658],106,0,106,0,1
,,,,,,,5bbeeb1b8f3bd70001e7a828,,,,,,5bbeeb1b8f3bd70001e7a828,Mężczyzna,27,2021-09-06_19h02.20.546,rantool2,2021.1.4,Win32,60.06006006,6135e006383e6ea6c3d06a28,613649832792e5453e0d4ee6,"[""period""]",0,[0.315200000047696],107,0,107,0,1
,,,,,,,5bbeeb1b8f3bd70001e7a828,,,,,,5bbeeb1b8f3bd70001e7a828,Mężczyzna,27,2021-09-06_19h02.20.546,rantool2,2021.1.4,Win32,60.06006006,6135e006383e6ea6c3d06a28,613649832792e5453e0d4ee6,"[""comma""]",0,[0.3368999999761968],108,0,108,0,1
,,,,,,,5bbeeb1b8f3bd70001e7a828,,,,,,5bbeeb1b8f3bd70001e7a828,Mężczyzna,27,2021-09-06_19h02.20.546,rantool2,2021.1.4,Win32,60.06006006,6135e006383e6ea6c3d06a28,613649832792e5453e0d4ee6,"[""comma""]",0,[0.3293999999761468],109,0,109,0,1
,,,,,,,5bbeeb1b8f3bd70001e7a828,,,,,,5bbeeb1b8f3bd70001e7a828,Mężczyzna,27,2021-09-06_19h02.20.546,rantool2,2021.1.4,Win32,60.06006006,6135e006383e6ea6c3d06a28,613649832792e5453e0d4ee6,"[""comma""]",0,[0.3124000000953515],110,0,110,0,1
,,,,,,,5bbeeb1b8f3bd70001e7a828,,,,,,5bbeeb1b8f3bd70001e7a828,Mężczyzna,27,2021-09-06_19h02.20.546,rantool2,2021.1.4,Win32,60.06006006,6135e006383e6ea6c3d06a28,613649832792e5453e0d4ee6,"[""period""]",0,[0.257000000000005],111,0,111,0,1
,,,,,,,5bbeeb1b8f3bd70001e7a828,,,,,,5bbeeb1b8f3bd70001e7a828,Mężczyzna,27,2021-09-06_19h02.20.546,rantool2,2021.1.4,Win32,60.06006006,6135e006383e6ea6c3d06a28,613649832792e5453e0d4ee6,"[""comma""]",0,[0.020600000023875964],112,0,112,0,1
,,,,,,,5bbeeb1b8f3bd70001e7a828,,,,,,5bbeeb1b8f3bd70001e7a828,Mężczyzna,27,2021-09-06_19h02.20.546,rantool2,2021.1.4,Win32,60.06006006,6135e006383e6ea6c3d06a28,613649832792e5453e0d4ee6,"[""comma""]",0,[0.35290000009536016],113,0,113,0,1
,,,,,,,5bbeeb1b8f3bd70001e7a828,,,,,,5bbeeb1b8f3bd70001e7a828,Mężczyzna,27,2021-09-06_19h02.20.546,rantool2,2021.1.4,Win32,60.06006006,6135e006383e6ea6c3d06a28,613649832792e5453e0d4ee6,"[""period""]",0,[0.04340000009534606],114,0,114,0,1
,,,,,,,5bbeeb1b8f3bd70001e7a828,,,,,,5bbeeb1b8f3bd70001e7a828,Mężczyzna,27,2021-09-06_19h02.20.546,rantool2,2021.1.4,Win32,60.06006006,6135e006383e6ea6c3d06a28,613649832792e5453e0d4ee6,"[""period""]",0,[0.3848999999761986],115,0,115,0,1
,,,,,,,5bbeeb1b8f3bd70001e7a828,,,,,,5bbeeb1b8f3bd70001e7a828,Mężczyzna,27,2021-09-06_19h02.20.546,rantool2,2021.1.4,Win32,60.06006006,6135e006383e6ea6c3d06a28,613649832792e5453e0d4ee6,"[""comma""]",0,[0.28770000004766416],116,0,116,0,1
,,,,,,,5bbeeb1b8f3bd70001e7a828,,,,,,5bbeeb1b8f3bd70001e7a828,Mężczyzna,27,2021-09-06_19h02.20.546,rantool2,2021.1.4,Win32,60.06006006,6135e006383e6ea6c3d06a28,613649832792e5453e0d4ee6,"[""period""]",0,[-0.010999999999967258],117,0,117,0,1
,,,,,,,5bbeeb1b8f3bd70001e7a828,,,,,,5bbeeb1b8f3bd70001e7a828,Mężczyzna,27,2021-09-06_19h02.20.546,rantool2,2021.1.4,Win32,60.06006006,6135e006383e6ea6c3d06a28,613649832792e5453e0d4ee6,"[""comma""]",0,[0.3172000000476487],118,0,118,0,1
,,,,,,,5bbeeb1b8f3bd70001e7a828,,,,,,5bbeeb1b8f3bd70001e7a828,Mężczyzna,27,2021-09-06_19h02.20.546,rantool2,2021.1.4,Win32,60.06006006,6135e006383e6ea6c3d06a28,613649832792e5453e0d4ee6,"[""period""]",0,[0.5663000000715215],119,0,119,0,1
