key_resp_7.keys,trials_2.thisRepN,trials_2.thisTrialN,trials_2.thisN,trials_2.thisIndex,trials_2.ran,id,series_0,series_1,acss_0,acss_1,comparison,id*,Płeć*,Wiek*,date,expName,psychopyVersion,OS,frameRate,STUDY_ID,SESSION_ID,key_resp_7.rt,key_resp_5.keys,key_resp_5.corr,key_resp_5.rt,trials.thisRepN,trials.thisTrialN,trials.thisN,trials.thisIndex,trials.ran
,0,0,0,29,1,61251a27ed3dc87e87657fdf,ORRRORO,ORRRORR,22.00300695,22.12173012,series_1,61251a27ed3dc87e87657fdf,Kobieta,18,2021-09-06_19h00.43.080,rantool2,2021.1.4,Win32,60.45218232,6135e006383e6ea6c3d06a28,6136491b2ce1f9f5f929c7d9,,,,,,,,,
f,0,1,1,31,1,61251a27ed3dc87e87657fdf,ORRRRRO,ORRRRRR,22.16413392,20.74050628,series_0,61251a27ed3dc87e87657fdf,Kobieta,18,2021-09-06_19h00.43.080,rantool2,2021.1.4,Win32,60.45218232,6135e006383e6ea6c3d06a28,6136491b2ce1f9f5f929c7d9,3.9664,,,,,,,,
j,0,2,2,41,1,61251a27ed3dc87e87657fdf,ROROORO,ROROORR,20.42602454,21.71443381,series_1,61251a27ed3dc87e87657fdf,Kobieta,18,2021-09-06_19h00.43.080,rantool2,2021.1.4,Win32,60.45218232,6135e006383e6ea6c3d06a28,6136491b2ce1f9f5f929c7d9,4.1301,,,,,,,,
f,0,3,3,5,1,61251a27ed3dc87e87657fdf,OOORORO,OOORORR,20.87963819,21.9921709,series_1,61251a27ed3dc87e87657fdf,Kobieta,18,2021-09-06_19h00.43.080,rantool2,2021.1.4,Win32,60.45218232,6135e006383e6ea6c3d06a28,6136491b2ce1f9f5f929c7d9,3.0216,,,,,,,,
f,0,4,4,46,1,61251a27ed3dc87e87657fdf,RORRROO,RORRROR,22.00300695,21.24781509,series_0,61251a27ed3dc87e87657fdf,Kobieta,18,2021-09-06_19h00.43.080,rantool2,2021.1.4,Win32,60.45218232,6135e006383e6ea6c3d06a28,6136491b2ce1f9f5f929c7d9,2.4039,,,,,,,,
f,0,5,5,7,1,61251a27ed3dc87e87657fdf,OOORRRO,OOORRRR,21.6194508,21.899017,series_1,61251a27ed3dc87e87657fdf,Kobieta,18,2021-09-06_19h00.43.080,rantool2,2021.1.4,Win32,60.45218232,6135e006383e6ea6c3d06a28,6136491b2ce1f9f5f929c7d9,2.4844,,,,,,,,
f,0,6,6,60,1,61251a27ed3dc87e87657fdf,RRRROOO,RRRROOR,22.10108823,22.15934078,series_1,61251a27ed3dc87e87657fdf,Kobieta,18,2021-09-06_19h00.43.080,rantool2,2021.1.4,Win32,60.45218232,6135e006383e6ea6c3d06a28,6136491b2ce1f9f5f929c7d9,1.3417,,,,,,,,
f,0,7,7,43,1,61251a27ed3dc87e87657fdf,RORORRO,RORORRR,20.71309134,21.07490964,series_1,61251a27ed3dc87e87657fdf,Kobieta,18,2021-09-06_19h00.43.080,rantool2,2021.1.4,Win32,60.45218232,6135e006383e6ea6c3d06a28,6136491b2ce1f9f5f929c7d9,2.6081,,,,,,,,
j,0,8,8,27,1,61251a27ed3dc87e87657fdf,ORRORRO,ORRORRR,21.55250791,22.2428857,series_1,61251a27ed3dc87e87657fdf,Kobieta,18,2021-09-06_19h00.43.080,rantool2,2021.1.4,Win32,60.45218232,6135e006383e6ea6c3d06a28,6136491b2ce1f9f5f929c7d9,2.4646,,,,,,,,
f,0,9,9,9,1,61251a27ed3dc87e87657fdf,OOROORO,OOROORR,21.07991943,22.2428857,series_1,61251a27ed3dc87e87657fdf,Kobieta,18,2021-09-06_19h00.43.080,rantool2,2021.1.4,Win32,60.45218232,6135e006383e6ea6c3d06a28,6136491b2ce1f9f5f929c7d9,2.7839,,,,,,,,
j,0,10,10,59,1,61251a27ed3dc87e87657fdf,RRRORRO,RRRORRR,21.56657303,20.89823192,series_0,61251a27ed3dc87e87657fdf,Kobieta,18,2021-09-06_19h00.43.080,rantool2,2021.1.4,Win32,60.45218232,6135e006383e6ea6c3d06a28,6136491b2ce1f9f5f929c7d9,2.2006,,,,,,,,
j,0,11,11,62,1,61251a27ed3dc87e87657fdf,RRRRROO,RRRRROR,22.16413392,21.27974287,series_0,61251a27ed3dc87e87657fdf,Kobieta,18,2021-09-06_19h00.43.080,rantool2,2021.1.4,Win32,60.45218232,6135e006383e6ea6c3d06a28,6136491b2ce1f9f5f929c7d9,1.4078,,,,,,,,
f,0,12,12,34,1,61251a27ed3dc87e87657fdf,ROOOROO,ROOOROR,21.03750787,21.24781509,series_1,61251a27ed3dc87e87657fdf,Kobieta,18,2021-09-06_19h00.43.080,rantool2,2021.1.4,Win32,60.45218232,6135e006383e6ea6c3d06a28,6136491b2ce1f9f5f929c7d9,1.8105,,,,,,,,
j,0,13,13,38,1,61251a27ed3dc87e87657fdf,ROORROO,ROORROR,21.79500819,21.36812781,series_0,61251a27ed3dc87e87657fdf,Kobieta,18,2021-09-06_19h00.43.080,rantool2,2021.1.4,Win32,60.45218232,6135e006383e6ea6c3d06a28,6136491b2ce1f9f5f929c7d9,3.2413,,,,,,,,
f,0,14,14,36,1,61251a27ed3dc87e87657fdf,ROOROOO,ROOROOR,21.07991943,20.9984461,series_0,61251a27ed3dc87e87657fdf,Kobieta,18,2021-09-06_19h00.43.080,rantool2,2021.1.4,Win32,60.45218232,6135e006383e6ea6c3d06a28,6136491b2ce1f9f5f929c7d9,1.9984,,,,,,,,
j,0,15,15,56,1,61251a27ed3dc87e87657fdf,RRROOOO,RRROOOR,21.6194508,22.31681875,series_1,61251a27ed3dc87e87657fdf,Kobieta,18,2021-09-06_19h00.43.080,rantool2,2021.1.4,Win32,60.45218232,6135e006383e6ea6c3d06a28,6136491b2ce1f9f5f929c7d9,1.6475,,,,,,,,
f,0,16,16,50,1,61251a27ed3dc87e87657fdf,RROOROO,RROOROR,21.73568164,22.02566557,series_1,61251a27ed3dc87e87657fdf,Kobieta,18,2021-09-06_19h00.43.080,rantool2,2021.1.4,Win32,60.45218232,6135e006383e6ea6c3d06a28,6136491b2ce1f9f5f929c7d9,2.5687,,,,,,,,
f,0,17,17,51,1,61251a27ed3dc87e87657fdf,RROORRO,RROORRR,21.89852628,22.02786418,series_1,61251a27ed3dc87e87657fdf,Kobieta,18,2021-09-06_19h00.43.080,rantool2,2021.1.4,Win32,60.45218232,6135e006383e6ea6c3d06a28,6136491b2ce1f9f5f929c7d9,1.5284,,,,,,,,
f,0,18,18,2,1,61251a27ed3dc87e87657fdf,OOOOROO,OOOOROR,20.43051175,21.02936224,series_1,61251a27ed3dc87e87657fdf,Kobieta,18,2021-09-06_19h00.43.080,rantool2,2021.1.4,Win32,60.45218232,6135e006383e6ea6c3d06a28,6136491b2ce1f9f5f929c7d9,1.6199,,,,,,,,
f,0,19,19,1,1,61251a27ed3dc87e87657fdf,OOOOORO,OOOOORR,19.92253567,20.74050628,series_1,61251a27ed3dc87e87657fdf,Kobieta,18,2021-09-06_19h00.43.080,rantool2,2021.1.4,Win32,60.45218232,6135e006383e6ea6c3d06a28,6136491b2ce1f9f5f929c7d9,1.4251,,,,,,,,
j,0,20,20,49,1,61251a27ed3dc87e87657fdf,RROOORO,RROOORR,21.76276513,22.53364006,series_1,61251a27ed3dc87e87657fdf,Kobieta,18,2021-09-06_19h00.43.080,rantool2,2021.1.4,Win32,60.45218232,6135e006383e6ea6c3d06a28,6136491b2ce1f9f5f929c7d9,1.951,,,,,,,,
j,0,21,21,22,1,61251a27ed3dc87e87657fdf,ORORROO,ORORROR,22.02732763,21.57657071,series_0,61251a27ed3dc87e87657fdf,Kobieta,18,2021-09-06_19h00.43.080,rantool2,2021.1.4,Win32,60.45218232,6135e006383e6ea6c3d06a28,6136491b2ce1f9f5f929c7d9,3.2313,,,,,,,,
j,0,22,22,63,1,61251a27ed3dc87e87657fdf,RRRRRRO,RRRRRRR,21.35278725,19.62521613,series_0,61251a27ed3dc87e87657fdf,Kobieta,18,2021-09-06_19h00.43.080,rantool2,2021.1.4,Win32,60.45218232,6135e006383e6ea6c3d06a28,6136491b2ce1f9f5f929c7d9,1.3757,,,,,,,,
f,0,23,23,61,1,61251a27ed3dc87e87657fdf,RRRRORO,RRRRORR,21.81333602,21.17347734,series_0,61251a27ed3dc87e87657fdf,Kobieta,18,2021-09-06_19h00.43.080,rantool2,2021.1.4,Win32,60.45218232,6135e006383e6ea6c3d06a28,6136491b2ce1f9f5f929c7d9,3.3618,,,,,,,,
j,0,24,24,19,1,61251a27ed3dc87e87657fdf,OROORRO,OROORRR,21.73568164,22.11181017,series_1,61251a27ed3dc87e87657fdf,Kobieta,18,2021-09-06_19h00.43.080,rantool2,2021.1.4,Win32,60.45218232,6135e006383e6ea6c3d06a28,6136491b2ce1f9f5f929c7d9,3.8176,,,,,,,,
f,0,25,25,53,1,61251a27ed3dc87e87657fdf,RRORORO,RRORORR,20.71309134,21.90565814,series_1,61251a27ed3dc87e87657fdf,Kobieta,18,2021-09-06_19h00.43.080,rantool2,2021.1.4,Win32,60.45218232,6135e006383e6ea6c3d06a28,6136491b2ce1f9f5f929c7d9,3.849,,,,,,,,
j,0,26,26,37,1,61251a27ed3dc87e87657fdf,ROORORO,ROORORR,20.42602454,21.57657071,series_1,61251a27ed3dc87e87657fdf,Kobieta,18,2021-09-06_19h00.43.080,rantool2,2021.1.4,Win32,60.45218232,6135e006383e6ea6c3d06a28,6136491b2ce1f9f5f929c7d9,1.7404,,,,,,,,
f,0,27,27,45,1,61251a27ed3dc87e87657fdf,RORRORO,RORRORR,20.78182524,21.22513037,series_1,61251a27ed3dc87e87657fdf,Kobieta,18,2021-09-06_19h00.43.080,rantool2,2021.1.4,Win32,60.45218232,6135e006383e6ea6c3d06a28,6136491b2ce1f9f5f929c7d9,2.9865,,,,,,,,
f,0,28,28,12,1,61251a27ed3dc87e87657fdf,OORROOO,OORROOR,21.30250474,22.02786418,series_1,61251a27ed3dc87e87657fdf,Kobieta,18,2021-09-06_19h00.43.080,rantool2,2021.1.4,Win32,60.45218232,6135e006383e6ea6c3d06a28,6136491b2ce1f9f5f929c7d9,1.6008,,,,,,,,
j,0,29,29,33,1,61251a27ed3dc87e87657fdf,ROOOORO,ROOOORR,20.83779602,22.03072203,series_1,61251a27ed3dc87e87657fdf,Kobieta,18,2021-09-06_19h00.43.080,rantool2,2021.1.4,Win32,60.45218232,6135e006383e6ea6c3d06a28,6136491b2ce1f9f5f929c7d9,2.3493,,,,,,,,
j,0,30,30,10,1,61251a27ed3dc87e87657fdf,OOROROO,OOROROR,21.31236711,21.07490964,series_0,61251a27ed3dc87e87657fdf,Kobieta,18,2021-09-06_19h00.43.080,rantool2,2021.1.4,Win32,60.45218232,6135e006383e6ea6c3d06a28,6136491b2ce1f9f5f929c7d9,3.4828,,,,,,,,
j,0,31,31,18,1,61251a27ed3dc87e87657fdf,OROOROO,OROOROR,20.84860893,21.22513037,series_1,61251a27ed3dc87e87657fdf,Kobieta,18,2021-09-06_19h00.43.080,rantool2,2021.1.4,Win32,60.45218232,6135e006383e6ea6c3d06a28,6136491b2ce1f9f5f929c7d9,1.7592,,,,,,,,
j,0,32,32,39,1,61251a27ed3dc87e87657fdf,ROORRRO,ROORRRR,21.82425538,21.38562617,series_0,61251a27ed3dc87e87657fdf,Kobieta,18,2021-09-06_19h00.43.080,rantool2,2021.1.4,Win32,60.45218232,6135e006383e6ea6c3d06a28,6136491b2ce1f9f5f929c7d9,2.0347,,,,,,,,
j,0,33,33,54,1,61251a27ed3dc87e87657fdf,RRORROO,RRORROR,21.55250791,20.9984461,series_0,61251a27ed3dc87e87657fdf,Kobieta,18,2021-09-06_19h00.43.080,rantool2,2021.1.4,Win32,60.45218232,6135e006383e6ea6c3d06a28,6136491b2ce1f9f5f929c7d9,1.8886,,,,,,,,
f,0,34,34,24,1,61251a27ed3dc87e87657fdf,ORROOOO,ORROOOR,21.12383932,22.07102821,series_1,61251a27ed3dc87e87657fdf,Kobieta,18,2021-09-06_19h00.43.080,rantool2,2021.1.4,Win32,60.45218232,6135e006383e6ea6c3d06a28,6136491b2ce1f9f5f929c7d9,1.3461,,,,,,,,
j,0,35,35,23,1,61251a27ed3dc87e87657fdf,ORORRRO,ORORRRR,22.1285618,21.9921709,series_0,61251a27ed3dc87e87657fdf,Kobieta,18,2021-09-06_19h00.43.080,rantool2,2021.1.4,Win32,60.45218232,6135e006383e6ea6c3d06a28,6136491b2ce1f9f5f929c7d9,3.5575,,,,,,,,
f,0,36,36,48,1,61251a27ed3dc87e87657fdf,RROOOOO,RROOOOR,20.90986523,22.15934078,series_1,61251a27ed3dc87e87657fdf,Kobieta,18,2021-09-06_19h00.43.080,rantool2,2021.1.4,Win32,60.45218232,6135e006383e6ea6c3d06a28,6136491b2ce1f9f5f929c7d9,2.9218,,,,,,,,
j,0,37,37,28,1,61251a27ed3dc87e87657fdf,ORRROOO,ORRROOR,22.24142883,22.53364006,series_1,61251a27ed3dc87e87657fdf,Kobieta,18,2021-09-06_19h00.43.080,rantool2,2021.1.4,Win32,60.45218232,6135e006383e6ea6c3d06a28,6136491b2ce1f9f5f929c7d9,2.5224,,,,,,,,
f,0,38,38,13,1,61251a27ed3dc87e87657fdf,OORRORO,OORRORR,21.66733484,22.11181017,series_1,61251a27ed3dc87e87657fdf,Kobieta,18,2021-09-06_19h00.43.080,rantool2,2021.1.4,Win32,60.45218232,6135e006383e6ea6c3d06a28,6136491b2ce1f9f5f929c7d9,2.0834,,,,,,,,
j,0,39,39,40,1,61251a27ed3dc87e87657fdf,ROROOOO,ROROOOR,20.87963819,21.37121559,series_1,61251a27ed3dc87e87657fdf,Kobieta,18,2021-09-06_19h00.43.080,rantool2,2021.1.4,Win32,60.45218232,6135e006383e6ea6c3d06a28,6136491b2ce1f9f5f929c7d9,2.7512,,,,,,,,
f,0,40,40,15,1,61251a27ed3dc87e87657fdf,OORRRRO,OORRRRR,22.10108823,21.74922619,series_0,61251a27ed3dc87e87657fdf,Kobieta,18,2021-09-06_19h00.43.080,rantool2,2021.1.4,Win32,60.45218232,6135e006383e6ea6c3d06a28,6136491b2ce1f9f5f929c7d9,2.6863,,,,,,,,
j,0,41,41,32,1,61251a27ed3dc87e87657fdf,ROOOOOO,ROOOOOR,19.92253567,21.27974287,series_1,61251a27ed3dc87e87657fdf,Kobieta,18,2021-09-06_19h00.43.080,rantool2,2021.1.4,Win32,60.45218232,6135e006383e6ea6c3d06a28,6136491b2ce1f9f5f929c7d9,2.6988,,,,,,,,
f,0,42,42,58,1,61251a27ed3dc87e87657fdf,RRROROO,RRROROR,22.1285618,21.37121559,series_0,61251a27ed3dc87e87657fdf,Kobieta,18,2021-09-06_19h00.43.080,rantool2,2021.1.4,Win32,60.45218232,6135e006383e6ea6c3d06a28,6136491b2ce1f9f5f929c7d9,4.5246,,,,,,,,
f,0,43,43,25,1,61251a27ed3dc87e87657fdf,ORROORO,ORROORR,21.79500819,22.61624387,series_1,61251a27ed3dc87e87657fdf,Kobieta,18,2021-09-06_19h00.43.080,rantool2,2021.1.4,Win32,60.45218232,6135e006383e6ea6c3d06a28,6136491b2ce1f9f5f929c7d9,3.1721,,,,,,,,
j,0,44,44,44,1,61251a27ed3dc87e87657fdf,RORROOO,RORROOR,21.66733484,22.02566557,series_1,61251a27ed3dc87e87657fdf,Kobieta,18,2021-09-06_19h00.43.080,rantool2,2021.1.4,Win32,60.45218232,6135e006383e6ea6c3d06a28,6136491b2ce1f9f5f929c7d9,3.4006,,,,,,,,
j,0,45,45,20,1,61251a27ed3dc87e87657fdf,OROROOO,OROROOR,21.31236711,21.90565814,series_1,61251a27ed3dc87e87657fdf,Kobieta,18,2021-09-06_19h00.43.080,rantool2,2021.1.4,Win32,60.45218232,6135e006383e6ea6c3d06a28,6136491b2ce1f9f5f929c7d9,2.4391,,,,,,,,
j,0,46,46,21,1,61251a27ed3dc87e87657fdf,ORORORO,ORORORR,20.39515459,22.06781359,series_1,61251a27ed3dc87e87657fdf,Kobieta,18,2021-09-06_19h00.43.080,rantool2,2021.1.4,Win32,60.45218232,6135e006383e6ea6c3d06a28,6136491b2ce1f9f5f929c7d9,3.1403,,,,,,,,
f,0,47,47,11,1,61251a27ed3dc87e87657fdf,OORORRO,OORORRR,22.18365867,22.6797523,series_1,61251a27ed3dc87e87657fdf,Kobieta,18,2021-09-06_19h00.43.080,rantool2,2021.1.4,Win32,60.45218232,6135e006383e6ea6c3d06a28,6136491b2ce1f9f5f929c7d9,2.3249,,,,,,,,
f,0,48,48,3,1,61251a27ed3dc87e87657fdf,OOOORRO,OOOORRR,20.90986523,21.74922619,series_1,61251a27ed3dc87e87657fdf,Kobieta,18,2021-09-06_19h00.43.080,rantool2,2021.1.4,Win32,60.45218232,6135e006383e6ea6c3d06a28,6136491b2ce1f9f5f929c7d9,2.955,,,,,,,,
j,0,49,49,8,1,61251a27ed3dc87e87657fdf,OOROOOO,OOROOOR,19.91402015,20.89823192,series_1,61251a27ed3dc87e87657fdf,Kobieta,18,2021-09-06_19h00.43.080,rantool2,2021.1.4,Win32,60.45218232,6135e006383e6ea6c3d06a28,6136491b2ce1f9f5f929c7d9,2.4297,,,,,,,,
j,0,50,50,42,1,61251a27ed3dc87e87657fdf,ROROROO,ROROROR,20.39515459,19.8361834,series_0,61251a27ed3dc87e87657fdf,Kobieta,18,2021-09-06_19h00.43.080,rantool2,2021.1.4,Win32,60.45218232,6135e006383e6ea6c3d06a28,6136491b2ce1f9f5f929c7d9,1.553,,,,,,,,
j,0,51,51,57,1,61251a27ed3dc87e87657fdf,RRROORO,RRROORR,21.82425538,22.07102821,series_1,61251a27ed3dc87e87657fdf,Kobieta,18,2021-09-06_19h00.43.080,rantool2,2021.1.4,Win32,60.45218232,6135e006383e6ea6c3d06a28,6136491b2ce1f9f5f929c7d9,2.2036,,,,,,,,
j,0,52,52,0,1,61251a27ed3dc87e87657fdf,OOOOOOO,OOOOOOR,18.52739004,19.62521613,series_1,61251a27ed3dc87e87657fdf,Kobieta,18,2021-09-06_19h00.43.080,rantool2,2021.1.4,Win32,60.45218232,6135e006383e6ea6c3d06a28,6136491b2ce1f9f5f929c7d9,2.4218,,,,,,,,
j,0,53,53,30,1,61251a27ed3dc87e87657fdf,ORRRROO,ORRRROR,22.46748491,22.03072203,series_0,61251a27ed3dc87e87657fdf,Kobieta,18,2021-09-06_19h00.43.080,rantool2,2021.1.4,Win32,60.45218232,6135e006383e6ea6c3d06a28,6136491b2ce1f9f5f929c7d9,4.4197,,,,,,,,
f,0,54,54,6,1,61251a27ed3dc87e87657fdf,OOORROO,OOORROR,21.12383932,21.38562617,series_1,61251a27ed3dc87e87657fdf,Kobieta,18,2021-09-06_19h00.43.080,rantool2,2021.1.4,Win32,60.45218232,6135e006383e6ea6c3d06a28,6136491b2ce1f9f5f929c7d9,2.6953,,,,,,,,
f,0,55,55,47,1,61251a27ed3dc87e87657fdf,RORRRRO,RORRRRR,21.81333602,21.02936224,series_0,61251a27ed3dc87e87657fdf,Kobieta,18,2021-09-06_19h00.43.080,rantool2,2021.1.4,Win32,60.45218232,6135e006383e6ea6c3d06a28,6136491b2ce1f9f5f929c7d9,2.7398,,,,,,,,
j,0,56,56,55,1,61251a27ed3dc87e87657fdf,RRORRRO,RRORRRR,21.56657303,21.21223021,series_0,61251a27ed3dc87e87657fdf,Kobieta,18,2021-09-06_19h00.43.080,rantool2,2021.1.4,Win32,60.45218232,6135e006383e6ea6c3d06a28,6136491b2ce1f9f5f929c7d9,3.0055,,,,,,,,
f,0,57,57,14,1,61251a27ed3dc87e87657fdf,OORRROO,OORRROR,22.24142883,22.16977179,series_0,61251a27ed3dc87e87657fdf,Kobieta,18,2021-09-06_19h00.43.080,rantool2,2021.1.4,Win32,60.45218232,6135e006383e6ea6c3d06a28,6136491b2ce1f9f5f929c7d9,1.9069,,,,,,,,
j,0,58,58,26,1,61251a27ed3dc87e87657fdf,ORROROO,ORROROR,22.02732763,21.71443381,series_0,61251a27ed3dc87e87657fdf,Kobieta,18,2021-09-06_19h00.43.080,rantool2,2021.1.4,Win32,60.45218232,6135e006383e6ea6c3d06a28,6136491b2ce1f9f5f929c7d9,3.237,,,,,,,,
j,0,59,59,52,1,61251a27ed3dc87e87657fdf,RROROOO,RROROOR,22.18365867,22.11097995,series_0,61251a27ed3dc87e87657fdf,Kobieta,18,2021-09-06_19h00.43.080,rantool2,2021.1.4,Win32,60.45218232,6135e006383e6ea6c3d06a28,6136491b2ce1f9f5f929c7d9,3.1688,,,,,,,,
f,0,60,60,16,1,61251a27ed3dc87e87657fdf,OROOOOO,OROOOOR,20.43051175,21.17347734,series_1,61251a27ed3dc87e87657fdf,Kobieta,18,2021-09-06_19h00.43.080,rantool2,2021.1.4,Win32,60.45218232,6135e006383e6ea6c3d06a28,6136491b2ce1f9f5f929c7d9,2.5954,,,,,,,,
f,0,61,61,17,1,61251a27ed3dc87e87657fdf,OROOORO,OROOORR,21.03750787,22.12173012,series_1,61251a27ed3dc87e87657fdf,Kobieta,18,2021-09-06_19h00.43.080,rantool2,2021.1.4,Win32,60.45218232,6135e006383e6ea6c3d06a28,6136491b2ce1f9f5f929c7d9,3.1226,,,,,,,,
f,0,62,62,4,1,61251a27ed3dc87e87657fdf,OOOROOO,OOOROOR,19.91402015,21.21223021,series_1,61251a27ed3dc87e87657fdf,Kobieta,18,2021-09-06_19h00.43.080,rantool2,2021.1.4,Win32,60.45218232,6135e006383e6ea6c3d06a28,6136491b2ce1f9f5f929c7d9,1.2202,,,,,,,,
f,0,63,63,35,1,61251a27ed3dc87e87657fdf,ROOORRO,ROOORRR,21.76276513,22.16977179,series_1,61251a27ed3dc87e87657fdf,Kobieta,18,2021-09-06_19h00.43.080,rantool2,2021.1.4,Win32,60.45218232,6135e006383e6ea6c3d06a28,6136491b2ce1f9f5f929c7d9,2.4914,,,,,,,,
,,,,,,61251a27ed3dc87e87657fdf,,,,,,61251a27ed3dc87e87657fdf,Kobieta,18,2021-09-06_19h00.43.080,rantool2,2021.1.4,Win32,60.45218232,6135e006383e6ea6c3d06a28,6136491b2ce1f9f5f929c7d9,,"[""comma""]",0,[0.8763999999761154],0,0,0,0,1
,,,,,,61251a27ed3dc87e87657fdf,,,,,,61251a27ed3dc87e87657fdf,Kobieta,18,2021-09-06_19h00.43.080,rantool2,2021.1.4,Win32,60.45218232,6135e006383e6ea6c3d06a28,6136491b2ce1f9f5f929c7d9,,"[""period""]",0,[0.2844000000357596],1,0,1,0,1
,,,,,,61251a27ed3dc87e87657fdf,,,,,,61251a27ed3dc87e87657fdf,Kobieta,18,2021-09-06_19h00.43.080,rantool2,2021.1.4,Win32,60.45218232,6135e006383e6ea6c3d06a28,6136491b2ce1f9f5f929c7d9,,"[""period""]",0,[0.23989999997615996],2,0,2,0,1
,,,,,,61251a27ed3dc87e87657fdf,,,,,,61251a27ed3dc87e87657fdf,Kobieta,18,2021-09-06_19h00.43.080,rantool2,2021.1.4,Win32,60.45218232,6135e006383e6ea6c3d06a28,6136491b2ce1f9f5f929c7d9,,"[""comma""]",0,[0.25989999997614177],3,0,3,0,1
,,,,,,61251a27ed3dc87e87657fdf,,,,,,61251a27ed3dc87e87657fdf,Kobieta,18,2021-09-06_19h00.43.080,rantool2,2021.1.4,Win32,60.45218232,6135e006383e6ea6c3d06a28,6136491b2ce1f9f5f929c7d9,,"[""period""]",0,[0.45189999997614905],4,0,4,0,1
,,,,,,61251a27ed3dc87e87657fdf,,,,,,61251a27ed3dc87e87657fdf,Kobieta,18,2021-09-06_19h00.43.080,rantool2,2021.1.4,Win32,60.45218232,6135e006383e6ea6c3d06a28,6136491b2ce1f9f5f929c7d9,,"[""comma""]",0,[0.3161999999880436],5,0,5,0,1
,,,,,,61251a27ed3dc87e87657fdf,,,,,,61251a27ed3dc87e87657fdf,Kobieta,18,2021-09-06_19h00.43.080,rantool2,2021.1.4,Win32,60.45218232,6135e006383e6ea6c3d06a28,6136491b2ce1f9f5f929c7d9,,"[""comma""]",0,[0.29879999995233675],6,0,6,0,1
,,,,,,61251a27ed3dc87e87657fdf,,,,,,61251a27ed3dc87e87657fdf,Kobieta,18,2021-09-06_19h00.43.080,rantool2,2021.1.4,Win32,60.45218232,6135e006383e6ea6c3d06a28,6136491b2ce1f9f5f929c7d9,,"[""period""]",0,[0.28379999995229355],7,0,7,0,1
,,,,,,61251a27ed3dc87e87657fdf,,,,,,61251a27ed3dc87e87657fdf,Kobieta,18,2021-09-06_19h00.43.080,rantool2,2021.1.4,Win32,60.45218232,6135e006383e6ea6c3d06a28,6136491b2ce1f9f5f929c7d9,,"[""comma"",""comma""]",0,"[0.2406999999880668,1.8393999999761377]",8,0,8,0,1
,,,,,,61251a27ed3dc87e87657fdf,,,,,,61251a27ed3dc87e87657fdf,Kobieta,18,2021-09-06_19h00.43.080,rantool2,2021.1.4,Win32,60.45218232,6135e006383e6ea6c3d06a28,6136491b2ce1f9f5f929c7d9,,0,0,,9,0,9,0,1
,,,,,,61251a27ed3dc87e87657fdf,,,,,,61251a27ed3dc87e87657fdf,Kobieta,18,2021-09-06_19h00.43.080,rantool2,2021.1.4,Win32,60.45218232,6135e006383e6ea6c3d06a28,6136491b2ce1f9f5f929c7d9,,"[""comma""]",0,[0.3084000000357605],10,0,10,0,1
,,,,,,61251a27ed3dc87e87657fdf,,,,,,61251a27ed3dc87e87657fdf,Kobieta,18,2021-09-06_19h00.43.080,rantool2,2021.1.4,Win32,60.45218232,6135e006383e6ea6c3d06a28,6136491b2ce1f9f5f929c7d9,,"[""period""]",0,[0.18350000000003774],11,0,11,0,1
,,,,,,61251a27ed3dc87e87657fdf,,,,,,61251a27ed3dc87e87657fdf,Kobieta,18,2021-09-06_19h00.43.080,rantool2,2021.1.4,Win32,60.45218232,6135e006383e6ea6c3d06a28,6136491b2ce1f9f5f929c7d9,,"[""comma""]",0,[0.499499999999955],12,0,12,0,1
,,,,,,61251a27ed3dc87e87657fdf,,,,,,61251a27ed3dc87e87657fdf,Kobieta,18,2021-09-06_19h00.43.080,rantool2,2021.1.4,Win32,60.45218232,6135e006383e6ea6c3d06a28,6136491b2ce1f9f5f929c7d9,,"[""comma""]",0,[0.2271999999881018],13,0,13,0,1
,,,,,,61251a27ed3dc87e87657fdf,,,,,,61251a27ed3dc87e87657fdf,Kobieta,18,2021-09-06_19h00.43.080,rantool2,2021.1.4,Win32,60.45218232,6135e006383e6ea6c3d06a28,6136491b2ce1f9f5f929c7d9,,"[""period""]",0,[0.21040000003574733],14,0,14,0,1
,,,,,,61251a27ed3dc87e87657fdf,,,,,,61251a27ed3dc87e87657fdf,Kobieta,18,2021-09-06_19h00.43.080,rantool2,2021.1.4,Win32,60.45218232,6135e006383e6ea6c3d06a28,6136491b2ce1f9f5f929c7d9,,"[""comma""]",0,[0.25030000001191866],15,0,15,0,1
,,,,,,61251a27ed3dc87e87657fdf,,,,,,61251a27ed3dc87e87657fdf,Kobieta,18,2021-09-06_19h00.43.080,rantool2,2021.1.4,Win32,60.45218232,6135e006383e6ea6c3d06a28,6136491b2ce1f9f5f929c7d9,,"[""period""]",0,[0.5093000000119332],16,0,16,0,1
,,,,,,61251a27ed3dc87e87657fdf,,,,,,61251a27ed3dc87e87657fdf,Kobieta,18,2021-09-06_19h00.43.080,rantool2,2021.1.4,Win32,60.45218232,6135e006383e6ea6c3d06a28,6136491b2ce1f9f5f929c7d9,,"[""comma""]",0,[0.23840000003576733],17,0,17,0,1
,,,,,,61251a27ed3dc87e87657fdf,,,,,,61251a27ed3dc87e87657fdf,Kobieta,18,2021-09-06_19h00.43.080,rantool2,2021.1.4,Win32,60.45218232,6135e006383e6ea6c3d06a28,6136491b2ce1f9f5f929c7d9,,"[""comma"",""comma""]",0,"[0.2657999999523213,1.8103999999761982]",18,0,18,0,1
,,,,,,61251a27ed3dc87e87657fdf,,,,,,61251a27ed3dc87e87657fdf,Kobieta,18,2021-09-06_19h00.43.080,rantool2,2021.1.4,Win32,60.45218232,6135e006383e6ea6c3d06a28,6136491b2ce1f9f5f929c7d9,,0,0,,19,0,19,0,1
,,,,,,61251a27ed3dc87e87657fdf,,,,,,61251a27ed3dc87e87657fdf,Kobieta,18,2021-09-06_19h00.43.080,rantool2,2021.1.4,Win32,60.45218232,6135e006383e6ea6c3d06a28,6136491b2ce1f9f5f929c7d9,,"[""comma""]",0,[0.21959999996420265],20,0,20,0,1
,,,,,,61251a27ed3dc87e87657fdf,,,,,,61251a27ed3dc87e87657fdf,Kobieta,18,2021-09-06_19h00.43.080,rantool2,2021.1.4,Win32,60.45218232,6135e006383e6ea6c3d06a28,6136491b2ce1f9f5f929c7d9,,"[""period""]",0,[0.30800000000004957],21,0,21,0,1
,,,,,,61251a27ed3dc87e87657fdf,,,,,,61251a27ed3dc87e87657fdf,Kobieta,18,2021-09-06_19h00.43.080,rantool2,2021.1.4,Win32,60.45218232,6135e006383e6ea6c3d06a28,6136491b2ce1f9f5f929c7d9,,"[""comma""]",0,[0.36659999996425086],22,0,22,0,1
,,,,,,61251a27ed3dc87e87657fdf,,,,,,61251a27ed3dc87e87657fdf,Kobieta,18,2021-09-06_19h00.43.080,rantool2,2021.1.4,Win32,60.45218232,6135e006383e6ea6c3d06a28,6136491b2ce1f9f5f929c7d9,,"[""comma""]",0,[0.3190999999642372],23,0,23,0,1
,,,,,,61251a27ed3dc87e87657fdf,,,,,,61251a27ed3dc87e87657fdf,Kobieta,18,2021-09-06_19h00.43.080,rantool2,2021.1.4,Win32,60.45218232,6135e006383e6ea6c3d06a28,6136491b2ce1f9f5f929c7d9,,"[""comma"",""period""]",0,"[0.22689999997618315,1.6991999999880818]",24,0,24,0,1
,,,,,,61251a27ed3dc87e87657fdf,,,,,,61251a27ed3dc87e87657fdf,Kobieta,18,2021-09-06_19h00.43.080,rantool2,2021.1.4,Win32,60.45218232,6135e006383e6ea6c3d06a28,6136491b2ce1f9f5f929c7d9,,0,0,,25,0,25,0,1
,,,,,,61251a27ed3dc87e87657fdf,,,,,,61251a27ed3dc87e87657fdf,Kobieta,18,2021-09-06_19h00.43.080,rantool2,2021.1.4,Win32,60.45218232,6135e006383e6ea6c3d06a28,6136491b2ce1f9f5f929c7d9,,"[""comma""]",0,[0.21960000002388824],26,0,26,0,1
,,,,,,61251a27ed3dc87e87657fdf,,,,,,61251a27ed3dc87e87657fdf,Kobieta,18,2021-09-06_19h00.43.080,rantool2,2021.1.4,Win32,60.45218232,6135e006383e6ea6c3d06a28,6136491b2ce1f9f5f929c7d9,,"[""comma""]",0,[0.23370000004774738],27,0,27,0,1
,,,,,,61251a27ed3dc87e87657fdf,,,,,,61251a27ed3dc87e87657fdf,Kobieta,18,2021-09-06_19h00.43.080,rantool2,2021.1.4,Win32,60.45218232,6135e006383e6ea6c3d06a28,6136491b2ce1f9f5f929c7d9,,"[""period""]",0,[0.20759999996425904],28,0,28,0,1
,,,,,,61251a27ed3dc87e87657fdf,,,,,,61251a27ed3dc87e87657fdf,Kobieta,18,2021-09-06_19h00.43.080,rantool2,2021.1.4,Win32,60.45218232,6135e006383e6ea6c3d06a28,6136491b2ce1f9f5f929c7d9,,"[""comma""]",0,[0.24819999998805997],29,0,29,0,1
,,,,,,61251a27ed3dc87e87657fdf,,,,,,61251a27ed3dc87e87657fdf,Kobieta,18,2021-09-06_19h00.43.080,rantool2,2021.1.4,Win32,60.45218232,6135e006383e6ea6c3d06a28,6136491b2ce1f9f5f929c7d9,,"[""period""]",0,[0.2486000000238846],30,0,30,0,1
,,,,,,61251a27ed3dc87e87657fdf,,,,,,61251a27ed3dc87e87657fdf,Kobieta,18,2021-09-06_19h00.43.080,rantool2,2021.1.4,Win32,60.45218232,6135e006383e6ea6c3d06a28,6136491b2ce1f9f5f929c7d9,,"[""period""]",0,[0.25359999996419447],31,0,31,0,1
,,,,,,61251a27ed3dc87e87657fdf,,,,,,61251a27ed3dc87e87657fdf,Kobieta,18,2021-09-06_19h00.43.080,rantool2,2021.1.4,Win32,60.45218232,6135e006383e6ea6c3d06a28,6136491b2ce1f9f5f929c7d9,,"[""comma""]",0,[0.3065000000000282],32,0,32,0,1
,,,,,,61251a27ed3dc87e87657fdf,,,,,,61251a27ed3dc87e87657fdf,Kobieta,18,2021-09-06_19h00.43.080,rantool2,2021.1.4,Win32,60.45218232,6135e006383e6ea6c3d06a28,6136491b2ce1f9f5f929c7d9,,"[""comma""]",0,[0.31489999997609175],33,0,33,0,1
,,,,,,61251a27ed3dc87e87657fdf,,,,,,61251a27ed3dc87e87657fdf,Kobieta,18,2021-09-06_19h00.43.080,rantool2,2021.1.4,Win32,60.45218232,6135e006383e6ea6c3d06a28,6136491b2ce1f9f5f929c7d9,,"[""comma""]",0,[0.24160000002382276],34,0,34,0,1
,,,,,,61251a27ed3dc87e87657fdf,,,,,,61251a27ed3dc87e87657fdf,Kobieta,18,2021-09-06_19h00.43.080,rantool2,2021.1.4,Win32,60.45218232,6135e006383e6ea6c3d06a28,6136491b2ce1f9f5f929c7d9,,"[""period""]",0,[0.2616999999880818],35,0,35,0,1
,,,,,,61251a27ed3dc87e87657fdf,,,,,,61251a27ed3dc87e87657fdf,Kobieta,18,2021-09-06_19h00.43.080,rantool2,2021.1.4,Win32,60.45218232,6135e006383e6ea6c3d06a28,6136491b2ce1f9f5f929c7d9,,"[""comma""]",0,[0.4564000000358419],36,0,36,0,1
,,,,,,61251a27ed3dc87e87657fdf,,,,,,61251a27ed3dc87e87657fdf,Kobieta,18,2021-09-06_19h00.43.080,rantool2,2021.1.4,Win32,60.45218232,6135e006383e6ea6c3d06a28,6136491b2ce1f9f5f929c7d9,,"[""comma""]",0,[0.26689999997608993],37,0,37,0,1
,,,,,,61251a27ed3dc87e87657fdf,,,,,,61251a27ed3dc87e87657fdf,Kobieta,18,2021-09-06_19h00.43.080,rantool2,2021.1.4,Win32,60.45218232,6135e006383e6ea6c3d06a28,6136491b2ce1f9f5f929c7d9,,"[""period""]",0,[0.24130000001184726],38,0,38,0,1
,,,,,,61251a27ed3dc87e87657fdf,,,,,,61251a27ed3dc87e87657fdf,Kobieta,18,2021-09-06_19h00.43.080,rantool2,2021.1.4,Win32,60.45218232,6135e006383e6ea6c3d06a28,6136491b2ce1f9f5f929c7d9,,"[""comma""]",0,[0.28579999995235994],39,0,39,0,1
,,,,,,61251a27ed3dc87e87657fdf,,,,,,61251a27ed3dc87e87657fdf,Kobieta,18,2021-09-06_19h00.43.080,rantool2,2021.1.4,Win32,60.45218232,6135e006383e6ea6c3d06a28,6136491b2ce1f9f5f929c7d9,,"[""period""]",0,[0.2901999999879763],40,0,40,0,1
,,,,,,61251a27ed3dc87e87657fdf,,,,,,61251a27ed3dc87e87657fdf,Kobieta,18,2021-09-06_19h00.43.080,rantool2,2021.1.4,Win32,60.45218232,6135e006383e6ea6c3d06a28,6136491b2ce1f9f5f929c7d9,,"[""comma""]",0,[0.28750000000002274],41,0,41,0,1
,,,,,,61251a27ed3dc87e87657fdf,,,,,,61251a27ed3dc87e87657fdf,Kobieta,18,2021-09-06_19h00.43.080,rantool2,2021.1.4,Win32,60.45218232,6135e006383e6ea6c3d06a28,6136491b2ce1f9f5f929c7d9,,"[""comma"",""period""]",0,"[0.24919999998803632,1.467199999988111]",42,0,42,0,1
,,,,,,61251a27ed3dc87e87657fdf,,,,,,61251a27ed3dc87e87657fdf,Kobieta,18,2021-09-06_19h00.43.080,rantool2,2021.1.4,Win32,60.45218232,6135e006383e6ea6c3d06a28,6136491b2ce1f9f5f929c7d9,,0,0,,43,0,43,0,1
,,,,,,61251a27ed3dc87e87657fdf,,,,,,61251a27ed3dc87e87657fdf,Kobieta,18,2021-09-06_19h00.43.080,rantool2,2021.1.4,Win32,60.45218232,6135e006383e6ea6c3d06a28,6136491b2ce1f9f5f929c7d9,,"[""comma""]",0,[0.26480000001186],44,0,44,0,1
,,,,,,61251a27ed3dc87e87657fdf,,,,,,61251a27ed3dc87e87657fdf,Kobieta,18,2021-09-06_19h00.43.080,rantool2,2021.1.4,Win32,60.45218232,6135e006383e6ea6c3d06a28,6136491b2ce1f9f5f929c7d9,,"[""comma""]",0,[0.49329999995234175],45,0,45,0,1
,,,,,,61251a27ed3dc87e87657fdf,,,,,,61251a27ed3dc87e87657fdf,Kobieta,18,2021-09-06_19h00.43.080,rantool2,2021.1.4,Win32,60.45218232,6135e006383e6ea6c3d06a28,6136491b2ce1f9f5f929c7d9,,"[""comma""]",0,[0.4833999999762],46,0,46,0,1
,,,,,,61251a27ed3dc87e87657fdf,,,,,,61251a27ed3dc87e87657fdf,Kobieta,18,2021-09-06_19h00.43.080,rantool2,2021.1.4,Win32,60.45218232,6135e006383e6ea6c3d06a28,6136491b2ce1f9f5f929c7d9,,"[""period""]",0,[0.29469999998809726],47,0,47,0,1
,,,,,,61251a27ed3dc87e87657fdf,,,,,,61251a27ed3dc87e87657fdf,Kobieta,18,2021-09-06_19h00.43.080,rantool2,2021.1.4,Win32,60.45218232,6135e006383e6ea6c3d06a28,6136491b2ce1f9f5f929c7d9,,"[""period""]",0,[0.3178999999761345],48,0,48,0,1
,,,,,,61251a27ed3dc87e87657fdf,,,,,,61251a27ed3dc87e87657fdf,Kobieta,18,2021-09-06_19h00.43.080,rantool2,2021.1.4,Win32,60.45218232,6135e006383e6ea6c3d06a28,6136491b2ce1f9f5f929c7d9,,"[""comma""]",0,[0.6366000000238046],49,0,49,0,1
,,,,,,61251a27ed3dc87e87657fdf,,,,,,61251a27ed3dc87e87657fdf,Kobieta,18,2021-09-06_19h00.43.080,rantool2,2021.1.4,Win32,60.45218232,6135e006383e6ea6c3d06a28,6136491b2ce1f9f5f929c7d9,,"[""comma""]",0,[0.3955999999642472],50,0,50,0,1
,,,,,,61251a27ed3dc87e87657fdf,,,,,,61251a27ed3dc87e87657fdf,Kobieta,18,2021-09-06_19h00.43.080,rantool2,2021.1.4,Win32,60.45218232,6135e006383e6ea6c3d06a28,6136491b2ce1f9f5f929c7d9,,"[""period""]",0,[0.2583000000119],51,0,51,0,1
,,,,,,61251a27ed3dc87e87657fdf,,,,,,61251a27ed3dc87e87657fdf,Kobieta,18,2021-09-06_19h00.43.080,rantool2,2021.1.4,Win32,60.45218232,6135e006383e6ea6c3d06a28,6136491b2ce1f9f5f929c7d9,,"[""period""]",0,[0.2685999999641808],52,0,52,0,1
,,,,,,61251a27ed3dc87e87657fdf,,,,,,61251a27ed3dc87e87657fdf,Kobieta,18,2021-09-06_19h00.43.080,rantool2,2021.1.4,Win32,60.45218232,6135e006383e6ea6c3d06a28,6136491b2ce1f9f5f929c7d9,,"[""period""]",0,[0.27299999999991087],53,0,53,0,1
,,,,,,61251a27ed3dc87e87657fdf,,,,,,61251a27ed3dc87e87657fdf,Kobieta,18,2021-09-06_19h00.43.080,rantool2,2021.1.4,Win32,60.45218232,6135e006383e6ea6c3d06a28,6136491b2ce1f9f5f929c7d9,,"[""comma""]",0,[0.24990000003572277],54,0,54,0,1
,,,,,,61251a27ed3dc87e87657fdf,,,,,,61251a27ed3dc87e87657fdf,Kobieta,18,2021-09-06_19h00.43.080,rantool2,2021.1.4,Win32,60.45218232,6135e006383e6ea6c3d06a28,6136491b2ce1f9f5f929c7d9,,"[""comma"",""comma""]",0,"[0.24900000000002365,1.7366999999881045]",55,0,55,0,1
,,,,,,61251a27ed3dc87e87657fdf,,,,,,61251a27ed3dc87e87657fdf,Kobieta,18,2021-09-06_19h00.43.080,rantool2,2021.1.4,Win32,60.45218232,6135e006383e6ea6c3d06a28,6136491b2ce1f9f5f929c7d9,,0,0,,56,0,56,0,1
,,,,,,61251a27ed3dc87e87657fdf,,,,,,61251a27ed3dc87e87657fdf,Kobieta,18,2021-09-06_19h00.43.080,rantool2,2021.1.4,Win32,60.45218232,6135e006383e6ea6c3d06a28,6136491b2ce1f9f5f929c7d9,,"[""comma"",""period""]",0,"[0.2627999999523354,1.8177999999522854]",57,0,57,0,1
,,,,,,61251a27ed3dc87e87657fdf,,,,,,61251a27ed3dc87e87657fdf,Kobieta,18,2021-09-06_19h00.43.080,rantool2,2021.1.4,Win32,60.45218232,6135e006383e6ea6c3d06a28,6136491b2ce1f9f5f929c7d9,,0,0,,58,0,58,0,1
,,,,,,61251a27ed3dc87e87657fdf,,,,,,61251a27ed3dc87e87657fdf,Kobieta,18,2021-09-06_19h00.43.080,rantool2,2021.1.4,Win32,60.45218232,6135e006383e6ea6c3d06a28,6136491b2ce1f9f5f929c7d9,,"[""period""]",0,[0.3935000000000173],59,0,59,0,1
,,,,,,61251a27ed3dc87e87657fdf,,,,,,61251a27ed3dc87e87657fdf,Kobieta,18,2021-09-06_19h00.43.080,rantool2,2021.1.4,Win32,60.45218232,6135e006383e6ea6c3d06a28,6136491b2ce1f9f5f929c7d9,,"[""comma""]",0,[0.2614000000356782],60,0,60,0,1
,,,,,,61251a27ed3dc87e87657fdf,,,,,,61251a27ed3dc87e87657fdf,Kobieta,18,2021-09-06_19h00.43.080,rantool2,2021.1.4,Win32,60.45218232,6135e006383e6ea6c3d06a28,6136491b2ce1f9f5f929c7d9,,"[""period""]",0,[0.22400000000004638],61,0,61,0,1
,,,,,,61251a27ed3dc87e87657fdf,,,,,,61251a27ed3dc87e87657fdf,Kobieta,18,2021-09-06_19h00.43.080,rantool2,2021.1.4,Win32,60.45218232,6135e006383e6ea6c3d06a28,6136491b2ce1f9f5f929c7d9,,"[""comma""]",0,[0.23209999996424813],62,0,62,0,1
,,,,,,61251a27ed3dc87e87657fdf,,,,,,61251a27ed3dc87e87657fdf,Kobieta,18,2021-09-06_19h00.43.080,rantool2,2021.1.4,Win32,60.45218232,6135e006383e6ea6c3d06a28,6136491b2ce1f9f5f929c7d9,,"[""period""]",0,[0.202900000035811],63,0,63,0,1
,,,,,,61251a27ed3dc87e87657fdf,,,,,,61251a27ed3dc87e87657fdf,Kobieta,18,2021-09-06_19h00.43.080,rantool2,2021.1.4,Win32,60.45218232,6135e006383e6ea6c3d06a28,6136491b2ce1f9f5f929c7d9,,"[""comma""]",0,[0.0004999999999881766],64,0,64,0,1
,,,,,,61251a27ed3dc87e87657fdf,,,,,,61251a27ed3dc87e87657fdf,Kobieta,18,2021-09-06_19h00.43.080,rantool2,2021.1.4,Win32,60.45218232,6135e006383e6ea6c3d06a28,6136491b2ce1f9f5f929c7d9,,"[""comma""]",0,[0.2765000000000555],65,0,65,0,1
,,,,,,61251a27ed3dc87e87657fdf,,,,,,61251a27ed3dc87e87657fdf,Kobieta,18,2021-09-06_19h00.43.080,rantool2,2021.1.4,Win32,60.45218232,6135e006383e6ea6c3d06a28,6136491b2ce1f9f5f929c7d9,,"[""period""]",0,[0.3394000000357664],66,0,66,0,1
,,,,,,61251a27ed3dc87e87657fdf,,,,,,61251a27ed3dc87e87657fdf,Kobieta,18,2021-09-06_19h00.43.080,rantool2,2021.1.4,Win32,60.45218232,6135e006383e6ea6c3d06a28,6136491b2ce1f9f5f929c7d9,,"[""comma""]",0,[0.21869999998807543],67,0,67,0,1
,,,,,,61251a27ed3dc87e87657fdf,,,,,,61251a27ed3dc87e87657fdf,Kobieta,18,2021-09-06_19h00.43.080,rantool2,2021.1.4,Win32,60.45218232,6135e006383e6ea6c3d06a28,6136491b2ce1f9f5f929c7d9,,"[""comma""]",0,[0.2328999999762118],68,0,68,0,1
,,,,,,61251a27ed3dc87e87657fdf,,,,,,61251a27ed3dc87e87657fdf,Kobieta,18,2021-09-06_19h00.43.080,rantool2,2021.1.4,Win32,60.45218232,6135e006383e6ea6c3d06a28,6136491b2ce1f9f5f929c7d9,,"[""period""]",0,[0.01760000002389006],69,0,69,0,1
,,,,,,61251a27ed3dc87e87657fdf,,,,,,61251a27ed3dc87e87657fdf,Kobieta,18,2021-09-06_19h00.43.080,rantool2,2021.1.4,Win32,60.45218232,6135e006383e6ea6c3d06a28,6136491b2ce1f9f5f929c7d9,,"[""comma"",""period""]",0,"[0.18879999995237995,1.978099999964229]",70,0,70,0,1
,,,,,,61251a27ed3dc87e87657fdf,,,,,,61251a27ed3dc87e87657fdf,Kobieta,18,2021-09-06_19h00.43.080,rantool2,2021.1.4,Win32,60.45218232,6135e006383e6ea6c3d06a28,6136491b2ce1f9f5f929c7d9,,0,0,,71,0,71,0,1
,,,,,,61251a27ed3dc87e87657fdf,,,,,,61251a27ed3dc87e87657fdf,Kobieta,18,2021-09-06_19h00.43.080,rantool2,2021.1.4,Win32,60.45218232,6135e006383e6ea6c3d06a28,6136491b2ce1f9f5f929c7d9,,"[""comma""]",0,[0.05289999997614814],72,0,72,0,1
,,,,,,61251a27ed3dc87e87657fdf,,,,,,61251a27ed3dc87e87657fdf,Kobieta,18,2021-09-06_19h00.43.080,rantool2,2021.1.4,Win32,60.45218232,6135e006383e6ea6c3d06a28,6136491b2ce1f9f5f929c7d9,,"[""period""]",0,[0.10709999996413444],73,0,73,0,1
,,,,,,61251a27ed3dc87e87657fdf,,,,,,61251a27ed3dc87e87657fdf,Kobieta,18,2021-09-06_19h00.43.080,rantool2,2021.1.4,Win32,60.45218232,6135e006383e6ea6c3d06a28,6136491b2ce1f9f5f929c7d9,,"[""comma""]",0,[0.0953000000118891],74,0,74,0,1
,,,,,,61251a27ed3dc87e87657fdf,,,,,,61251a27ed3dc87e87657fdf,Kobieta,18,2021-09-06_19h00.43.080,rantool2,2021.1.4,Win32,60.45218232,6135e006383e6ea6c3d06a28,6136491b2ce1f9f5f929c7d9,,"[""comma""]",0,[0.043900000035819176],75,0,75,0,1
,,,,,,61251a27ed3dc87e87657fdf,,,,,,61251a27ed3dc87e87657fdf,Kobieta,18,2021-09-06_19h00.43.080,rantool2,2021.1.4,Win32,60.45218232,6135e006383e6ea6c3d06a28,6136491b2ce1f9f5f929c7d9,,"[""comma""]",0,[0.2738999999761518],76,0,76,0,1
,,,,,,61251a27ed3dc87e87657fdf,,,,,,61251a27ed3dc87e87657fdf,Kobieta,18,2021-09-06_19h00.43.080,rantool2,2021.1.4,Win32,60.45218232,6135e006383e6ea6c3d06a28,6136491b2ce1f9f5f929c7d9,,"[""comma""]",0,[0.20169999998813637],77,0,77,0,1
,,,,,,61251a27ed3dc87e87657fdf,,,,,,61251a27ed3dc87e87657fdf,Kobieta,18,2021-09-06_19h00.43.080,rantool2,2021.1.4,Win32,60.45218232,6135e006383e6ea6c3d06a28,6136491b2ce1f9f5f929c7d9,,"[""period""]",0,[0.21639999997614723],78,0,78,0,1
,,,,,,61251a27ed3dc87e87657fdf,,,,,,61251a27ed3dc87e87657fdf,Kobieta,18,2021-09-06_19h00.43.080,rantool2,2021.1.4,Win32,60.45218232,6135e006383e6ea6c3d06a28,6136491b2ce1f9f5f929c7d9,,"[""comma""]",0,[0.26559999996425177],79,0,79,0,1
,,,,,,61251a27ed3dc87e87657fdf,,,,,,61251a27ed3dc87e87657fdf,Kobieta,18,2021-09-06_19h00.43.080,rantool2,2021.1.4,Win32,60.45218232,6135e006383e6ea6c3d06a28,6136491b2ce1f9f5f929c7d9,,"[""comma""]",0,[0.37570000004768644],80,0,80,0,1
,,,,,,61251a27ed3dc87e87657fdf,,,,,,61251a27ed3dc87e87657fdf,Kobieta,18,2021-09-06_19h00.43.080,rantool2,2021.1.4,Win32,60.45218232,6135e006383e6ea6c3d06a28,6136491b2ce1f9f5f929c7d9,,"[""period"",""period""]",0,"[0.2285999999642172,1.8840000000000146]",81,0,81,0,1
,,,,,,61251a27ed3dc87e87657fdf,,,,,,61251a27ed3dc87e87657fdf,Kobieta,18,2021-09-06_19h00.43.080,rantool2,2021.1.4,Win32,60.45218232,6135e006383e6ea6c3d06a28,6136491b2ce1f9f5f929c7d9,,0,0,,82,0,82,0,1
,,,,,,61251a27ed3dc87e87657fdf,,,,,,61251a27ed3dc87e87657fdf,Kobieta,18,2021-09-06_19h00.43.080,rantool2,2021.1.4,Win32,60.45218232,6135e006383e6ea6c3d06a28,6136491b2ce1f9f5f929c7d9,,"[""period""]",0,[0.18259999996428178],83,0,83,0,1
,,,,,,61251a27ed3dc87e87657fdf,,,,,,61251a27ed3dc87e87657fdf,Kobieta,18,2021-09-06_19h00.43.080,rantool2,2021.1.4,Win32,60.45218232,6135e006383e6ea6c3d06a28,6136491b2ce1f9f5f929c7d9,,"[""period""]",0,[0.14910000002385004],84,0,84,0,1
,,,,,,61251a27ed3dc87e87657fdf,,,,,,61251a27ed3dc87e87657fdf,Kobieta,18,2021-09-06_19h00.43.080,rantool2,2021.1.4,Win32,60.45218232,6135e006383e6ea6c3d06a28,6136491b2ce1f9f5f929c7d9,,"[""comma""]",0,[0.2504999999999882],85,0,85,0,1
,,,,,,61251a27ed3dc87e87657fdf,,,,,,61251a27ed3dc87e87657fdf,Kobieta,18,2021-09-06_19h00.43.080,rantool2,2021.1.4,Win32,60.45218232,6135e006383e6ea6c3d06a28,6136491b2ce1f9f5f929c7d9,,"[""comma""]",0,[0.3941999999881318],86,0,86,0,1
,,,,,,61251a27ed3dc87e87657fdf,,,,,,61251a27ed3dc87e87657fdf,Kobieta,18,2021-09-06_19h00.43.080,rantool2,2021.1.4,Win32,60.45218232,6135e006383e6ea6c3d06a28,6136491b2ce1f9f5f929c7d9,,"[""period""]",0,[0.4573999999761327],87,0,87,0,1
,,,,,,61251a27ed3dc87e87657fdf,,,,,,61251a27ed3dc87e87657fdf,Kobieta,18,2021-09-06_19h00.43.080,rantool2,2021.1.4,Win32,60.45218232,6135e006383e6ea6c3d06a28,6136491b2ce1f9f5f929c7d9,,"[""comma""]",0,[0.23160000002383185],88,0,88,0,1
,,,,,,61251a27ed3dc87e87657fdf,,,,,,61251a27ed3dc87e87657fdf,Kobieta,18,2021-09-06_19h00.43.080,rantool2,2021.1.4,Win32,60.45218232,6135e006383e6ea6c3d06a28,6136491b2ce1f9f5f929c7d9,,"[""comma"",""comma""]",0,"[0.2463000000119564,1.8513999999762518]",89,0,89,0,1
,,,,,,61251a27ed3dc87e87657fdf,,,,,,61251a27ed3dc87e87657fdf,Kobieta,18,2021-09-06_19h00.43.080,rantool2,2021.1.4,Win32,60.45218232,6135e006383e6ea6c3d06a28,6136491b2ce1f9f5f929c7d9,,"[""comma""]",0,[1.8734999999999218],90,0,90,0,1
,,,,,,61251a27ed3dc87e87657fdf,,,,,,61251a27ed3dc87e87657fdf,Kobieta,18,2021-09-06_19h00.43.080,rantool2,2021.1.4,Win32,60.45218232,6135e006383e6ea6c3d06a28,6136491b2ce1f9f5f929c7d9,,"[""period""]",0,[1.9301000000239128],91,0,91,0,1
,,,,,,61251a27ed3dc87e87657fdf,,,,,,61251a27ed3dc87e87657fdf,Kobieta,18,2021-09-06_19h00.43.080,rantool2,2021.1.4,Win32,60.45218232,6135e006383e6ea6c3d06a28,6136491b2ce1f9f5f929c7d9,,0,0,,92,0,92,0,1
,,,,,,61251a27ed3dc87e87657fdf,,,,,,61251a27ed3dc87e87657fdf,Kobieta,18,2021-09-06_19h00.43.080,rantool2,2021.1.4,Win32,60.45218232,6135e006383e6ea6c3d06a28,6136491b2ce1f9f5f929c7d9,,"[""comma""]",0,[0.056300000012015516],93,0,93,0,1
,,,,,,61251a27ed3dc87e87657fdf,,,,,,61251a27ed3dc87e87657fdf,Kobieta,18,2021-09-06_19h00.43.080,rantool2,2021.1.4,Win32,60.45218232,6135e006383e6ea6c3d06a28,6136491b2ce1f9f5f929c7d9,,"[""period""]",0,[0.2573999999762009],94,0,94,0,1
,,,,,,61251a27ed3dc87e87657fdf,,,,,,61251a27ed3dc87e87657fdf,Kobieta,18,2021-09-06_19h00.43.080,rantool2,2021.1.4,Win32,60.45218232,6135e006383e6ea6c3d06a28,6136491b2ce1f9f5f929c7d9,,"[""comma""]",0,[0.26810000002376455],95,0,95,0,1
,,,,,,61251a27ed3dc87e87657fdf,,,,,,61251a27ed3dc87e87657fdf,Kobieta,18,2021-09-06_19h00.43.080,rantool2,2021.1.4,Win32,60.45218232,6135e006383e6ea6c3d06a28,6136491b2ce1f9f5f929c7d9,,"[""comma""]",0,[0.2991000000238273],96,0,96,0,1
,,,,,,61251a27ed3dc87e87657fdf,,,,,,61251a27ed3dc87e87657fdf,Kobieta,18,2021-09-06_19h00.43.080,rantool2,2021.1.4,Win32,60.45218232,6135e006383e6ea6c3d06a28,6136491b2ce1f9f5f929c7d9,,"[""comma""]",0,[0.3663999999761245],97,0,97,0,1
,,,,,,61251a27ed3dc87e87657fdf,,,,,,61251a27ed3dc87e87657fdf,Kobieta,18,2021-09-06_19h00.43.080,rantool2,2021.1.4,Win32,60.45218232,6135e006383e6ea6c3d06a28,6136491b2ce1f9f5f929c7d9,,"[""period""]",0,[0.2585000000000264],98,0,98,0,1
,,,,,,61251a27ed3dc87e87657fdf,,,,,,61251a27ed3dc87e87657fdf,Kobieta,18,2021-09-06_19h00.43.080,rantool2,2021.1.4,Win32,60.45218232,6135e006383e6ea6c3d06a28,6136491b2ce1f9f5f929c7d9,,"[""comma""]",0,[0.25329999995233266],99,0,99,0,1
,,,,,,61251a27ed3dc87e87657fdf,,,,,,61251a27ed3dc87e87657fdf,Kobieta,18,2021-09-06_19h00.43.080,rantool2,2021.1.4,Win32,60.45218232,6135e006383e6ea6c3d06a28,6136491b2ce1f9f5f929c7d9,,"[""comma""]",0,[0.2884999999999991],100,0,100,0,1
,,,,,,61251a27ed3dc87e87657fdf,,,,,,61251a27ed3dc87e87657fdf,Kobieta,18,2021-09-06_19h00.43.080,rantool2,2021.1.4,Win32,60.45218232,6135e006383e6ea6c3d06a28,6136491b2ce1f9f5f929c7d9,,"[""period""]",0,[0.26099999999996726],101,0,101,0,1
,,,,,,61251a27ed3dc87e87657fdf,,,,,,61251a27ed3dc87e87657fdf,Kobieta,18,2021-09-06_19h00.43.080,rantool2,2021.1.4,Win32,60.45218232,6135e006383e6ea6c3d06a28,6136491b2ce1f9f5f929c7d9,,"[""comma""]",0,[0.29200000000003],102,0,102,0,1
,,,,,,61251a27ed3dc87e87657fdf,,,,,,61251a27ed3dc87e87657fdf,Kobieta,18,2021-09-06_19h00.43.080,rantool2,2021.1.4,Win32,60.45218232,6135e006383e6ea6c3d06a28,6136491b2ce1f9f5f929c7d9,,"[""comma""]",0,[0.28980000001195094],103,0,103,0,1
,,,,,,61251a27ed3dc87e87657fdf,,,,,,61251a27ed3dc87e87657fdf,Kobieta,18,2021-09-06_19h00.43.080,rantool2,2021.1.4,Win32,60.45218232,6135e006383e6ea6c3d06a28,6136491b2ce1f9f5f929c7d9,,"[""period""]",0,[0.3028000000118709],104,0,104,0,1
,,,,,,61251a27ed3dc87e87657fdf,,,,,,61251a27ed3dc87e87657fdf,Kobieta,18,2021-09-06_19h00.43.080,rantool2,2021.1.4,Win32,60.45218232,6135e006383e6ea6c3d06a28,6136491b2ce1f9f5f929c7d9,,"[""comma""]",0,[0.4183000000118682],105,0,105,0,1
,,,,,,61251a27ed3dc87e87657fdf,,,,,,61251a27ed3dc87e87657fdf,Kobieta,18,2021-09-06_19h00.43.080,rantool2,2021.1.4,Win32,60.45218232,6135e006383e6ea6c3d06a28,6136491b2ce1f9f5f929c7d9,,"[""period""]",0,[0.37119999998810727],106,0,106,0,1
,,,,,,61251a27ed3dc87e87657fdf,,,,,,61251a27ed3dc87e87657fdf,Kobieta,18,2021-09-06_19h00.43.080,rantool2,2021.1.4,Win32,60.45218232,6135e006383e6ea6c3d06a28,6136491b2ce1f9f5f929c7d9,,"[""period""]",0,[0.3378999999761163],107,0,107,0,1
,,,,,,61251a27ed3dc87e87657fdf,,,,,,61251a27ed3dc87e87657fdf,Kobieta,18,2021-09-06_19h00.43.080,rantool2,2021.1.4,Win32,60.45218232,6135e006383e6ea6c3d06a28,6136491b2ce1f9f5f929c7d9,,"[""comma""]",0,[0.32550000000003365],108,0,108,0,1
,,,,,,61251a27ed3dc87e87657fdf,,,,,,61251a27ed3dc87e87657fdf,Kobieta,18,2021-09-06_19h00.43.080,rantool2,2021.1.4,Win32,60.45218232,6135e006383e6ea6c3d06a28,6136491b2ce1f9f5f929c7d9,,"[""comma""]",0,[0.33610000002386187],109,0,109,0,1
,,,,,,61251a27ed3dc87e87657fdf,,,,,,61251a27ed3dc87e87657fdf,Kobieta,18,2021-09-06_19h00.43.080,rantool2,2021.1.4,Win32,60.45218232,6135e006383e6ea6c3d06a28,6136491b2ce1f9f5f929c7d9,,"[""period""]",0,[0.2539999999999054],110,0,110,0,1
,,,,,,61251a27ed3dc87e87657fdf,,,,,,61251a27ed3dc87e87657fdf,Kobieta,18,2021-09-06_19h00.43.080,rantool2,2021.1.4,Win32,60.45218232,6135e006383e6ea6c3d06a28,6136491b2ce1f9f5f929c7d9,,"[""comma""]",0,[0.3618999999761172],111,0,111,0,1
,,,,,,61251a27ed3dc87e87657fdf,,,,,,61251a27ed3dc87e87657fdf,Kobieta,18,2021-09-06_19h00.43.080,rantool2,2021.1.4,Win32,60.45218232,6135e006383e6ea6c3d06a28,6136491b2ce1f9f5f929c7d9,,"[""period""]",0,[0.5104999999999791],112,0,112,0,1
,,,,,,61251a27ed3dc87e87657fdf,,,,,,61251a27ed3dc87e87657fdf,Kobieta,18,2021-09-06_19h00.43.080,rantool2,2021.1.4,Win32,60.45218232,6135e006383e6ea6c3d06a28,6136491b2ce1f9f5f929c7d9,,"[""period""]",0,[0.32180000001187636],113,0,113,0,1
,,,,,,61251a27ed3dc87e87657fdf,,,,,,61251a27ed3dc87e87657fdf,Kobieta,18,2021-09-06_19h00.43.080,rantool2,2021.1.4,Win32,60.45218232,6135e006383e6ea6c3d06a28,6136491b2ce1f9f5f929c7d9,,"[""comma""]",0,[0.11549999999999727],114,0,114,0,1
,,,,,,61251a27ed3dc87e87657fdf,,,,,,61251a27ed3dc87e87657fdf,Kobieta,18,2021-09-06_19h00.43.080,rantool2,2021.1.4,Win32,60.45218232,6135e006383e6ea6c3d06a28,6136491b2ce1f9f5f929c7d9,,"[""comma""]",0,[0.15539999997611176],115,0,115,0,1
,,,,,,61251a27ed3dc87e87657fdf,,,,,,61251a27ed3dc87e87657fdf,Kobieta,18,2021-09-06_19h00.43.080,rantool2,2021.1.4,Win32,60.45218232,6135e006383e6ea6c3d06a28,6136491b2ce1f9f5f929c7d9,,"[""period""]",0,[0.24900000000002365],116,0,116,0,1
,,,,,,61251a27ed3dc87e87657fdf,,,,,,61251a27ed3dc87e87657fdf,Kobieta,18,2021-09-06_19h00.43.080,rantool2,2021.1.4,Win32,60.45218232,6135e006383e6ea6c3d06a28,6136491b2ce1f9f5f929c7d9,,"[""comma""]",0,[0.33580000001200005],117,0,117,0,1
,,,,,,61251a27ed3dc87e87657fdf,,,,,,61251a27ed3dc87e87657fdf,Kobieta,18,2021-09-06_19h00.43.080,rantool2,2021.1.4,Win32,60.45218232,6135e006383e6ea6c3d06a28,6136491b2ce1f9f5f929c7d9,,"[""period""]",0,[0.33719999998800176],118,0,118,0,1
,,,,,,61251a27ed3dc87e87657fdf,,,,,,61251a27ed3dc87e87657fdf,Kobieta,18,2021-09-06_19h00.43.080,rantool2,2021.1.4,Win32,60.45218232,6135e006383e6ea6c3d06a28,6136491b2ce1f9f5f929c7d9,,"[""period""]",0,[0.01599999999996271],119,0,119,0,1
