key_resp_7.keys,trials_2.thisRepN,trials_2.thisTrialN,trials_2.thisN,trials_2.thisIndex,trials_2.ran,id,series_0,series_1,acss_0,acss_1,comparison,id*,Płeć*,Wiek*,date,expName,psychopyVersion,OS,frameRate,STUDY_ID,SESSION_ID,key_resp_7.rt,key_resp_5.keys,key_resp_5.corr,key_resp_5.rt,trials.thisRepN,trials.thisTrialN,trials.thisN,trials.thisIndex,trials.ran
,0,0,0,44,1,6123ba76985dceaee3138132,RORROOO,RORROOR,21.66733484,22.02566557,series_1,6123ba76985dceaee3138132,Kobieta,24,2021-09-06_19h19.58.705,rantool2,2021.1.4,Win32,60.0132029,6135e006383e6ea6c3d06a28,61364da4ba8f13fa00e97c82,,,,,,,,,
,0,1,1,31,1,6123ba76985dceaee3138132,ORRRRRO,ORRRRRR,22.16413392,20.74050628,series_0,6123ba76985dceaee3138132,Kobieta,24,2021-09-06_19h19.58.705,rantool2,2021.1.4,Win32,60.0132029,6135e006383e6ea6c3d06a28,61364da4ba8f13fa00e97c82,,,,,,,,,
,0,2,2,51,1,6123ba76985dceaee3138132,RROORRO,RROORRR,21.89852628,22.02786418,series_1,6123ba76985dceaee3138132,Kobieta,24,2021-09-06_19h19.58.705,rantool2,2021.1.4,Win32,60.0132029,6135e006383e6ea6c3d06a28,61364da4ba8f13fa00e97c82,,,,,,,,,
,0,3,3,63,1,6123ba76985dceaee3138132,RRRRRRO,RRRRRRR,21.35278725,19.62521613,series_0,6123ba76985dceaee3138132,Kobieta,24,2021-09-06_19h19.58.705,rantool2,2021.1.4,Win32,60.0132029,6135e006383e6ea6c3d06a28,61364da4ba8f13fa00e97c82,,,,,,,,,
,0,4,4,21,1,6123ba76985dceaee3138132,ORORORO,ORORORR,20.39515459,22.06781359,series_1,6123ba76985dceaee3138132,Kobieta,24,2021-09-06_19h19.58.705,rantool2,2021.1.4,Win32,60.0132029,6135e006383e6ea6c3d06a28,61364da4ba8f13fa00e97c82,,,,,,,,,
,0,5,5,49,1,6123ba76985dceaee3138132,RROOORO,RROOORR,21.76276513,22.53364006,series_1,6123ba76985dceaee3138132,Kobieta,24,2021-09-06_19h19.58.705,rantool2,2021.1.4,Win32,60.0132029,6135e006383e6ea6c3d06a28,61364da4ba8f13fa00e97c82,,,,,,,,,
,0,6,6,3,1,6123ba76985dceaee3138132,OOOORRO,OOOORRR,20.90986523,21.74922619,series_1,6123ba76985dceaee3138132,Kobieta,24,2021-09-06_19h19.58.705,rantool2,2021.1.4,Win32,60.0132029,6135e006383e6ea6c3d06a28,61364da4ba8f13fa00e97c82,,,,,,,,,
,0,7,7,8,1,6123ba76985dceaee3138132,OOROOOO,OOROOOR,19.91402015,20.89823192,series_1,6123ba76985dceaee3138132,Kobieta,24,2021-09-06_19h19.58.705,rantool2,2021.1.4,Win32,60.0132029,6135e006383e6ea6c3d06a28,61364da4ba8f13fa00e97c82,,,,,,,,,
,0,8,8,0,1,6123ba76985dceaee3138132,OOOOOOO,OOOOOOR,18.52739004,19.62521613,series_1,6123ba76985dceaee3138132,Kobieta,24,2021-09-06_19h19.58.705,rantool2,2021.1.4,Win32,60.0132029,6135e006383e6ea6c3d06a28,61364da4ba8f13fa00e97c82,,,,,,,,,
,0,9,9,48,1,6123ba76985dceaee3138132,RROOOOO,RROOOOR,20.90986523,22.15934078,series_1,6123ba76985dceaee3138132,Kobieta,24,2021-09-06_19h19.58.705,rantool2,2021.1.4,Win32,60.0132029,6135e006383e6ea6c3d06a28,61364da4ba8f13fa00e97c82,,,,,,,,,
,0,10,10,50,1,6123ba76985dceaee3138132,RROOROO,RROOROR,21.73568164,22.02566557,series_1,6123ba76985dceaee3138132,Kobieta,24,2021-09-06_19h19.58.705,rantool2,2021.1.4,Win32,60.0132029,6135e006383e6ea6c3d06a28,61364da4ba8f13fa00e97c82,,,,,,,,,
,0,11,11,27,1,6123ba76985dceaee3138132,ORRORRO,ORRORRR,21.55250791,22.2428857,series_1,6123ba76985dceaee3138132,Kobieta,24,2021-09-06_19h19.58.705,rantool2,2021.1.4,Win32,60.0132029,6135e006383e6ea6c3d06a28,61364da4ba8f13fa00e97c82,,,,,,,,,
,0,12,12,16,1,6123ba76985dceaee3138132,OROOOOO,OROOOOR,20.43051175,21.17347734,series_1,6123ba76985dceaee3138132,Kobieta,24,2021-09-06_19h19.58.705,rantool2,2021.1.4,Win32,60.0132029,6135e006383e6ea6c3d06a28,61364da4ba8f13fa00e97c82,,,,,,,,,
,0,13,13,5,1,6123ba76985dceaee3138132,OOORORO,OOORORR,20.87963819,21.9921709,series_1,6123ba76985dceaee3138132,Kobieta,24,2021-09-06_19h19.58.705,rantool2,2021.1.4,Win32,60.0132029,6135e006383e6ea6c3d06a28,61364da4ba8f13fa00e97c82,,,,,,,,,
,0,14,14,55,1,6123ba76985dceaee3138132,RRORRRO,RRORRRR,21.56657303,21.21223021,series_0,6123ba76985dceaee3138132,Kobieta,24,2021-09-06_19h19.58.705,rantool2,2021.1.4,Win32,60.0132029,6135e006383e6ea6c3d06a28,61364da4ba8f13fa00e97c82,,,,,,,,,
,0,15,15,32,1,6123ba76985dceaee3138132,ROOOOOO,ROOOOOR,19.92253567,21.27974287,series_1,6123ba76985dceaee3138132,Kobieta,24,2021-09-06_19h19.58.705,rantool2,2021.1.4,Win32,60.0132029,6135e006383e6ea6c3d06a28,61364da4ba8f13fa00e97c82,,,,,,,,,
,0,16,16,52,1,6123ba76985dceaee3138132,RROROOO,RROROOR,22.18365867,22.11097995,series_0,6123ba76985dceaee3138132,Kobieta,24,2021-09-06_19h19.58.705,rantool2,2021.1.4,Win32,60.0132029,6135e006383e6ea6c3d06a28,61364da4ba8f13fa00e97c82,,,,,,,,,
,0,17,17,20,1,6123ba76985dceaee3138132,OROROOO,OROROOR,21.31236711,21.90565814,series_1,6123ba76985dceaee3138132,Kobieta,24,2021-09-06_19h19.58.705,rantool2,2021.1.4,Win32,60.0132029,6135e006383e6ea6c3d06a28,61364da4ba8f13fa00e97c82,,,,,,,,,
,0,18,18,15,1,6123ba76985dceaee3138132,OORRRRO,OORRRRR,22.10108823,21.74922619,series_0,6123ba76985dceaee3138132,Kobieta,24,2021-09-06_19h19.58.705,rantool2,2021.1.4,Win32,60.0132029,6135e006383e6ea6c3d06a28,61364da4ba8f13fa00e97c82,,,,,,,,,
,0,19,19,53,1,6123ba76985dceaee3138132,RRORORO,RRORORR,20.71309134,21.90565814,series_1,6123ba76985dceaee3138132,Kobieta,24,2021-09-06_19h19.58.705,rantool2,2021.1.4,Win32,60.0132029,6135e006383e6ea6c3d06a28,61364da4ba8f13fa00e97c82,,,,,,,,,
,0,20,20,34,1,6123ba76985dceaee3138132,ROOOROO,ROOOROR,21.03750787,21.24781509,series_1,6123ba76985dceaee3138132,Kobieta,24,2021-09-06_19h19.58.705,rantool2,2021.1.4,Win32,60.0132029,6135e006383e6ea6c3d06a28,61364da4ba8f13fa00e97c82,,,,,,,,,
,0,21,21,42,1,6123ba76985dceaee3138132,ROROROO,ROROROR,20.39515459,19.8361834,series_0,6123ba76985dceaee3138132,Kobieta,24,2021-09-06_19h19.58.705,rantool2,2021.1.4,Win32,60.0132029,6135e006383e6ea6c3d06a28,61364da4ba8f13fa00e97c82,,,,,,,,,
,0,22,22,23,1,6123ba76985dceaee3138132,ORORRRO,ORORRRR,22.1285618,21.9921709,series_0,6123ba76985dceaee3138132,Kobieta,24,2021-09-06_19h19.58.705,rantool2,2021.1.4,Win32,60.0132029,6135e006383e6ea6c3d06a28,61364da4ba8f13fa00e97c82,,,,,,,,,
,0,23,23,35,1,6123ba76985dceaee3138132,ROOORRO,ROOORRR,21.76276513,22.16977179,series_1,6123ba76985dceaee3138132,Kobieta,24,2021-09-06_19h19.58.705,rantool2,2021.1.4,Win32,60.0132029,6135e006383e6ea6c3d06a28,61364da4ba8f13fa00e97c82,,,,,,,,,
,0,24,24,25,1,6123ba76985dceaee3138132,ORROORO,ORROORR,21.79500819,22.61624387,series_1,6123ba76985dceaee3138132,Kobieta,24,2021-09-06_19h19.58.705,rantool2,2021.1.4,Win32,60.0132029,6135e006383e6ea6c3d06a28,61364da4ba8f13fa00e97c82,,,,,,,,,
,0,25,25,33,1,6123ba76985dceaee3138132,ROOOORO,ROOOORR,20.83779602,22.03072203,series_1,6123ba76985dceaee3138132,Kobieta,24,2021-09-06_19h19.58.705,rantool2,2021.1.4,Win32,60.0132029,6135e006383e6ea6c3d06a28,61364da4ba8f13fa00e97c82,,,,,,,,,
,0,26,26,14,1,6123ba76985dceaee3138132,OORRROO,OORRROR,22.24142883,22.16977179,series_0,6123ba76985dceaee3138132,Kobieta,24,2021-09-06_19h19.58.705,rantool2,2021.1.4,Win32,60.0132029,6135e006383e6ea6c3d06a28,61364da4ba8f13fa00e97c82,,,,,,,,,
,0,27,27,46,1,6123ba76985dceaee3138132,RORRROO,RORRROR,22.00300695,21.24781509,series_0,6123ba76985dceaee3138132,Kobieta,24,2021-09-06_19h19.58.705,rantool2,2021.1.4,Win32,60.0132029,6135e006383e6ea6c3d06a28,61364da4ba8f13fa00e97c82,,,,,,,,,
,0,28,28,57,1,6123ba76985dceaee3138132,RRROORO,RRROORR,21.82425538,22.07102821,series_1,6123ba76985dceaee3138132,Kobieta,24,2021-09-06_19h19.58.705,rantool2,2021.1.4,Win32,60.0132029,6135e006383e6ea6c3d06a28,61364da4ba8f13fa00e97c82,,,,,,,,,
,0,29,29,60,1,6123ba76985dceaee3138132,RRRROOO,RRRROOR,22.10108823,22.15934078,series_1,6123ba76985dceaee3138132,Kobieta,24,2021-09-06_19h19.58.705,rantool2,2021.1.4,Win32,60.0132029,6135e006383e6ea6c3d06a28,61364da4ba8f13fa00e97c82,,,,,,,,,
,0,30,30,7,1,6123ba76985dceaee3138132,OOORRRO,OOORRRR,21.6194508,21.899017,series_1,6123ba76985dceaee3138132,Kobieta,24,2021-09-06_19h19.58.705,rantool2,2021.1.4,Win32,60.0132029,6135e006383e6ea6c3d06a28,61364da4ba8f13fa00e97c82,,,,,,,,,
,0,31,31,18,1,6123ba76985dceaee3138132,OROOROO,OROOROR,20.84860893,21.22513037,series_1,6123ba76985dceaee3138132,Kobieta,24,2021-09-06_19h19.58.705,rantool2,2021.1.4,Win32,60.0132029,6135e006383e6ea6c3d06a28,61364da4ba8f13fa00e97c82,,,,,,,,,
,0,32,32,37,1,6123ba76985dceaee3138132,ROORORO,ROORORR,20.42602454,21.57657071,series_1,6123ba76985dceaee3138132,Kobieta,24,2021-09-06_19h19.58.705,rantool2,2021.1.4,Win32,60.0132029,6135e006383e6ea6c3d06a28,61364da4ba8f13fa00e97c82,,,,,,,,,
,0,33,33,2,1,6123ba76985dceaee3138132,OOOOROO,OOOOROR,20.43051175,21.02936224,series_1,6123ba76985dceaee3138132,Kobieta,24,2021-09-06_19h19.58.705,rantool2,2021.1.4,Win32,60.0132029,6135e006383e6ea6c3d06a28,61364da4ba8f13fa00e97c82,,,,,,,,,
,0,34,34,56,1,6123ba76985dceaee3138132,RRROOOO,RRROOOR,21.6194508,22.31681875,series_1,6123ba76985dceaee3138132,Kobieta,24,2021-09-06_19h19.58.705,rantool2,2021.1.4,Win32,60.0132029,6135e006383e6ea6c3d06a28,61364da4ba8f13fa00e97c82,,,,,,,,,
,0,35,35,12,1,6123ba76985dceaee3138132,OORROOO,OORROOR,21.30250474,22.02786418,series_1,6123ba76985dceaee3138132,Kobieta,24,2021-09-06_19h19.58.705,rantool2,2021.1.4,Win32,60.0132029,6135e006383e6ea6c3d06a28,61364da4ba8f13fa00e97c82,,,,,,,,,
,0,36,36,1,1,6123ba76985dceaee3138132,OOOOORO,OOOOORR,19.92253567,20.74050628,series_1,6123ba76985dceaee3138132,Kobieta,24,2021-09-06_19h19.58.705,rantool2,2021.1.4,Win32,60.0132029,6135e006383e6ea6c3d06a28,61364da4ba8f13fa00e97c82,,,,,,,,,
,0,37,37,26,1,6123ba76985dceaee3138132,ORROROO,ORROROR,22.02732763,21.71443381,series_0,6123ba76985dceaee3138132,Kobieta,24,2021-09-06_19h19.58.705,rantool2,2021.1.4,Win32,60.0132029,6135e006383e6ea6c3d06a28,61364da4ba8f13fa00e97c82,,,,,,,,,
,0,38,38,24,1,6123ba76985dceaee3138132,ORROOOO,ORROOOR,21.12383932,22.07102821,series_1,6123ba76985dceaee3138132,Kobieta,24,2021-09-06_19h19.58.705,rantool2,2021.1.4,Win32,60.0132029,6135e006383e6ea6c3d06a28,61364da4ba8f13fa00e97c82,,,,,,,,,
,0,39,39,30,1,6123ba76985dceaee3138132,ORRRROO,ORRRROR,22.46748491,22.03072203,series_0,6123ba76985dceaee3138132,Kobieta,24,2021-09-06_19h19.58.705,rantool2,2021.1.4,Win32,60.0132029,6135e006383e6ea6c3d06a28,61364da4ba8f13fa00e97c82,,,,,,,,,
f,0,40,40,11,1,6123ba76985dceaee3138132,OORORRO,OORORRR,22.18365867,22.6797523,series_1,6123ba76985dceaee3138132,Kobieta,24,2021-09-06_19h19.58.705,rantool2,2021.1.4,Win32,60.0132029,6135e006383e6ea6c3d06a28,61364da4ba8f13fa00e97c82,2.1181,,,,,,,,
j,0,41,41,28,1,6123ba76985dceaee3138132,ORRROOO,ORRROOR,22.24142883,22.53364006,series_1,6123ba76985dceaee3138132,Kobieta,24,2021-09-06_19h19.58.705,rantool2,2021.1.4,Win32,60.0132029,6135e006383e6ea6c3d06a28,61364da4ba8f13fa00e97c82,3.4712,,,,,,,,
f,0,42,42,22,1,6123ba76985dceaee3138132,ORORROO,ORORROR,22.02732763,21.57657071,series_0,6123ba76985dceaee3138132,Kobieta,24,2021-09-06_19h19.58.705,rantool2,2021.1.4,Win32,60.0132029,6135e006383e6ea6c3d06a28,61364da4ba8f13fa00e97c82,2.6915,,,,,,,,
j,0,43,43,29,1,6123ba76985dceaee3138132,ORRRORO,ORRRORR,22.00300695,22.12173012,series_1,6123ba76985dceaee3138132,Kobieta,24,2021-09-06_19h19.58.705,rantool2,2021.1.4,Win32,60.0132029,6135e006383e6ea6c3d06a28,61364da4ba8f13fa00e97c82,2.4705,,,,,,,,
f,0,44,44,4,1,6123ba76985dceaee3138132,OOOROOO,OOOROOR,19.91402015,21.21223021,series_1,6123ba76985dceaee3138132,Kobieta,24,2021-09-06_19h19.58.705,rantool2,2021.1.4,Win32,60.0132029,6135e006383e6ea6c3d06a28,61364da4ba8f13fa00e97c82,2.8077,,,,,,,,
j,0,45,45,47,1,6123ba76985dceaee3138132,RORRRRO,RORRRRR,21.81333602,21.02936224,series_0,6123ba76985dceaee3138132,Kobieta,24,2021-09-06_19h19.58.705,rantool2,2021.1.4,Win32,60.0132029,6135e006383e6ea6c3d06a28,61364da4ba8f13fa00e97c82,2.4827,,,,,,,,
f,0,46,46,62,1,6123ba76985dceaee3138132,RRRRROO,RRRRROR,22.16413392,21.27974287,series_0,6123ba76985dceaee3138132,Kobieta,24,2021-09-06_19h19.58.705,rantool2,2021.1.4,Win32,60.0132029,6135e006383e6ea6c3d06a28,61364da4ba8f13fa00e97c82,1.92,,,,,,,,
j,0,47,47,10,1,6123ba76985dceaee3138132,OOROROO,OOROROR,21.31236711,21.07490964,series_0,6123ba76985dceaee3138132,Kobieta,24,2021-09-06_19h19.58.705,rantool2,2021.1.4,Win32,60.0132029,6135e006383e6ea6c3d06a28,61364da4ba8f13fa00e97c82,3.4856,,,,,,,,
f,0,48,48,40,1,6123ba76985dceaee3138132,ROROOOO,ROROOOR,20.87963819,21.37121559,series_1,6123ba76985dceaee3138132,Kobieta,24,2021-09-06_19h19.58.705,rantool2,2021.1.4,Win32,60.0132029,6135e006383e6ea6c3d06a28,61364da4ba8f13fa00e97c82,2.4149,,,,,,,,
j,0,49,49,43,1,6123ba76985dceaee3138132,RORORRO,RORORRR,20.71309134,21.07490964,series_1,6123ba76985dceaee3138132,Kobieta,24,2021-09-06_19h19.58.705,rantool2,2021.1.4,Win32,60.0132029,6135e006383e6ea6c3d06a28,61364da4ba8f13fa00e97c82,2.8721,,,,,,,,
f,0,50,50,13,1,6123ba76985dceaee3138132,OORRORO,OORRORR,21.66733484,22.11181017,series_1,6123ba76985dceaee3138132,Kobieta,24,2021-09-06_19h19.58.705,rantool2,2021.1.4,Win32,60.0132029,6135e006383e6ea6c3d06a28,61364da4ba8f13fa00e97c82,2.3476,,,,,,,,
j,0,51,51,45,1,6123ba76985dceaee3138132,RORRORO,RORRORR,20.78182524,21.22513037,series_1,6123ba76985dceaee3138132,Kobieta,24,2021-09-06_19h19.58.705,rantool2,2021.1.4,Win32,60.0132029,6135e006383e6ea6c3d06a28,61364da4ba8f13fa00e97c82,2.4989,,,,,,,,
f,0,52,52,36,1,6123ba76985dceaee3138132,ROOROOO,ROOROOR,21.07991943,20.9984461,series_0,6123ba76985dceaee3138132,Kobieta,24,2021-09-06_19h19.58.705,rantool2,2021.1.4,Win32,60.0132029,6135e006383e6ea6c3d06a28,61364da4ba8f13fa00e97c82,2.5049,,,,,,,,
j,0,53,53,61,1,6123ba76985dceaee3138132,RRRRORO,RRRRORR,21.81333602,21.17347734,series_0,6123ba76985dceaee3138132,Kobieta,24,2021-09-06_19h19.58.705,rantool2,2021.1.4,Win32,60.0132029,6135e006383e6ea6c3d06a28,61364da4ba8f13fa00e97c82,2.1673,,,,,,,,
f,0,54,54,38,1,6123ba76985dceaee3138132,ROORROO,ROORROR,21.79500819,21.36812781,series_0,6123ba76985dceaee3138132,Kobieta,24,2021-09-06_19h19.58.705,rantool2,2021.1.4,Win32,60.0132029,6135e006383e6ea6c3d06a28,61364da4ba8f13fa00e97c82,2.6331,,,,,,,,
j,0,55,55,59,1,6123ba76985dceaee3138132,RRRORRO,RRRORRR,21.56657303,20.89823192,series_0,6123ba76985dceaee3138132,Kobieta,24,2021-09-06_19h19.58.705,rantool2,2021.1.4,Win32,60.0132029,6135e006383e6ea6c3d06a28,61364da4ba8f13fa00e97c82,2.0504,,,,,,,,
f,0,56,56,39,1,6123ba76985dceaee3138132,ROORRRO,ROORRRR,21.82425538,21.38562617,series_0,6123ba76985dceaee3138132,Kobieta,24,2021-09-06_19h19.58.705,rantool2,2021.1.4,Win32,60.0132029,6135e006383e6ea6c3d06a28,61364da4ba8f13fa00e97c82,2.3377,,,,,,,,
j,0,57,57,58,1,6123ba76985dceaee3138132,RRROROO,RRROROR,22.1285618,21.37121559,series_0,6123ba76985dceaee3138132,Kobieta,24,2021-09-06_19h19.58.705,rantool2,2021.1.4,Win32,60.0132029,6135e006383e6ea6c3d06a28,61364da4ba8f13fa00e97c82,2.2245,,,,,,,,
f,0,58,58,41,1,6123ba76985dceaee3138132,ROROORO,ROROORR,20.42602454,21.71443381,series_1,6123ba76985dceaee3138132,Kobieta,24,2021-09-06_19h19.58.705,rantool2,2021.1.4,Win32,60.0132029,6135e006383e6ea6c3d06a28,61364da4ba8f13fa00e97c82,2.3861,,,,,,,,
j,0,59,59,17,1,6123ba76985dceaee3138132,OROOORO,OROOORR,21.03750787,22.12173012,series_1,6123ba76985dceaee3138132,Kobieta,24,2021-09-06_19h19.58.705,rantool2,2021.1.4,Win32,60.0132029,6135e006383e6ea6c3d06a28,61364da4ba8f13fa00e97c82,2.8234,,,,,,,,
,0,60,60,6,1,6123ba76985dceaee3138132,OOORROO,OOORROR,21.12383932,21.38562617,series_1,6123ba76985dceaee3138132,Kobieta,24,2021-09-06_19h19.58.705,rantool2,2021.1.4,Win32,60.0132029,6135e006383e6ea6c3d06a28,61364da4ba8f13fa00e97c82,,,,,,,,,
,0,61,61,19,1,6123ba76985dceaee3138132,OROORRO,OROORRR,21.73568164,22.11181017,series_1,6123ba76985dceaee3138132,Kobieta,24,2021-09-06_19h19.58.705,rantool2,2021.1.4,Win32,60.0132029,6135e006383e6ea6c3d06a28,61364da4ba8f13fa00e97c82,,,,,,,,,
,0,62,62,9,1,6123ba76985dceaee3138132,OOROORO,OOROORR,21.07991943,22.2428857,series_1,6123ba76985dceaee3138132,Kobieta,24,2021-09-06_19h19.58.705,rantool2,2021.1.4,Win32,60.0132029,6135e006383e6ea6c3d06a28,61364da4ba8f13fa00e97c82,,,,,,,,,
,0,63,63,54,1,6123ba76985dceaee3138132,RRORROO,RRORROR,21.55250791,20.9984461,series_0,6123ba76985dceaee3138132,Kobieta,24,2021-09-06_19h19.58.705,rantool2,2021.1.4,Win32,60.0132029,6135e006383e6ea6c3d06a28,61364da4ba8f13fa00e97c82,,,,,,,,,
,,,,,,6123ba76985dceaee3138132,,,,,,6123ba76985dceaee3138132,Kobieta,24,2021-09-06_19h19.58.705,rantool2,2021.1.4,Win32,60.0132029,6135e006383e6ea6c3d06a28,61364da4ba8f13fa00e97c82,,"[""comma""]",0,[0.9605999999642449],0,0,0,0,1
,,,,,,6123ba76985dceaee3138132,,,,,,6123ba76985dceaee3138132,Kobieta,24,2021-09-06_19h19.58.705,rantool2,2021.1.4,Win32,60.0132029,6135e006383e6ea6c3d06a28,61364da4ba8f13fa00e97c82,,"[""period""]",0,[0.3009999999999877],1,0,1,0,1
,,,,,,6123ba76985dceaee3138132,,,,,,6123ba76985dceaee3138132,Kobieta,24,2021-09-06_19h19.58.705,rantool2,2021.1.4,Win32,60.0132029,6135e006383e6ea6c3d06a28,61364da4ba8f13fa00e97c82,,"[""period""]",0,[0.4503999999761845],2,0,2,0,1
,,,,,,6123ba76985dceaee3138132,,,,,,6123ba76985dceaee3138132,Kobieta,24,2021-09-06_19h19.58.705,rantool2,2021.1.4,Win32,60.0132029,6135e006383e6ea6c3d06a28,61364da4ba8f13fa00e97c82,,"[""comma""]",0,[0.2995000000000232],3,0,3,0,1
,,,,,,6123ba76985dceaee3138132,,,,,,6123ba76985dceaee3138132,Kobieta,24,2021-09-06_19h19.58.705,rantool2,2021.1.4,Win32,60.0132029,6135e006383e6ea6c3d06a28,61364da4ba8f13fa00e97c82,,"[""comma""]",0,[0.44739999997614177],4,0,4,0,1
,,,,,,6123ba76985dceaee3138132,,,,,,6123ba76985dceaee3138132,Kobieta,24,2021-09-06_19h19.58.705,rantool2,2021.1.4,Win32,60.0132029,6135e006383e6ea6c3d06a28,61364da4ba8f13fa00e97c82,,"[""period""]",0,[0.24950000000001182],5,0,5,0,1
,,,,,,6123ba76985dceaee3138132,,,,,,6123ba76985dceaee3138132,Kobieta,24,2021-09-06_19h19.58.705,rantool2,2021.1.4,Win32,60.0132029,6135e006383e6ea6c3d06a28,61364da4ba8f13fa00e97c82,,"[""period""]",0,[0.4841000000238296],6,0,6,0,1
,,,,,,6123ba76985dceaee3138132,,,,,,6123ba76985dceaee3138132,Kobieta,24,2021-09-06_19h19.58.705,rantool2,2021.1.4,Win32,60.0132029,6135e006383e6ea6c3d06a28,61364da4ba8f13fa00e97c82,,"[""comma""]",0,[0.23330000001192275],7,0,7,0,1
,,,,,,6123ba76985dceaee3138132,,,,,,6123ba76985dceaee3138132,Kobieta,24,2021-09-06_19h19.58.705,rantool2,2021.1.4,Win32,60.0132029,6135e006383e6ea6c3d06a28,61364da4ba8f13fa00e97c82,,"[""period""]",0,[0.2343999999761195],8,0,8,0,1
,,,,,,6123ba76985dceaee3138132,,,,,,6123ba76985dceaee3138132,Kobieta,24,2021-09-06_19h19.58.705,rantool2,2021.1.4,Win32,60.0132029,6135e006383e6ea6c3d06a28,61364da4ba8f13fa00e97c82,,"[""comma""]",0,[0.23569999998807134],9,0,9,0,1
,,,,,,6123ba76985dceaee3138132,,,,,,6123ba76985dceaee3138132,Kobieta,24,2021-09-06_19h19.58.705,rantool2,2021.1.4,Win32,60.0132029,6135e006383e6ea6c3d06a28,61364da4ba8f13fa00e97c82,,"[""period""]",0,[0.2265000000000441],10,0,10,0,1
,,,,,,6123ba76985dceaee3138132,,,,,,6123ba76985dceaee3138132,Kobieta,24,2021-09-06_19h19.58.705,rantool2,2021.1.4,Win32,60.0132029,6135e006383e6ea6c3d06a28,61364da4ba8f13fa00e97c82,,"[""period""]",0,[0.2598999999761986],11,0,11,0,1
,,,,,,6123ba76985dceaee3138132,,,,,,6123ba76985dceaee3138132,Kobieta,24,2021-09-06_19h19.58.705,rantool2,2021.1.4,Win32,60.0132029,6135e006383e6ea6c3d06a28,61364da4ba8f13fa00e97c82,,"[""comma""]",0,[0.2608000000119546],12,0,12,0,1
,,,,,,6123ba76985dceaee3138132,,,,,,6123ba76985dceaee3138132,Kobieta,24,2021-09-06_19h19.58.705,rantool2,2021.1.4,Win32,60.0132029,6135e006383e6ea6c3d06a28,61364da4ba8f13fa00e97c82,,"[""comma""]",0,[0.35080000001192957],13,0,13,0,1
,,,,,,6123ba76985dceaee3138132,,,,,,6123ba76985dceaee3138132,Kobieta,24,2021-09-06_19h19.58.705,rantool2,2021.1.4,Win32,60.0132029,6135e006383e6ea6c3d06a28,61364da4ba8f13fa00e97c82,,"[""period""]",0,[0.25159999996424176],14,0,14,0,1
,,,,,,6123ba76985dceaee3138132,,,,,,6123ba76985dceaee3138132,Kobieta,24,2021-09-06_19h19.58.705,rantool2,2021.1.4,Win32,60.0132029,6135e006383e6ea6c3d06a28,61364da4ba8f13fa00e97c82,,"[""comma"",""comma""]",0,"[-0.00860000002387551,0.8234999999999673]",15,0,15,0,1
,,,,,,6123ba76985dceaee3138132,,,,,,6123ba76985dceaee3138132,Kobieta,24,2021-09-06_19h19.58.705,rantool2,2021.1.4,Win32,60.0132029,6135e006383e6ea6c3d06a28,61364da4ba8f13fa00e97c82,,"[""comma""]",0,[0.31580000001190456],16,0,16,0,1
,,,,,,6123ba76985dceaee3138132,,,,,,6123ba76985dceaee3138132,Kobieta,24,2021-09-06_19h19.58.705,rantool2,2021.1.4,Win32,60.0132029,6135e006383e6ea6c3d06a28,61364da4ba8f13fa00e97c82,,"[""comma""]",0,[0.41569999998807816],17,0,17,0,1
,,,,,,6123ba76985dceaee3138132,,,,,,6123ba76985dceaee3138132,Kobieta,24,2021-09-06_19h19.58.705,rantool2,2021.1.4,Win32,60.0132029,6135e006383e6ea6c3d06a28,61364da4ba8f13fa00e97c82,,"[""period""]",0,[0.3511999999880686],18,0,18,0,1
,,,,,,6123ba76985dceaee3138132,,,,,,6123ba76985dceaee3138132,Kobieta,24,2021-09-06_19h19.58.705,rantool2,2021.1.4,Win32,60.0132029,6135e006383e6ea6c3d06a28,61364da4ba8f13fa00e97c82,,"[""comma""]",0,[0.2527999999523445],19,0,19,0,1
,,,,,,6123ba76985dceaee3138132,,,,,,6123ba76985dceaee3138132,Kobieta,24,2021-09-06_19h19.58.705,rantool2,2021.1.4,Win32,60.0132029,6135e006383e6ea6c3d06a28,61364da4ba8f13fa00e97c82,,"[""period""]",0,[0.24480000001193503],20,0,20,0,1
,,,,,,6123ba76985dceaee3138132,,,,,,6123ba76985dceaee3138132,Kobieta,24,2021-09-06_19h19.58.705,rantool2,2021.1.4,Win32,60.0132029,6135e006383e6ea6c3d06a28,61364da4ba8f13fa00e97c82,,"[""period""]",0,[0.2488999999761745],21,0,21,0,1
,,,,,,6123ba76985dceaee3138132,,,,,,6123ba76985dceaee3138132,Kobieta,24,2021-09-06_19h19.58.705,rantool2,2021.1.4,Win32,60.0132029,6135e006383e6ea6c3d06a28,61364da4ba8f13fa00e97c82,,"[""period""]",0,[0.23630000001190865],22,0,22,0,1
,,,,,,6123ba76985dceaee3138132,,,,,,6123ba76985dceaee3138132,Kobieta,24,2021-09-06_19h19.58.705,rantool2,2021.1.4,Win32,60.0132029,6135e006383e6ea6c3d06a28,61364da4ba8f13fa00e97c82,,"[""period""]",0,[0.2548999999761463],23,0,23,0,1
,,,,,,6123ba76985dceaee3138132,,,,,,6123ba76985dceaee3138132,Kobieta,24,2021-09-06_19h19.58.705,rantool2,2021.1.4,Win32,60.0132029,6135e006383e6ea6c3d06a28,61364da4ba8f13fa00e97c82,,"[""period""]",0,[0.10340000003577643],24,0,24,0,1
,,,,,,6123ba76985dceaee3138132,,,,,,6123ba76985dceaee3138132,Kobieta,24,2021-09-06_19h19.58.705,rantool2,2021.1.4,Win32,60.0132029,6135e006383e6ea6c3d06a28,61364da4ba8f13fa00e97c82,,"[""comma""]",0,[0.04869999998805952],25,0,25,0,1
,,,,,,6123ba76985dceaee3138132,,,,,,6123ba76985dceaee3138132,Kobieta,24,2021-09-06_19h19.58.705,rantool2,2021.1.4,Win32,60.0132029,6135e006383e6ea6c3d06a28,61364da4ba8f13fa00e97c82,,"[""period""]",0,[0.18330000001191138],26,0,26,0,1
,,,,,,6123ba76985dceaee3138132,,,,,,6123ba76985dceaee3138132,Kobieta,24,2021-09-06_19h19.58.705,rantool2,2021.1.4,Win32,60.0132029,6135e006383e6ea6c3d06a28,61364da4ba8f13fa00e97c82,,"[""comma""]",0,[0.2943999999761786],27,0,27,0,1
,,,,,,6123ba76985dceaee3138132,,,,,,6123ba76985dceaee3138132,Kobieta,24,2021-09-06_19h19.58.705,rantool2,2021.1.4,Win32,60.0132029,6135e006383e6ea6c3d06a28,61364da4ba8f13fa00e97c82,,"[""period""]",0,[0.24909999996424403],28,0,28,0,1
,,,,,,6123ba76985dceaee3138132,,,,,,6123ba76985dceaee3138132,Kobieta,24,2021-09-06_19h19.58.705,rantool2,2021.1.4,Win32,60.0132029,6135e006383e6ea6c3d06a28,61364da4ba8f13fa00e97c82,,"[""comma""]",0,[0.28710000002382685],29,0,29,0,1
,,,,,,6123ba76985dceaee3138132,,,,,,6123ba76985dceaee3138132,Kobieta,24,2021-09-06_19h19.58.705,rantool2,2021.1.4,Win32,60.0132029,6135e006383e6ea6c3d06a28,61364da4ba8f13fa00e97c82,,"[""period""]",0,[0.25440000003573005],30,0,30,0,1
,,,,,,6123ba76985dceaee3138132,,,,,,6123ba76985dceaee3138132,Kobieta,24,2021-09-06_19h19.58.705,rantool2,2021.1.4,Win32,60.0132029,6135e006383e6ea6c3d06a28,61364da4ba8f13fa00e97c82,,"[""period""]",0,[0.45650000000000546],31,0,31,0,1
,,,,,,6123ba76985dceaee3138132,,,,,,6123ba76985dceaee3138132,Kobieta,24,2021-09-06_19h19.58.705,rantool2,2021.1.4,Win32,60.0132029,6135e006383e6ea6c3d06a28,61364da4ba8f13fa00e97c82,,"[""comma""]",0,[0.333500000000015],32,0,32,0,1
,,,,,,6123ba76985dceaee3138132,,,,,,6123ba76985dceaee3138132,Kobieta,24,2021-09-06_19h19.58.705,rantool2,2021.1.4,Win32,60.0132029,6135e006383e6ea6c3d06a28,61364da4ba8f13fa00e97c82,,"[""period""]",0,[0.23250000000001592],33,0,33,0,1
,,,,,,6123ba76985dceaee3138132,,,,,,6123ba76985dceaee3138132,Kobieta,24,2021-09-06_19h19.58.705,rantool2,2021.1.4,Win32,60.0132029,6135e006383e6ea6c3d06a28,61364da4ba8f13fa00e97c82,,"[""comma""]",0,[0.24080000001191593],34,0,34,0,1
,,,,,,6123ba76985dceaee3138132,,,,,,6123ba76985dceaee3138132,Kobieta,24,2021-09-06_19h19.58.705,rantool2,2021.1.4,Win32,60.0132029,6135e006383e6ea6c3d06a28,61364da4ba8f13fa00e97c82,,"[""period""]",0,[0.24889999997611767],35,0,35,0,1
,,,,,,6123ba76985dceaee3138132,,,,,,6123ba76985dceaee3138132,Kobieta,24,2021-09-06_19h19.58.705,rantool2,2021.1.4,Win32,60.0132029,6135e006383e6ea6c3d06a28,61364da4ba8f13fa00e97c82,,"[""comma""]",0,[0.37580000001190683],36,0,36,0,1
,,,,,,6123ba76985dceaee3138132,,,,,,6123ba76985dceaee3138132,Kobieta,24,2021-09-06_19h19.58.705,rantool2,2021.1.4,Win32,60.0132029,6135e006383e6ea6c3d06a28,61364da4ba8f13fa00e97c82,,"[""period""]",0,[0.24460000002380866],37,0,37,0,1
,,,,,,6123ba76985dceaee3138132,,,,,,6123ba76985dceaee3138132,Kobieta,24,2021-09-06_19h19.58.705,rantool2,2021.1.4,Win32,60.0132029,6135e006383e6ea6c3d06a28,61364da4ba8f13fa00e97c82,,"[""comma""]",0,[0.23250000000001592],38,0,38,0,1
,,,,,,6123ba76985dceaee3138132,,,,,,6123ba76985dceaee3138132,Kobieta,24,2021-09-06_19h19.58.705,rantool2,2021.1.4,Win32,60.0132029,6135e006383e6ea6c3d06a28,61364da4ba8f13fa00e97c82,,"[""period""]",0,[0.23439999997617633],39,0,39,0,1
,,,,,,6123ba76985dceaee3138132,,,,,,6123ba76985dceaee3138132,Kobieta,24,2021-09-06_19h19.58.705,rantool2,2021.1.4,Win32,60.0132029,6135e006383e6ea6c3d06a28,61364da4ba8f13fa00e97c82,,"[""comma""]",0,[0.46569999998808953],40,0,40,0,1
,,,,,,6123ba76985dceaee3138132,,,,,,6123ba76985dceaee3138132,Kobieta,24,2021-09-06_19h19.58.705,rantool2,2021.1.4,Win32,60.0132029,6135e006383e6ea6c3d06a28,61364da4ba8f13fa00e97c82,,"[""period""]",0,[0.7076999999881082],41,0,41,0,1
,,,,,,6123ba76985dceaee3138132,,,,,,6123ba76985dceaee3138132,Kobieta,24,2021-09-06_19h19.58.705,rantool2,2021.1.4,Win32,60.0132029,6135e006383e6ea6c3d06a28,61364da4ba8f13fa00e97c82,,"[""period""]",0,[0.3160000000000309],42,0,42,0,1
,,,,,,6123ba76985dceaee3138132,,,,,,6123ba76985dceaee3138132,Kobieta,24,2021-09-06_19h19.58.705,rantool2,2021.1.4,Win32,60.0132029,6135e006383e6ea6c3d06a28,61364da4ba8f13fa00e97c82,,"[""comma""]",0,[0.2996999999880927],43,0,43,0,1
,,,,,,6123ba76985dceaee3138132,,,,,,6123ba76985dceaee3138132,Kobieta,24,2021-09-06_19h19.58.705,rantool2,2021.1.4,Win32,60.0132029,6135e006383e6ea6c3d06a28,61364da4ba8f13fa00e97c82,,"[""period""]",0,[0.2499000000357796],44,0,44,0,1
,,,,,,6123ba76985dceaee3138132,,,,,,6123ba76985dceaee3138132,Kobieta,24,2021-09-06_19h19.58.705,rantool2,2021.1.4,Win32,60.0132029,6135e006383e6ea6c3d06a28,61364da4ba8f13fa00e97c82,,"[""comma""]",0,[0.3009999999999877],45,0,45,0,1
,,,,,,6123ba76985dceaee3138132,,,,,,6123ba76985dceaee3138132,Kobieta,24,2021-09-06_19h19.58.705,rantool2,2021.1.4,Win32,60.0132029,6135e006383e6ea6c3d06a28,61364da4ba8f13fa00e97c82,,"[""comma""]",0,[0.45619999998802996],46,0,46,0,1
,,,,,,6123ba76985dceaee3138132,,,,,,6123ba76985dceaee3138132,Kobieta,24,2021-09-06_19h19.58.705,rantool2,2021.1.4,Win32,60.0132029,6135e006383e6ea6c3d06a28,61364da4ba8f13fa00e97c82,,"[""period""]",0,[0.3505999999642313],47,0,47,0,1
,,,,,,6123ba76985dceaee3138132,,,,,,6123ba76985dceaee3138132,Kobieta,24,2021-09-06_19h19.58.705,rantool2,2021.1.4,Win32,60.0132029,6135e006383e6ea6c3d06a28,61364da4ba8f13fa00e97c82,,"[""period""]",0,[0.5166000000238569],48,0,48,0,1
,,,,,,6123ba76985dceaee3138132,,,,,,6123ba76985dceaee3138132,Kobieta,24,2021-09-06_19h19.58.705,rantool2,2021.1.4,Win32,60.0132029,6135e006383e6ea6c3d06a28,61364da4ba8f13fa00e97c82,,"[""period"",""comma""]",0,"[0.48860000002383686,0.9488000000119428]",49,0,49,0,1
,,,,,,6123ba76985dceaee3138132,,,,,,6123ba76985dceaee3138132,Kobieta,24,2021-09-06_19h19.58.705,rantool2,2021.1.4,Win32,60.0132029,6135e006383e6ea6c3d06a28,61364da4ba8f13fa00e97c82,,"[""comma""]",0,[0.3358000000119432],50,0,50,0,1
,,,,,,6123ba76985dceaee3138132,,,,,,6123ba76985dceaee3138132,Kobieta,24,2021-09-06_19h19.58.705,rantool2,2021.1.4,Win32,60.0132029,6135e006383e6ea6c3d06a28,61364da4ba8f13fa00e97c82,,"[""comma""]",0,[0.3603000000119323],51,0,51,0,1
,,,,,,6123ba76985dceaee3138132,,,,,,6123ba76985dceaee3138132,Kobieta,24,2021-09-06_19h19.58.705,rantool2,2021.1.4,Win32,60.0132029,6135e006383e6ea6c3d06a28,61364da4ba8f13fa00e97c82,,"[""period""]",0,[0.7894000000357551],52,0,52,0,1
,,,,,,6123ba76985dceaee3138132,,,,,,6123ba76985dceaee3138132,Kobieta,24,2021-09-06_19h19.58.705,rantool2,2021.1.4,Win32,60.0132029,6135e006383e6ea6c3d06a28,61364da4ba8f13fa00e97c82,,"[""comma""]",0,[0.4434000000357514],53,0,53,0,1
,,,,,,6123ba76985dceaee3138132,,,,,,6123ba76985dceaee3138132,Kobieta,24,2021-09-06_19h19.58.705,rantool2,2021.1.4,Win32,60.0132029,6135e006383e6ea6c3d06a28,61364da4ba8f13fa00e97c82,,"[""period""]",0,[0.8070000000000164],54,0,54,0,1
,,,,,,6123ba76985dceaee3138132,,,,,,6123ba76985dceaee3138132,Kobieta,24,2021-09-06_19h19.58.705,rantool2,2021.1.4,Win32,60.0132029,6135e006383e6ea6c3d06a28,61364da4ba8f13fa00e97c82,,"[""comma""]",0,[0.3026000000238014],55,0,55,0,1
,,,,,,6123ba76985dceaee3138132,,,,,,6123ba76985dceaee3138132,Kobieta,24,2021-09-06_19h19.58.705,rantool2,2021.1.4,Win32,60.0132029,6135e006383e6ea6c3d06a28,61364da4ba8f13fa00e97c82,,"[""period""]",0,[0.21849999999994907],56,0,56,0,1
,,,,,,6123ba76985dceaee3138132,,,,,,6123ba76985dceaee3138132,Kobieta,24,2021-09-06_19h19.58.705,rantool2,2021.1.4,Win32,60.0132029,6135e006383e6ea6c3d06a28,61364da4ba8f13fa00e97c82,,"[""comma""]",0,[0.20000000000004547],57,0,57,0,1
,,,,,,6123ba76985dceaee3138132,,,,,,6123ba76985dceaee3138132,Kobieta,24,2021-09-06_19h19.58.705,rantool2,2021.1.4,Win32,60.0132029,6135e006383e6ea6c3d06a28,61364da4ba8f13fa00e97c82,,"[""comma""]",0,[0.19100000000003092],58,0,58,0,1
,,,,,,6123ba76985dceaee3138132,,,,,,6123ba76985dceaee3138132,Kobieta,24,2021-09-06_19h19.58.705,rantool2,2021.1.4,Win32,60.0132029,6135e006383e6ea6c3d06a28,61364da4ba8f13fa00e97c82,,"[""period""]",0,[0.2534000000357537],59,0,59,0,1
,,,,,,6123ba76985dceaee3138132,,,,,,6123ba76985dceaee3138132,Kobieta,24,2021-09-06_19h19.58.705,rantool2,2021.1.4,Win32,60.0132029,6135e006383e6ea6c3d06a28,61364da4ba8f13fa00e97c82,,"[""comma""]",0,[0.2493999999761627],60,0,60,0,1
,,,,,,6123ba76985dceaee3138132,,,,,,6123ba76985dceaee3138132,Kobieta,24,2021-09-06_19h19.58.705,rantool2,2021.1.4,Win32,60.0132029,6135e006383e6ea6c3d06a28,61364da4ba8f13fa00e97c82,,"[""period""]",0,[0.21580000001193866],61,0,61,0,1
,,,,,,6123ba76985dceaee3138132,,,,,,6123ba76985dceaee3138132,Kobieta,24,2021-09-06_19h19.58.705,rantool2,2021.1.4,Win32,60.0132029,6135e006383e6ea6c3d06a28,61364da4ba8f13fa00e97c82,,"[""period""]",0,[0.2336999999880618],62,0,62,0,1
,,,,,,6123ba76985dceaee3138132,,,,,,6123ba76985dceaee3138132,Kobieta,24,2021-09-06_19h19.58.705,rantool2,2021.1.4,Win32,60.0132029,6135e006383e6ea6c3d06a28,61364da4ba8f13fa00e97c82,,"[""comma""]",0,[0.23880000001190638],63,0,63,0,1
,,,,,,6123ba76985dceaee3138132,,,,,,6123ba76985dceaee3138132,Kobieta,24,2021-09-06_19h19.58.705,rantool2,2021.1.4,Win32,60.0132029,6135e006383e6ea6c3d06a28,61364da4ba8f13fa00e97c82,,"[""period""]",0,[0.2056000000238214],64,0,64,0,1
,,,,,,6123ba76985dceaee3138132,,,,,,6123ba76985dceaee3138132,Kobieta,24,2021-09-06_19h19.58.705,rantool2,2021.1.4,Win32,60.0132029,6135e006383e6ea6c3d06a28,61364da4ba8f13fa00e97c82,,"[""comma""]",0,[0.05119999998811409],65,0,65,0,1
,,,,,,6123ba76985dceaee3138132,,,,,,6123ba76985dceaee3138132,Kobieta,24,2021-09-06_19h19.58.705,rantool2,2021.1.4,Win32,60.0132029,6135e006383e6ea6c3d06a28,61364da4ba8f13fa00e97c82,,"[""period""]",0,[0.08780000001195276],66,0,66,0,1
,,,,,,6123ba76985dceaee3138132,,,,,,6123ba76985dceaee3138132,Kobieta,24,2021-09-06_19h19.58.705,rantool2,2021.1.4,Win32,60.0132029,6135e006383e6ea6c3d06a28,61364da4ba8f13fa00e97c82,,"[""period""]",0,[0.23319999998807361],67,0,67,0,1
,,,,,,6123ba76985dceaee3138132,,,,,,6123ba76985dceaee3138132,Kobieta,24,2021-09-06_19h19.58.705,rantool2,2021.1.4,Win32,60.0132029,6135e006383e6ea6c3d06a28,61364da4ba8f13fa00e97c82,,"[""comma""]",0,[0.22320000004771146],68,0,68,0,1
,,,,,,6123ba76985dceaee3138132,,,,,,6123ba76985dceaee3138132,Kobieta,24,2021-09-06_19h19.58.705,rantool2,2021.1.4,Win32,60.0132029,6135e006383e6ea6c3d06a28,61364da4ba8f13fa00e97c82,,"[""comma""]",0,[0.12049999999999272],69,0,69,0,1
,,,,,,6123ba76985dceaee3138132,,,,,,6123ba76985dceaee3138132,Kobieta,24,2021-09-06_19h19.58.705,rantool2,2021.1.4,Win32,60.0132029,6135e006383e6ea6c3d06a28,61364da4ba8f13fa00e97c82,,"[""comma"",""period""]",0,"[0.1991000000238614,1.9361000000238846]",70,0,70,0,1
,,,,,,6123ba76985dceaee3138132,,,,,,6123ba76985dceaee3138132,Kobieta,24,2021-09-06_19h19.58.705,rantool2,2021.1.4,Win32,60.0132029,6135e006383e6ea6c3d06a28,61364da4ba8f13fa00e97c82,,"[""period""]",0,[0.5396000000239383],71,0,71,0,1
,,,,,,6123ba76985dceaee3138132,,,,,,6123ba76985dceaee3138132,Kobieta,24,2021-09-06_19h19.58.705,rantool2,2021.1.4,Win32,60.0132029,6135e006383e6ea6c3d06a28,61364da4ba8f13fa00e97c82,,"[""comma""]",0,[0.2508000000119637],72,0,72,0,1
,,,,,,6123ba76985dceaee3138132,,,,,,6123ba76985dceaee3138132,Kobieta,24,2021-09-06_19h19.58.705,rantool2,2021.1.4,Win32,60.0132029,6135e006383e6ea6c3d06a28,61364da4ba8f13fa00e97c82,,"[""period""]",0,[0.1192999999523181],73,0,73,0,1
,,,,,,6123ba76985dceaee3138132,,,,,,6123ba76985dceaee3138132,Kobieta,24,2021-09-06_19h19.58.705,rantool2,2021.1.4,Win32,60.0132029,6135e006383e6ea6c3d06a28,61364da4ba8f13fa00e97c82,,"[""comma""]",0,[0.24019999998802177],74,0,74,0,1
,,,,,,6123ba76985dceaee3138132,,,,,,6123ba76985dceaee3138132,Kobieta,24,2021-09-06_19h19.58.705,rantool2,2021.1.4,Win32,60.0132029,6135e006383e6ea6c3d06a28,61364da4ba8f13fa00e97c82,,"[""comma""]",0,[0.234599999964189],75,0,75,0,1
,,,,,,6123ba76985dceaee3138132,,,,,,6123ba76985dceaee3138132,Kobieta,24,2021-09-06_19h19.58.705,rantool2,2021.1.4,Win32,60.0132029,6135e006383e6ea6c3d06a28,61364da4ba8f13fa00e97c82,,"[""comma""]",0,[0.23619999998811636],76,0,76,0,1
,,,,,,6123ba76985dceaee3138132,,,,,,6123ba76985dceaee3138132,Kobieta,24,2021-09-06_19h19.58.705,rantool2,2021.1.4,Win32,60.0132029,6135e006383e6ea6c3d06a28,61364da4ba8f13fa00e97c82,,"[""comma""]",0,[0.22119999998813],77,0,77,0,1
,,,,,,6123ba76985dceaee3138132,,,,,,6123ba76985dceaee3138132,Kobieta,24,2021-09-06_19h19.58.705,rantool2,2021.1.4,Win32,60.0132029,6135e006383e6ea6c3d06a28,61364da4ba8f13fa00e97c82,,"[""comma""]",0,[0.19899999999995543],78,0,78,0,1
,,,,,,6123ba76985dceaee3138132,,,,,,6123ba76985dceaee3138132,Kobieta,24,2021-09-06_19h19.58.705,rantool2,2021.1.4,Win32,60.0132029,6135e006383e6ea6c3d06a28,61364da4ba8f13fa00e97c82,,"[""comma""]",0,[0.23250000000007276],79,0,79,0,1
,,,,,,6123ba76985dceaee3138132,,,,,,6123ba76985dceaee3138132,Kobieta,24,2021-09-06_19h19.58.705,rantool2,2021.1.4,Win32,60.0132029,6135e006383e6ea6c3d06a28,61364da4ba8f13fa00e97c82,,"[""period""]",0,[0.08559999996430179],80,0,80,0,1
,,,,,,6123ba76985dceaee3138132,,,,,,6123ba76985dceaee3138132,Kobieta,24,2021-09-06_19h19.58.705,rantool2,2021.1.4,Win32,60.0132029,6135e006383e6ea6c3d06a28,61364da4ba8f13fa00e97c82,,"[""comma""]",0,[0.24869999998816184],81,0,81,0,1
,,,,,,6123ba76985dceaee3138132,,,,,,6123ba76985dceaee3138132,Kobieta,24,2021-09-06_19h19.58.705,rantool2,2021.1.4,Win32,60.0132029,6135e006383e6ea6c3d06a28,61364da4ba8f13fa00e97c82,,"[""period""]",0,[0.23939999997617178],82,0,82,0,1
,,,,,,6123ba76985dceaee3138132,,,,,,6123ba76985dceaee3138132,Kobieta,24,2021-09-06_19h19.58.705,rantool2,2021.1.4,Win32,60.0132029,6135e006383e6ea6c3d06a28,61364da4ba8f13fa00e97c82,,"[""period""]",0,[0.15919999998811818],83,0,83,0,1
,,,,,,6123ba76985dceaee3138132,,,,,,6123ba76985dceaee3138132,Kobieta,24,2021-09-06_19h19.58.705,rantool2,2021.1.4,Win32,60.0132029,6135e006383e6ea6c3d06a28,61364da4ba8f13fa00e97c82,,"[""period""]",0,[0.12150000000008276],84,0,84,0,1
,,,,,,6123ba76985dceaee3138132,,,,,,6123ba76985dceaee3138132,Kobieta,24,2021-09-06_19h19.58.705,rantool2,2021.1.4,Win32,60.0132029,6135e006383e6ea6c3d06a28,61364da4ba8f13fa00e97c82,,"[""period""]",0,[0.03759999996418628],85,0,85,0,1
,,,,,,6123ba76985dceaee3138132,,,,,,6123ba76985dceaee3138132,Kobieta,24,2021-09-06_19h19.58.705,rantool2,2021.1.4,Win32,60.0132029,6135e006383e6ea6c3d06a28,61364da4ba8f13fa00e97c82,,"[""comma""]",0,[0.042699999988144555],86,0,86,0,1
,,,,,,6123ba76985dceaee3138132,,,,,,6123ba76985dceaee3138132,Kobieta,24,2021-09-06_19h19.58.705,rantool2,2021.1.4,Win32,60.0132029,6135e006383e6ea6c3d06a28,61364da4ba8f13fa00e97c82,,"[""period""]",0,[0.09050000000002001],87,0,87,0,1
,,,,,,6123ba76985dceaee3138132,,,,,,6123ba76985dceaee3138132,Kobieta,24,2021-09-06_19h19.58.705,rantool2,2021.1.4,Win32,60.0132029,6135e006383e6ea6c3d06a28,61364da4ba8f13fa00e97c82,,"[""comma""]",0,[0.11589999997613631],88,0,88,0,1
,,,,,,6123ba76985dceaee3138132,,,,,,6123ba76985dceaee3138132,Kobieta,24,2021-09-06_19h19.58.705,rantool2,2021.1.4,Win32,60.0132029,6135e006383e6ea6c3d06a28,61364da4ba8f13fa00e97c82,,"[""period""]",0,[0.09860000002379365],89,0,89,0,1
,,,,,,6123ba76985dceaee3138132,,,,,,6123ba76985dceaee3138132,Kobieta,24,2021-09-06_19h19.58.705,rantool2,2021.1.4,Win32,60.0132029,6135e006383e6ea6c3d06a28,61364da4ba8f13fa00e97c82,,"[""period""]",0,[0.2231999999880827],90,0,90,0,1
,,,,,,6123ba76985dceaee3138132,,,,,,6123ba76985dceaee3138132,Kobieta,24,2021-09-06_19h19.58.705,rantool2,2021.1.4,Win32,60.0132029,6135e006383e6ea6c3d06a28,61364da4ba8f13fa00e97c82,,"[""comma""]",0,[0.15690000003576188],91,0,91,0,1
,,,,,,6123ba76985dceaee3138132,,,,,,6123ba76985dceaee3138132,Kobieta,24,2021-09-06_19h19.58.705,rantool2,2021.1.4,Win32,60.0132029,6135e006383e6ea6c3d06a28,61364da4ba8f13fa00e97c82,,"[""comma""]",0,[0.23669999998810454],92,0,92,0,1
,,,,,,6123ba76985dceaee3138132,,,,,,6123ba76985dceaee3138132,Kobieta,24,2021-09-06_19h19.58.705,rantool2,2021.1.4,Win32,60.0132029,6135e006383e6ea6c3d06a28,61364da4ba8f13fa00e97c82,,"[""period""]",0,[0.1223999999760963],93,0,93,0,1
,,,,,,6123ba76985dceaee3138132,,,,,,6123ba76985dceaee3138132,Kobieta,24,2021-09-06_19h19.58.705,rantool2,2021.1.4,Win32,60.0132029,6135e006383e6ea6c3d06a28,61364da4ba8f13fa00e97c82,,"[""comma""]",0,[0.17330000001197732],94,0,94,0,1
,,,,,,6123ba76985dceaee3138132,,,,,,6123ba76985dceaee3138132,Kobieta,24,2021-09-06_19h19.58.705,rantool2,2021.1.4,Win32,60.0132029,6135e006383e6ea6c3d06a28,61364da4ba8f13fa00e97c82,,"[""period""]",0,[0.0193999999761445],95,0,95,0,1
,,,,,,6123ba76985dceaee3138132,,,,,,6123ba76985dceaee3138132,Kobieta,24,2021-09-06_19h19.58.705,rantool2,2021.1.4,Win32,60.0132029,6135e006383e6ea6c3d06a28,61364da4ba8f13fa00e97c82,,"[""comma"",""period""]",0,"[0.08330000001194549,1.956800000011981]",96,0,96,0,1
,,,,,,6123ba76985dceaee3138132,,,,,,6123ba76985dceaee3138132,Kobieta,24,2021-09-06_19h19.58.705,rantool2,2021.1.4,Win32,60.0132029,6135e006383e6ea6c3d06a28,61364da4ba8f13fa00e97c82,,"[""period""]",0,[1.9491000000238046],97,0,97,0,1
,,,,,,6123ba76985dceaee3138132,,,,,,6123ba76985dceaee3138132,Kobieta,24,2021-09-06_19h19.58.705,rantool2,2021.1.4,Win32,60.0132029,6135e006383e6ea6c3d06a28,61364da4ba8f13fa00e97c82,,0,0,,98,0,98,0,1
,,,,,,6123ba76985dceaee3138132,,,,,,6123ba76985dceaee3138132,Kobieta,24,2021-09-06_19h19.58.705,rantool2,2021.1.4,Win32,60.0132029,6135e006383e6ea6c3d06a28,61364da4ba8f13fa00e97c82,,"[""comma""]",0,[0.02069999998809635],99,0,99,0,1
,,,,,,6123ba76985dceaee3138132,,,,,,6123ba76985dceaee3138132,Kobieta,24,2021-09-06_19h19.58.705,rantool2,2021.1.4,Win32,60.0132029,6135e006383e6ea6c3d06a28,61364da4ba8f13fa00e97c82,,"[""period""]",0,[0.05889999997611994],100,0,100,0,1
,,,,,,6123ba76985dceaee3138132,,,,,,6123ba76985dceaee3138132,Kobieta,24,2021-09-06_19h19.58.705,rantool2,2021.1.4,Win32,60.0132029,6135e006383e6ea6c3d06a28,61364da4ba8f13fa00e97c82,,"[""comma""]",0,[0.023600000023861867],101,0,101,0,1
,,,,,,6123ba76985dceaee3138132,,,,,,6123ba76985dceaee3138132,Kobieta,24,2021-09-06_19h19.58.705,rantool2,2021.1.4,Win32,60.0132029,6135e006383e6ea6c3d06a28,61364da4ba8f13fa00e97c82,,"[""comma""]",0,[0.004300000011880911],102,0,102,0,1
,,,,,,6123ba76985dceaee3138132,,,,,,6123ba76985dceaee3138132,Kobieta,24,2021-09-06_19h19.58.705,rantool2,2021.1.4,Win32,60.0132029,6135e006383e6ea6c3d06a28,61364da4ba8f13fa00e97c82,,"[""comma""]",0,[0.25130000001183816],103,0,103,0,1
,,,,,,6123ba76985dceaee3138132,,,,,,6123ba76985dceaee3138132,Kobieta,24,2021-09-06_19h19.58.705,rantool2,2021.1.4,Win32,60.0132029,6135e006383e6ea6c3d06a28,61364da4ba8f13fa00e97c82,,"[""comma""]",0,[0.2561999999879845],104,0,104,0,1
,,,,,,6123ba76985dceaee3138132,,,,,,6123ba76985dceaee3138132,Kobieta,24,2021-09-06_19h19.58.705,rantool2,2021.1.4,Win32,60.0132029,6135e006383e6ea6c3d06a28,61364da4ba8f13fa00e97c82,,"[""comma""]",0,[0.2503000000118618],105,0,105,0,1
,,,,,,6123ba76985dceaee3138132,,,,,,6123ba76985dceaee3138132,Kobieta,24,2021-09-06_19h19.58.705,rantool2,2021.1.4,Win32,60.0132029,6135e006383e6ea6c3d06a28,61364da4ba8f13fa00e97c82,,"[""period""]",0,[0.24880000001189728],106,0,106,0,1
,,,,,,6123ba76985dceaee3138132,,,,,,6123ba76985dceaee3138132,Kobieta,24,2021-09-06_19h19.58.705,rantool2,2021.1.4,Win32,60.0132029,6135e006383e6ea6c3d06a28,61364da4ba8f13fa00e97c82,,"[""period""]",0,[0.2311999999881209],107,0,107,0,1
,,,,,,6123ba76985dceaee3138132,,,,,,6123ba76985dceaee3138132,Kobieta,24,2021-09-06_19h19.58.705,rantool2,2021.1.4,Win32,60.0132029,6135e006383e6ea6c3d06a28,61364da4ba8f13fa00e97c82,,"[""comma""]",0,[0.2862999999523481],108,0,108,0,1
,,,,,,6123ba76985dceaee3138132,,,,,,6123ba76985dceaee3138132,Kobieta,24,2021-09-06_19h19.58.705,rantool2,2021.1.4,Win32,60.0132029,6135e006383e6ea6c3d06a28,61364da4ba8f13fa00e97c82,,"[""period""]",0,[0.23299999999994725],109,0,109,0,1
,,,,,,6123ba76985dceaee3138132,,,,,,6123ba76985dceaee3138132,Kobieta,24,2021-09-06_19h19.58.705,rantool2,2021.1.4,Win32,60.0132029,6135e006383e6ea6c3d06a28,61364da4ba8f13fa00e97c82,,"[""period""]",0,[0.007600000023785469],110,0,110,0,1
,,,,,,6123ba76985dceaee3138132,,,,,,6123ba76985dceaee3138132,Kobieta,24,2021-09-06_19h19.58.705,rantool2,2021.1.4,Win32,60.0132029,6135e006383e6ea6c3d06a28,61364da4ba8f13fa00e97c82,,"[""period""]",0,[0.22309999996423358],111,0,111,0,1
,,,,,,6123ba76985dceaee3138132,,,,,,6123ba76985dceaee3138132,Kobieta,24,2021-09-06_19h19.58.705,rantool2,2021.1.4,Win32,60.0132029,6135e006383e6ea6c3d06a28,61364da4ba8f13fa00e97c82,,"[""period""]",0,[0.23909999996430997],112,0,112,0,1
,,,,,,6123ba76985dceaee3138132,,,,,,6123ba76985dceaee3138132,Kobieta,24,2021-09-06_19h19.58.705,rantool2,2021.1.4,Win32,60.0132029,6135e006383e6ea6c3d06a28,61364da4ba8f13fa00e97c82,,"[""comma""]",0,[0.21560000002375546],113,0,113,0,1
,,,,,,6123ba76985dceaee3138132,,,,,,6123ba76985dceaee3138132,Kobieta,24,2021-09-06_19h19.58.705,rantool2,2021.1.4,Win32,60.0132029,6135e006383e6ea6c3d06a28,61364da4ba8f13fa00e97c82,,"[""period""]",0,[0.08249999999998181],114,0,114,0,1
,,,,,,6123ba76985dceaee3138132,,,,,,6123ba76985dceaee3138132,Kobieta,24,2021-09-06_19h19.58.705,rantool2,2021.1.4,Win32,60.0132029,6135e006383e6ea6c3d06a28,61364da4ba8f13fa00e97c82,,"[""period""]",0,[0.041400000035764606],115,0,115,0,1
,,,,,,6123ba76985dceaee3138132,,,,,,6123ba76985dceaee3138132,Kobieta,24,2021-09-06_19h19.58.705,rantool2,2021.1.4,Win32,60.0132029,6135e006383e6ea6c3d06a28,61364da4ba8f13fa00e97c82,,"[""comma""]",0,[0.037100000023883695],116,0,116,0,1
,,,,,,6123ba76985dceaee3138132,,,,,,6123ba76985dceaee3138132,Kobieta,24,2021-09-06_19h19.58.705,rantool2,2021.1.4,Win32,60.0132029,6135e006383e6ea6c3d06a28,61364da4ba8f13fa00e97c82,,"[""comma""]",0,[0.20759999996425904],117,0,117,0,1
,,,,,,6123ba76985dceaee3138132,,,,,,6123ba76985dceaee3138132,Kobieta,24,2021-09-06_19h19.58.705,rantool2,2021.1.4,Win32,60.0132029,6135e006383e6ea6c3d06a28,61364da4ba8f13fa00e97c82,,"[""period""]",0,[0.22380000001192002],118,0,118,0,1
,,,,,,6123ba76985dceaee3138132,,,,,,6123ba76985dceaee3138132,Kobieta,24,2021-09-06_19h19.58.705,rantool2,2021.1.4,Win32,60.0132029,6135e006383e6ea6c3d06a28,61364da4ba8f13fa00e97c82,,"[""comma""]",0,[0.23790000003577916],119,0,119,0,1
