key_resp_7.keys,key_resp_7.rt,trials_2.thisRepN,trials_2.thisTrialN,trials_2.thisN,trials_2.thisIndex,trials_2.ran,id,series_0,series_1,acss_0,acss_1,comparison,id*,Płeć*,Wiek*,date,expName,psychopyVersion,OS,frameRate,STUDY_ID,SESSION_ID,key_resp_5.keys,key_resp_5.corr,key_resp_5.rt,trials.thisRepN,trials.thisTrialN,trials.thisN,trials.thisIndex,trials.ran
j,3.6296,0,0,0,59,1,6131532c91b1750f51a9cb0a,RRRORRO,RRRORRR,21.56657303,20.89823192,series_0,6131532c91b1750f51a9cb0a,Mężczyzna,19,2021-09-06_19h16.45.870,rantool2,2021.1.4,Win32,59.97001499,6135e006383e6ea6c3d06a28,61364cd405d6a61e6afda5a5,,,,,,,,
f,4.1276,0,1,1,41,1,6131532c91b1750f51a9cb0a,ROROORO,ROROORR,20.42602454,21.71443381,series_1,6131532c91b1750f51a9cb0a,Mężczyzna,19,2021-09-06_19h16.45.870,rantool2,2021.1.4,Win32,59.97001499,6135e006383e6ea6c3d06a28,61364cd405d6a61e6afda5a5,,,,,,,,
f,1.9749,0,2,2,42,1,6131532c91b1750f51a9cb0a,ROROROO,ROROROR,20.39515459,19.8361834,series_0,6131532c91b1750f51a9cb0a,Mężczyzna,19,2021-09-06_19h16.45.870,rantool2,2021.1.4,Win32,59.97001499,6135e006383e6ea6c3d06a28,61364cd405d6a61e6afda5a5,,,,,,,,
j,1.5802,0,3,3,54,1,6131532c91b1750f51a9cb0a,RRORROO,RRORROR,21.55250791,20.9984461,series_0,6131532c91b1750f51a9cb0a,Mężczyzna,19,2021-09-06_19h16.45.870,rantool2,2021.1.4,Win32,59.97001499,6135e006383e6ea6c3d06a28,61364cd405d6a61e6afda5a5,,,,,,,,
f,1.295,0,4,4,26,1,6131532c91b1750f51a9cb0a,ORROROO,ORROROR,22.02732763,21.71443381,series_0,6131532c91b1750f51a9cb0a,Mężczyzna,19,2021-09-06_19h16.45.870,rantool2,2021.1.4,Win32,59.97001499,6135e006383e6ea6c3d06a28,61364cd405d6a61e6afda5a5,,,,,,,,
f,1.2963,0,5,5,15,1,6131532c91b1750f51a9cb0a,OORRRRO,OORRRRR,22.10108823,21.74922619,series_0,6131532c91b1750f51a9cb0a,Mężczyzna,19,2021-09-06_19h16.45.870,rantool2,2021.1.4,Win32,59.97001499,6135e006383e6ea6c3d06a28,61364cd405d6a61e6afda5a5,,,,,,,,
f,1.2507,0,6,6,10,1,6131532c91b1750f51a9cb0a,OOROROO,OOROROR,21.31236711,21.07490964,series_0,6131532c91b1750f51a9cb0a,Mężczyzna,19,2021-09-06_19h16.45.870,rantool2,2021.1.4,Win32,59.97001499,6135e006383e6ea6c3d06a28,61364cd405d6a61e6afda5a5,,,,,,,,
f,2.3951,0,7,7,5,1,6131532c91b1750f51a9cb0a,OOORORO,OOORORR,20.87963819,21.9921709,series_1,6131532c91b1750f51a9cb0a,Mężczyzna,19,2021-09-06_19h16.45.870,rantool2,2021.1.4,Win32,59.97001499,6135e006383e6ea6c3d06a28,61364cd405d6a61e6afda5a5,,,,,,,,
f,1.5643,0,8,8,2,1,6131532c91b1750f51a9cb0a,OOOOROO,OOOOROR,20.43051175,21.02936224,series_1,6131532c91b1750f51a9cb0a,Mężczyzna,19,2021-09-06_19h16.45.870,rantool2,2021.1.4,Win32,59.97001499,6135e006383e6ea6c3d06a28,61364cd405d6a61e6afda5a5,,,,,,,,
f,2.9753,0,9,9,25,1,6131532c91b1750f51a9cb0a,ORROORO,ORROORR,21.79500819,22.61624387,series_1,6131532c91b1750f51a9cb0a,Mężczyzna,19,2021-09-06_19h16.45.870,rantool2,2021.1.4,Win32,59.97001499,6135e006383e6ea6c3d06a28,61364cd405d6a61e6afda5a5,,,,,,,,
f,1.553,0,10,10,14,1,6131532c91b1750f51a9cb0a,OORRROO,OORRROR,22.24142883,22.16977179,series_0,6131532c91b1750f51a9cb0a,Mężczyzna,19,2021-09-06_19h16.45.870,rantool2,2021.1.4,Win32,59.97001499,6135e006383e6ea6c3d06a28,61364cd405d6a61e6afda5a5,,,,,,,,
f,3.7213,0,11,11,53,1,6131532c91b1750f51a9cb0a,RRORORO,RRORORR,20.71309134,21.90565814,series_1,6131532c91b1750f51a9cb0a,Mężczyzna,19,2021-09-06_19h16.45.870,rantool2,2021.1.4,Win32,59.97001499,6135e006383e6ea6c3d06a28,61364cd405d6a61e6afda5a5,,,,,,,,
j,1.506,0,12,12,63,1,6131532c91b1750f51a9cb0a,RRRRRRO,RRRRRRR,21.35278725,19.62521613,series_0,6131532c91b1750f51a9cb0a,Mężczyzna,19,2021-09-06_19h16.45.870,rantool2,2021.1.4,Win32,59.97001499,6135e006383e6ea6c3d06a28,61364cd405d6a61e6afda5a5,,,,,,,,
f,2.7372,0,13,13,19,1,6131532c91b1750f51a9cb0a,OROORRO,OROORRR,21.73568164,22.11181017,series_1,6131532c91b1750f51a9cb0a,Mężczyzna,19,2021-09-06_19h16.45.870,rantool2,2021.1.4,Win32,59.97001499,6135e006383e6ea6c3d06a28,61364cd405d6a61e6afda5a5,,,,,,,,
j,0.5072,0,14,14,4,1,6131532c91b1750f51a9cb0a,OOOROOO,OOOROOR,19.91402015,21.21223021,series_1,6131532c91b1750f51a9cb0a,Mężczyzna,19,2021-09-06_19h16.45.870,rantool2,2021.1.4,Win32,59.97001499,6135e006383e6ea6c3d06a28,61364cd405d6a61e6afda5a5,,,,,,,,
f,0.4685,0,15,15,61,1,6131532c91b1750f51a9cb0a,RRRRORO,RRRRORR,21.81333602,21.17347734,series_0,6131532c91b1750f51a9cb0a,Mężczyzna,19,2021-09-06_19h16.45.870,rantool2,2021.1.4,Win32,59.97001499,6135e006383e6ea6c3d06a28,61364cd405d6a61e6afda5a5,,,,,,,,
f,2.3101,0,16,16,6,1,6131532c91b1750f51a9cb0a,OOORROO,OOORROR,21.12383932,21.38562617,series_1,6131532c91b1750f51a9cb0a,Mężczyzna,19,2021-09-06_19h16.45.870,rantool2,2021.1.4,Win32,59.97001499,6135e006383e6ea6c3d06a28,61364cd405d6a61e6afda5a5,,,,,,,,
f,1.4574,0,17,17,3,1,6131532c91b1750f51a9cb0a,OOOORRO,OOOORRR,20.90986523,21.74922619,series_1,6131532c91b1750f51a9cb0a,Mężczyzna,19,2021-09-06_19h16.45.870,rantool2,2021.1.4,Win32,59.97001499,6135e006383e6ea6c3d06a28,61364cd405d6a61e6afda5a5,,,,,,,,
j,0.8559,0,18,18,40,1,6131532c91b1750f51a9cb0a,ROROOOO,ROROOOR,20.87963819,21.37121559,series_1,6131532c91b1750f51a9cb0a,Mężczyzna,19,2021-09-06_19h16.45.870,rantool2,2021.1.4,Win32,59.97001499,6135e006383e6ea6c3d06a28,61364cd405d6a61e6afda5a5,,,,,,,,
f,0.8343,0,19,19,27,1,6131532c91b1750f51a9cb0a,ORRORRO,ORRORRR,21.55250791,22.2428857,series_1,6131532c91b1750f51a9cb0a,Mężczyzna,19,2021-09-06_19h16.45.870,rantool2,2021.1.4,Win32,59.97001499,6135e006383e6ea6c3d06a28,61364cd405d6a61e6afda5a5,,,,,,,,
f,0.9279,0,20,20,52,1,6131532c91b1750f51a9cb0a,RROROOO,RROROOR,22.18365867,22.11097995,series_0,6131532c91b1750f51a9cb0a,Mężczyzna,19,2021-09-06_19h16.45.870,rantool2,2021.1.4,Win32,59.97001499,6135e006383e6ea6c3d06a28,61364cd405d6a61e6afda5a5,,,,,,,,
j,0.5025,0,21,21,37,1,6131532c91b1750f51a9cb0a,ROORORO,ROORORR,20.42602454,21.57657071,series_1,6131532c91b1750f51a9cb0a,Mężczyzna,19,2021-09-06_19h16.45.870,rantool2,2021.1.4,Win32,59.97001499,6135e006383e6ea6c3d06a28,61364cd405d6a61e6afda5a5,,,,,,,,
f,2.0168,0,22,22,33,1,6131532c91b1750f51a9cb0a,ROOOORO,ROOOORR,20.83779602,22.03072203,series_1,6131532c91b1750f51a9cb0a,Mężczyzna,19,2021-09-06_19h16.45.870,rantool2,2021.1.4,Win32,59.97001499,6135e006383e6ea6c3d06a28,61364cd405d6a61e6afda5a5,,,,,,,,
j,2.5458,0,23,23,47,1,6131532c91b1750f51a9cb0a,RORRRRO,RORRRRR,21.81333602,21.02936224,series_0,6131532c91b1750f51a9cb0a,Mężczyzna,19,2021-09-06_19h16.45.870,rantool2,2021.1.4,Win32,59.97001499,6135e006383e6ea6c3d06a28,61364cd405d6a61e6afda5a5,,,,,,,,
f,2.5366,0,24,24,8,1,6131532c91b1750f51a9cb0a,OOROOOO,OOROOOR,19.91402015,20.89823192,series_1,6131532c91b1750f51a9cb0a,Mężczyzna,19,2021-09-06_19h16.45.870,rantool2,2021.1.4,Win32,59.97001499,6135e006383e6ea6c3d06a28,61364cd405d6a61e6afda5a5,,,,,,,,
j,2.8336,0,25,25,11,1,6131532c91b1750f51a9cb0a,OORORRO,OORORRR,22.18365867,22.6797523,series_1,6131532c91b1750f51a9cb0a,Mężczyzna,19,2021-09-06_19h16.45.870,rantool2,2021.1.4,Win32,59.97001499,6135e006383e6ea6c3d06a28,61364cd405d6a61e6afda5a5,,,,,,,,
f,2.1033,0,26,26,49,1,6131532c91b1750f51a9cb0a,RROOORO,RROOORR,21.76276513,22.53364006,series_1,6131532c91b1750f51a9cb0a,Mężczyzna,19,2021-09-06_19h16.45.870,rantool2,2021.1.4,Win32,59.97001499,6135e006383e6ea6c3d06a28,61364cd405d6a61e6afda5a5,,,,,,,,
j,3.5216,0,27,27,12,1,6131532c91b1750f51a9cb0a,OORROOO,OORROOR,21.30250474,22.02786418,series_1,6131532c91b1750f51a9cb0a,Mężczyzna,19,2021-09-06_19h16.45.870,rantool2,2021.1.4,Win32,59.97001499,6135e006383e6ea6c3d06a28,61364cd405d6a61e6afda5a5,,,,,,,,
f,2.2172,0,28,28,17,1,6131532c91b1750f51a9cb0a,OROOORO,OROOORR,21.03750787,22.12173012,series_1,6131532c91b1750f51a9cb0a,Mężczyzna,19,2021-09-06_19h16.45.870,rantool2,2021.1.4,Win32,59.97001499,6135e006383e6ea6c3d06a28,61364cd405d6a61e6afda5a5,,,,,,,,
f,2.577,0,29,29,60,1,6131532c91b1750f51a9cb0a,RRRROOO,RRRROOR,22.10108823,22.15934078,series_1,6131532c91b1750f51a9cb0a,Mężczyzna,19,2021-09-06_19h16.45.870,rantool2,2021.1.4,Win32,59.97001499,6135e006383e6ea6c3d06a28,61364cd405d6a61e6afda5a5,,,,,,,,
f,1.0554,0,30,30,48,1,6131532c91b1750f51a9cb0a,RROOOOO,RROOOOR,20.90986523,22.15934078,series_1,6131532c91b1750f51a9cb0a,Mężczyzna,19,2021-09-06_19h16.45.870,rantool2,2021.1.4,Win32,59.97001499,6135e006383e6ea6c3d06a28,61364cd405d6a61e6afda5a5,,,,,,,,
j,2.2338,0,31,31,51,1,6131532c91b1750f51a9cb0a,RROORRO,RROORRR,21.89852628,22.02786418,series_1,6131532c91b1750f51a9cb0a,Mężczyzna,19,2021-09-06_19h16.45.870,rantool2,2021.1.4,Win32,59.97001499,6135e006383e6ea6c3d06a28,61364cd405d6a61e6afda5a5,,,,,,,,
f,1.7717,0,32,32,30,1,6131532c91b1750f51a9cb0a,ORRRROO,ORRRROR,22.46748491,22.03072203,series_0,6131532c91b1750f51a9cb0a,Mężczyzna,19,2021-09-06_19h16.45.870,rantool2,2021.1.4,Win32,59.97001499,6135e006383e6ea6c3d06a28,61364cd405d6a61e6afda5a5,,,,,,,,
f,1.869,0,33,33,31,1,6131532c91b1750f51a9cb0a,ORRRRRO,ORRRRRR,22.16413392,20.74050628,series_0,6131532c91b1750f51a9cb0a,Mężczyzna,19,2021-09-06_19h16.45.870,rantool2,2021.1.4,Win32,59.97001499,6135e006383e6ea6c3d06a28,61364cd405d6a61e6afda5a5,,,,,,,,
j,1.9133,0,34,34,39,1,6131532c91b1750f51a9cb0a,ROORRRO,ROORRRR,21.82425538,21.38562617,series_0,6131532c91b1750f51a9cb0a,Mężczyzna,19,2021-09-06_19h16.45.870,rantool2,2021.1.4,Win32,59.97001499,6135e006383e6ea6c3d06a28,61364cd405d6a61e6afda5a5,,,,,,,,
j,1.8639,0,35,35,38,1,6131532c91b1750f51a9cb0a,ROORROO,ROORROR,21.79500819,21.36812781,series_0,6131532c91b1750f51a9cb0a,Mężczyzna,19,2021-09-06_19h16.45.870,rantool2,2021.1.4,Win32,59.97001499,6135e006383e6ea6c3d06a28,61364cd405d6a61e6afda5a5,,,,,,,,
f,1.8049,0,36,36,46,1,6131532c91b1750f51a9cb0a,RORRROO,RORRROR,22.00300695,21.24781509,series_0,6131532c91b1750f51a9cb0a,Mężczyzna,19,2021-09-06_19h16.45.870,rantool2,2021.1.4,Win32,59.97001499,6135e006383e6ea6c3d06a28,61364cd405d6a61e6afda5a5,,,,,,,,
f,1.8068,0,37,37,13,1,6131532c91b1750f51a9cb0a,OORRORO,OORRORR,21.66733484,22.11181017,series_1,6131532c91b1750f51a9cb0a,Mężczyzna,19,2021-09-06_19h16.45.870,rantool2,2021.1.4,Win32,59.97001499,6135e006383e6ea6c3d06a28,61364cd405d6a61e6afda5a5,,,,,,,,
j,1.5931,0,38,38,0,1,6131532c91b1750f51a9cb0a,OOOOOOO,OOOOOOR,18.52739004,19.62521613,series_1,6131532c91b1750f51a9cb0a,Mężczyzna,19,2021-09-06_19h16.45.870,rantool2,2021.1.4,Win32,59.97001499,6135e006383e6ea6c3d06a28,61364cd405d6a61e6afda5a5,,,,,,,,
f,1.9005,0,39,39,28,1,6131532c91b1750f51a9cb0a,ORRROOO,ORRROOR,22.24142883,22.53364006,series_1,6131532c91b1750f51a9cb0a,Mężczyzna,19,2021-09-06_19h16.45.870,rantool2,2021.1.4,Win32,59.97001499,6135e006383e6ea6c3d06a28,61364cd405d6a61e6afda5a5,,,,,,,,
f,1.7064,0,40,40,57,1,6131532c91b1750f51a9cb0a,RRROORO,RRROORR,21.82425538,22.07102821,series_1,6131532c91b1750f51a9cb0a,Mężczyzna,19,2021-09-06_19h16.45.870,rantool2,2021.1.4,Win32,59.97001499,6135e006383e6ea6c3d06a28,61364cd405d6a61e6afda5a5,,,,,,,,
j,1.8449,0,41,41,18,1,6131532c91b1750f51a9cb0a,OROOROO,OROOROR,20.84860893,21.22513037,series_1,6131532c91b1750f51a9cb0a,Mężczyzna,19,2021-09-06_19h16.45.870,rantool2,2021.1.4,Win32,59.97001499,6135e006383e6ea6c3d06a28,61364cd405d6a61e6afda5a5,,,,,,,,
f,1.9466,0,42,42,1,1,6131532c91b1750f51a9cb0a,OOOOORO,OOOOORR,19.92253567,20.74050628,series_1,6131532c91b1750f51a9cb0a,Mężczyzna,19,2021-09-06_19h16.45.870,rantool2,2021.1.4,Win32,59.97001499,6135e006383e6ea6c3d06a28,61364cd405d6a61e6afda5a5,,,,,,,,
j,1.6278,0,43,43,16,1,6131532c91b1750f51a9cb0a,OROOOOO,OROOOOR,20.43051175,21.17347734,series_1,6131532c91b1750f51a9cb0a,Mężczyzna,19,2021-09-06_19h16.45.870,rantool2,2021.1.4,Win32,59.97001499,6135e006383e6ea6c3d06a28,61364cd405d6a61e6afda5a5,,,,,,,,
f,2.0592,0,44,44,62,1,6131532c91b1750f51a9cb0a,RRRRROO,RRRRROR,22.16413392,21.27974287,series_0,6131532c91b1750f51a9cb0a,Mężczyzna,19,2021-09-06_19h16.45.870,rantool2,2021.1.4,Win32,59.97001499,6135e006383e6ea6c3d06a28,61364cd405d6a61e6afda5a5,,,,,,,,
f,1.0677,0,45,45,50,1,6131532c91b1750f51a9cb0a,RROOROO,RROOROR,21.73568164,22.02566557,series_1,6131532c91b1750f51a9cb0a,Mężczyzna,19,2021-09-06_19h16.45.870,rantool2,2021.1.4,Win32,59.97001499,6135e006383e6ea6c3d06a28,61364cd405d6a61e6afda5a5,,,,,,,,
f,0.5065,0,46,46,7,1,6131532c91b1750f51a9cb0a,OOORRRO,OOORRRR,21.6194508,21.899017,series_1,6131532c91b1750f51a9cb0a,Mężczyzna,19,2021-09-06_19h16.45.870,rantool2,2021.1.4,Win32,59.97001499,6135e006383e6ea6c3d06a28,61364cd405d6a61e6afda5a5,,,,,,,,
j,0.8604,0,47,47,35,1,6131532c91b1750f51a9cb0a,ROOORRO,ROOORRR,21.76276513,22.16977179,series_1,6131532c91b1750f51a9cb0a,Mężczyzna,19,2021-09-06_19h16.45.870,rantool2,2021.1.4,Win32,59.97001499,6135e006383e6ea6c3d06a28,61364cd405d6a61e6afda5a5,,,,,,,,
j,2.9172,0,48,48,20,1,6131532c91b1750f51a9cb0a,OROROOO,OROROOR,21.31236711,21.90565814,series_1,6131532c91b1750f51a9cb0a,Mężczyzna,19,2021-09-06_19h16.45.870,rantool2,2021.1.4,Win32,59.97001499,6135e006383e6ea6c3d06a28,61364cd405d6a61e6afda5a5,,,,,,,,
f,2.7836,0,49,49,24,1,6131532c91b1750f51a9cb0a,ORROOOO,ORROOOR,21.12383932,22.07102821,series_1,6131532c91b1750f51a9cb0a,Mężczyzna,19,2021-09-06_19h16.45.870,rantool2,2021.1.4,Win32,59.97001499,6135e006383e6ea6c3d06a28,61364cd405d6a61e6afda5a5,,,,,,,,
j,1.9376,0,50,50,58,1,6131532c91b1750f51a9cb0a,RRROROO,RRROROR,22.1285618,21.37121559,series_0,6131532c91b1750f51a9cb0a,Mężczyzna,19,2021-09-06_19h16.45.870,rantool2,2021.1.4,Win32,59.97001499,6135e006383e6ea6c3d06a28,61364cd405d6a61e6afda5a5,,,,,,,,
f,1.7044,0,51,51,34,1,6131532c91b1750f51a9cb0a,ROOOROO,ROOOROR,21.03750787,21.24781509,series_1,6131532c91b1750f51a9cb0a,Mężczyzna,19,2021-09-06_19h16.45.870,rantool2,2021.1.4,Win32,59.97001499,6135e006383e6ea6c3d06a28,61364cd405d6a61e6afda5a5,,,,,,,,
j,1.9596,0,52,52,21,1,6131532c91b1750f51a9cb0a,ORORORO,ORORORR,20.39515459,22.06781359,series_1,6131532c91b1750f51a9cb0a,Mężczyzna,19,2021-09-06_19h16.45.870,rantool2,2021.1.4,Win32,59.97001499,6135e006383e6ea6c3d06a28,61364cd405d6a61e6afda5a5,,,,,,,,
j,2.0883,0,53,53,55,1,6131532c91b1750f51a9cb0a,RRORRRO,RRORRRR,21.56657303,21.21223021,series_0,6131532c91b1750f51a9cb0a,Mężczyzna,19,2021-09-06_19h16.45.870,rantool2,2021.1.4,Win32,59.97001499,6135e006383e6ea6c3d06a28,61364cd405d6a61e6afda5a5,,,,,,,,
f,1.8609,0,54,54,36,1,6131532c91b1750f51a9cb0a,ROOROOO,ROOROOR,21.07991943,20.9984461,series_0,6131532c91b1750f51a9cb0a,Mężczyzna,19,2021-09-06_19h16.45.870,rantool2,2021.1.4,Win32,59.97001499,6135e006383e6ea6c3d06a28,61364cd405d6a61e6afda5a5,,,,,,,,
j,1.4494,0,55,55,9,1,6131532c91b1750f51a9cb0a,OOROORO,OOROORR,21.07991943,22.2428857,series_1,6131532c91b1750f51a9cb0a,Mężczyzna,19,2021-09-06_19h16.45.870,rantool2,2021.1.4,Win32,59.97001499,6135e006383e6ea6c3d06a28,61364cd405d6a61e6afda5a5,,,,,,,,
f,3.7753,0,56,56,29,1,6131532c91b1750f51a9cb0a,ORRRORO,ORRRORR,22.00300695,22.12173012,series_1,6131532c91b1750f51a9cb0a,Mężczyzna,19,2021-09-06_19h16.45.870,rantool2,2021.1.4,Win32,59.97001499,6135e006383e6ea6c3d06a28,61364cd405d6a61e6afda5a5,,,,,,,,
j,3.7895,0,57,57,44,1,6131532c91b1750f51a9cb0a,RORROOO,RORROOR,21.66733484,22.02566557,series_1,6131532c91b1750f51a9cb0a,Mężczyzna,19,2021-09-06_19h16.45.870,rantool2,2021.1.4,Win32,59.97001499,6135e006383e6ea6c3d06a28,61364cd405d6a61e6afda5a5,,,,,,,,
f,3.5132,0,58,58,45,1,6131532c91b1750f51a9cb0a,RORRORO,RORRORR,20.78182524,21.22513037,series_1,6131532c91b1750f51a9cb0a,Mężczyzna,19,2021-09-06_19h16.45.870,rantool2,2021.1.4,Win32,59.97001499,6135e006383e6ea6c3d06a28,61364cd405d6a61e6afda5a5,,,,,,,,
j,4.9341,0,59,59,32,1,6131532c91b1750f51a9cb0a,ROOOOOO,ROOOOOR,19.92253567,21.27974287,series_1,6131532c91b1750f51a9cb0a,Mężczyzna,19,2021-09-06_19h16.45.870,rantool2,2021.1.4,Win32,59.97001499,6135e006383e6ea6c3d06a28,61364cd405d6a61e6afda5a5,,,,,,,,
f,1.2502,0,60,60,43,1,6131532c91b1750f51a9cb0a,RORORRO,RORORRR,20.71309134,21.07490964,series_1,6131532c91b1750f51a9cb0a,Mężczyzna,19,2021-09-06_19h16.45.870,rantool2,2021.1.4,Win32,59.97001499,6135e006383e6ea6c3d06a28,61364cd405d6a61e6afda5a5,,,,,,,,
j,0.2595,0,61,61,22,1,6131532c91b1750f51a9cb0a,ORORROO,ORORROR,22.02732763,21.57657071,series_0,6131532c91b1750f51a9cb0a,Mężczyzna,19,2021-09-06_19h16.45.870,rantool2,2021.1.4,Win32,59.97001499,6135e006383e6ea6c3d06a28,61364cd405d6a61e6afda5a5,,,,,,,,
j,0.1837,0,62,62,23,1,6131532c91b1750f51a9cb0a,ORORRRO,ORORRRR,22.1285618,21.9921709,series_0,6131532c91b1750f51a9cb0a,Mężczyzna,19,2021-09-06_19h16.45.870,rantool2,2021.1.4,Win32,59.97001499,6135e006383e6ea6c3d06a28,61364cd405d6a61e6afda5a5,,,,,,,,
f,0.1729,0,63,63,56,1,6131532c91b1750f51a9cb0a,RRROOOO,RRROOOR,21.6194508,22.31681875,series_1,6131532c91b1750f51a9cb0a,Mężczyzna,19,2021-09-06_19h16.45.870,rantool2,2021.1.4,Win32,59.97001499,6135e006383e6ea6c3d06a28,61364cd405d6a61e6afda5a5,,,,,,,,
,,,,,,,6131532c91b1750f51a9cb0a,,,,,,6131532c91b1750f51a9cb0a,Mężczyzna,19,2021-09-06_19h16.45.870,rantool2,2021.1.4,Win32,59.97001499,6135e006383e6ea6c3d06a28,61364cd405d6a61e6afda5a5,0,,,0,0,0,0,1
,,,,,,,6131532c91b1750f51a9cb0a,,,,,,6131532c91b1750f51a9cb0a,Mężczyzna,19,2021-09-06_19h16.45.870,rantool2,2021.1.4,Win32,59.97001499,6135e006383e6ea6c3d06a28,61364cd405d6a61e6afda5a5,0,,,1,0,1,0,1
,,,,,,,6131532c91b1750f51a9cb0a,,,,,,6131532c91b1750f51a9cb0a,Mężczyzna,19,2021-09-06_19h16.45.870,rantool2,2021.1.4,Win32,59.97001499,6135e006383e6ea6c3d06a28,61364cd405d6a61e6afda5a5,"[""period""]",0,[0.18240000009535606],2,0,2,0,1
,,,,,,,6131532c91b1750f51a9cb0a,,,,,,6131532c91b1750f51a9cb0a,Mężczyzna,19,2021-09-06_19h16.45.870,rantool2,2021.1.4,Win32,59.97001499,6135e006383e6ea6c3d06a28,61364cd405d6a61e6afda5a5,"[""comma"",""period"",""comma"",""period""]",0,"[0.21350000000001046,1.4354000000953704,1.7776000001430532,1.8374000000953856]",3,0,3,0,1
,,,,,,,6131532c91b1750f51a9cb0a,,,,,,6131532c91b1750f51a9cb0a,Mężczyzna,19,2021-09-06_19h16.45.870,rantool2,2021.1.4,Win32,59.97001499,6135e006383e6ea6c3d06a28,61364cd405d6a61e6afda5a5,"[""comma"",""period""]",0,"[0.267400000095364,0.29050000000000864]",4,0,4,0,1
,,,,,,,6131532c91b1750f51a9cb0a,,,,,,6131532c91b1750f51a9cb0a,Mężczyzna,19,2021-09-06_19h16.45.870,rantool2,2021.1.4,Win32,59.97001499,6135e006383e6ea6c3d06a28,61364cd405d6a61e6afda5a5,"[""period""]",0,[0.11260000014303273],5,0,5,0,1
,,,,,,,6131532c91b1750f51a9cb0a,,,,,,6131532c91b1750f51a9cb0a,Mężczyzna,19,2021-09-06_19h16.45.870,rantool2,2021.1.4,Win32,59.97001499,6135e006383e6ea6c3d06a28,61364cd405d6a61e6afda5a5,"[""comma""]",0,[0.400299999952324],6,0,6,0,1
,,,,,,,6131532c91b1750f51a9cb0a,,,,,,6131532c91b1750f51a9cb0a,Mężczyzna,19,2021-09-06_19h16.45.870,rantool2,2021.1.4,Win32,59.97001499,6135e006383e6ea6c3d06a28,61364cd405d6a61e6afda5a5,"[""period""]",0,[0.0782000000476728],7,0,7,0,1
,,,,,,,6131532c91b1750f51a9cb0a,,,,,,6131532c91b1750f51a9cb0a,Mężczyzna,19,2021-09-06_19h16.45.870,rantool2,2021.1.4,Win32,59.97001499,6135e006383e6ea6c3d06a28,61364cd405d6a61e6afda5a5,"[""comma""]",0,[0.18199999999998795],8,0,8,0,1
,,,,,,,6131532c91b1750f51a9cb0a,,,,,,6131532c91b1750f51a9cb0a,Mężczyzna,19,2021-09-06_19h16.45.870,rantool2,2021.1.4,Win32,59.97001499,6135e006383e6ea6c3d06a28,61364cd405d6a61e6afda5a5,"[""period"",""period"",""period""]",0,"[0.21600000000000819,0.4410000000000025,0.633499999999998]",9,0,9,0,1
,,,,,,,6131532c91b1750f51a9cb0a,,,,,,6131532c91b1750f51a9cb0a,Mężczyzna,19,2021-09-06_19h16.45.870,rantool2,2021.1.4,Win32,59.97001499,6135e006383e6ea6c3d06a28,61364cd405d6a61e6afda5a5,"[""period"",""comma"",""comma""]",0,"[0.18929999995231128,1.4009000000953904,1.5750999999046371]",10,0,10,0,1
,,,,,,,6131532c91b1750f51a9cb0a,,,,,,6131532c91b1750f51a9cb0a,Mężczyzna,19,2021-09-06_19h16.45.870,rantool2,2021.1.4,Win32,59.97001499,6135e006383e6ea6c3d06a28,61364cd405d6a61e6afda5a5,"[""period"",""period"",""period""]",0,"[0.4181999998092749,0.6340999999046346,0.835099999904628]",11,0,11,0,1
,,,,,,,6131532c91b1750f51a9cb0a,,,,,,6131532c91b1750f51a9cb0a,Mężczyzna,19,2021-09-06_19h16.45.870,rantool2,2021.1.4,Win32,59.97001499,6135e006383e6ea6c3d06a28,61364cd405d6a61e6afda5a5,"[""period"",""comma"",""period"",""comma"",""period""]",0,"[0.24590000009538926,0.2750000000000057,0.45509999990463257,0.6459000000953665,0.7950000000000159]",12,0,12,0,1
,,,,,,,6131532c91b1750f51a9cb0a,,,,,,6131532c91b1750f51a9cb0a,Mężczyzna,19,2021-09-06_19h16.45.870,rantool2,2021.1.4,Win32,59.97001499,6135e006383e6ea6c3d06a28,61364cd405d6a61e6afda5a5,"[""period"",""comma"",""period"",""comma"",""period"",""comma"",""period"",""comma"",""period""]",0,"[-0.014700000047668027,0.4070000000000107,0.6674000000953697,1.0335999999046521,1.221299999952322,1.451099999904642,1.6070999999046478,1.7392000000477026,1.9752999999523126]",13,0,13,0,1
,,,,,,,6131532c91b1750f51a9cb0a,,,,,,6131532c91b1750f51a9cb0a,Mężczyzna,19,2021-09-06_19h16.45.870,rantool2,2021.1.4,Win32,59.97001499,6135e006383e6ea6c3d06a28,61364cd405d6a61e6afda5a5,"[""comma"",""period"",""comma"",""comma"",""period"",""comma""]",0,"[0.12999999999999545,0.4370999999046319,0.579900000095364,0.8952999999523286,1.3969000000953713,1.4279000000953772]",14,0,14,0,1
,,,,,,,6131532c91b1750f51a9cb0a,,,,,,6131532c91b1750f51a9cb0a,Mężczyzna,19,2021-09-06_19h16.45.870,rantool2,2021.1.4,Win32,59.97001499,6135e006383e6ea6c3d06a28,61364cd405d6a61e6afda5a5,"[""period"",""comma"",""comma""]",0,"[0.2234000000953813,1.0510000000000161,1.3710999999046294]",15,0,15,0,1
,,,,,,,6131532c91b1750f51a9cb0a,,,,,,6131532c91b1750f51a9cb0a,Mężczyzna,19,2021-09-06_19h16.45.870,rantool2,2021.1.4,Win32,59.97001499,6135e006383e6ea6c3d06a28,61364cd405d6a61e6afda5a5,"[""comma"",""comma"",""comma""]",0,"[0.24170000004770031,0.4367000000476935,0.6089000000953604]",16,0,16,0,1
,,,,,,,6131532c91b1750f51a9cb0a,,,,,,6131532c91b1750f51a9cb0a,Mężczyzna,19,2021-09-06_19h16.45.870,rantool2,2021.1.4,Win32,59.97001499,6135e006383e6ea6c3d06a28,61364cd405d6a61e6afda5a5,"[""period"",""period"",""period""]",0,"[0.09709999990462848,0.3170000000000073,0.5252000000476755]",17,0,17,0,1
,,,,,,,6131532c91b1750f51a9cb0a,,,,,,6131532c91b1750f51a9cb0a,Mężczyzna,19,2021-09-06_19h16.45.870,rantool2,2021.1.4,Win32,59.97001499,6135e006383e6ea6c3d06a28,61364cd405d6a61e6afda5a5,"[""period"",""period"",""period"",""comma""]",0,"[0.1967000000476844,0.377700000047696,0.5587999999523277,0.7959000000953722]",18,0,18,0,1
,,,,,,,6131532c91b1750f51a9cb0a,,,,,,6131532c91b1750f51a9cb0a,Mężczyzna,19,2021-09-06_19h16.45.870,rantool2,2021.1.4,Win32,59.97001499,6135e006383e6ea6c3d06a28,61364cd405d6a61e6afda5a5,"[""comma"",""comma"",""comma"",""comma""]",0,"[0.23220000004769759,0.4029000000953715,0.5937999999523242,0.77800000000002]",19,0,19,0,1
,,,,,,,6131532c91b1750f51a9cb0a,,,,,,6131532c91b1750f51a9cb0a,Mężczyzna,19,2021-09-06_19h16.45.870,rantool2,2021.1.4,Win32,59.97001499,6135e006383e6ea6c3d06a28,61364cd405d6a61e6afda5a5,"[""period"",""period"",""period"",""comma""]",0,"[0.21970000004768053,0.4000000000000057,0.6057999999523247,1.9277999999523274]",20,0,20,0,1
,,,,,,,6131532c91b1750f51a9cb0a,,,,,,6131532c91b1750f51a9cb0a,Mężczyzna,19,2021-09-06_19h16.45.870,rantool2,2021.1.4,Win32,59.97001499,6135e006383e6ea6c3d06a28,61364cd405d6a61e6afda5a5,"[""comma"",""comma"",""comma"",""period""]",0,"[0.12509999990462006,0.35509999990463825,1.716299999952298,1.9665999999046733]",21,0,21,0,1
,,,,,,,6131532c91b1750f51a9cb0a,,,,,,6131532c91b1750f51a9cb0a,Mężczyzna,19,2021-09-06_19h16.45.870,rantool2,2021.1.4,Win32,59.97001499,6135e006383e6ea6c3d06a28,61364cd405d6a61e6afda5a5,"[""comma""]",0,[0.08360000014306479],22,0,22,0,1
,,,,,,,6131532c91b1750f51a9cb0a,,,,,,6131532c91b1750f51a9cb0a,Mężczyzna,19,2021-09-06_19h16.45.870,rantool2,2021.1.4,Win32,59.97001499,6135e006383e6ea6c3d06a28,61364cd405d6a61e6afda5a5,"[""period"",""comma"",""period"",""period"",""comma""]",0,"[0.5267000000476969,0.8014000000953843,0.8062999999523299,1.746500000000026,1.8755999999046367]",23,0,23,0,1
,,,,,,,6131532c91b1750f51a9cb0a,,,,,,6131532c91b1750f51a9cb0a,Mężczyzna,19,2021-09-06_19h16.45.870,rantool2,2021.1.4,Win32,59.97001499,6135e006383e6ea6c3d06a28,61364cd405d6a61e6afda5a5,"[""period"",""period"",""comma""]",0,"[0.20070000004773192,1.4365999999046721,1.4627000000477324]",24,0,24,0,1
,,,,,,,6131532c91b1750f51a9cb0a,,,,,,6131532c91b1750f51a9cb0a,Mężczyzna,19,2021-09-06_19h16.45.870,rantool2,2021.1.4,Win32,59.97001499,6135e006383e6ea6c3d06a28,61364cd405d6a61e6afda5a5,"[""period"",""comma""]",0,"[1.129000000000019,1.9407000000476842]",25,0,25,0,1
,,,,,,,6131532c91b1750f51a9cb0a,,,,,,6131532c91b1750f51a9cb0a,Mężczyzna,19,2021-09-06_19h16.45.870,rantool2,2021.1.4,Win32,59.97001499,6135e006383e6ea6c3d06a28,61364cd405d6a61e6afda5a5,"[""comma"",""period""]",0,"[0.7887000000476974,1.9694000000953906]",26,0,26,0,1
,,,,,,,6131532c91b1750f51a9cb0a,,,,,,6131532c91b1750f51a9cb0a,Mężczyzna,19,2021-09-06_19h16.45.870,rantool2,2021.1.4,Win32,59.97001499,6135e006383e6ea6c3d06a28,61364cd405d6a61e6afda5a5,"[""period"",""period""]",0,"[0.49049999999999727,0.9953999998569429]",27,0,27,0,1
,,,,,,,6131532c91b1750f51a9cb0a,,,,,,6131532c91b1750f51a9cb0a,Mężczyzna,19,2021-09-06_19h16.45.870,rantool2,2021.1.4,Win32,59.97001499,6135e006383e6ea6c3d06a28,61364cd405d6a61e6afda5a5,"[""comma"",""comma""]",0,"[0.23939999985697114,0.9345000000000141]",28,0,28,0,1
,,,,,,,6131532c91b1750f51a9cb0a,,,,,,6131532c91b1750f51a9cb0a,Mężczyzna,19,2021-09-06_19h16.45.870,rantool2,2021.1.4,Win32,59.97001499,6135e006383e6ea6c3d06a28,61364cd405d6a61e6afda5a5,"[""period""]",0,[0.2172999999523313],29,0,29,0,1
,,,,,,,6131532c91b1750f51a9cb0a,,,,,,6131532c91b1750f51a9cb0a,Mężczyzna,19,2021-09-06_19h16.45.870,rantool2,2021.1.4,Win32,59.97001499,6135e006383e6ea6c3d06a28,61364cd405d6a61e6afda5a5,"[""comma"",""comma"",""comma"",""period""]",0,"[0.24349999999998317,0.44110000014302386,0.6254000000953397,0.7062000000476587]",30,0,30,0,1
,,,,,,,6131532c91b1750f51a9cb0a,,,,,,6131532c91b1750f51a9cb0a,Mężczyzna,19,2021-09-06_19h16.45.870,rantool2,2021.1.4,Win32,59.97001499,6135e006383e6ea6c3d06a28,61364cd405d6a61e6afda5a5,"[""period"",""comma""]",0,"[0.3324999999999818,0.3575000000000159]",31,0,31,0,1
,,,,,,,6131532c91b1750f51a9cb0a,,,,,,6131532c91b1750f51a9cb0a,Mężczyzna,19,2021-09-06_19h16.45.870,rantool2,2021.1.4,Win32,59.97001499,6135e006383e6ea6c3d06a28,61364cd405d6a61e6afda5a5,"[""comma"",""period""]",0,"[0.27329999995231447,0.4750999999046144]",32,0,32,0,1
,,,,,,,6131532c91b1750f51a9cb0a,,,,,,6131532c91b1750f51a9cb0a,Mężczyzna,19,2021-09-06_19h16.45.870,rantool2,2021.1.4,Win32,59.97001499,6135e006383e6ea6c3d06a28,61364cd405d6a61e6afda5a5,"[""comma"",""period"",""period"",""comma""]",0,"[0.3001999998092515,0.3850999999046394,0.5561999998092801,0.5609999999999786]",33,0,33,0,1
,,,,,,,6131532c91b1750f51a9cb0a,,,,,,6131532c91b1750f51a9cb0a,Mężczyzna,19,2021-09-06_19h16.45.870,rantool2,2021.1.4,Win32,59.97001499,6135e006383e6ea6c3d06a28,61364cd405d6a61e6afda5a5,"[""comma"",""period""]",0,"[0.3259000000953165,0.3612999999522799]",34,0,34,0,1
,,,,,,,6131532c91b1750f51a9cb0a,,,,,,6131532c91b1750f51a9cb0a,Mężczyzna,19,2021-09-06_19h16.45.870,rantool2,2021.1.4,Win32,59.97001499,6135e006383e6ea6c3d06a28,61364cd405d6a61e6afda5a5,"[""period"",""comma"",""period"",""comma"",""period""]",0,"[0.21820000004765916,0.47829999995229855,0.793099999904598,1.25029999995229,1.4110000000000014]",35,0,35,0,1
,,,,,,,6131532c91b1750f51a9cb0a,,,,,,6131532c91b1750f51a9cb0a,Mężczyzna,19,2021-09-06_19h16.45.870,rantool2,2021.1.4,Win32,59.97001499,6135e006383e6ea6c3d06a28,61364cd405d6a61e6afda5a5,"[""comma"",""period"",""comma""]",0,"[0.3722000000476555,0.5722000000476442,0.608299999952294]",36,0,36,0,1
,,,,,,,6131532c91b1750f51a9cb0a,,,,,,6131532c91b1750f51a9cb0a,Mężczyzna,19,2021-09-06_19h16.45.870,rantool2,2021.1.4,Win32,59.97001499,6135e006383e6ea6c3d06a28,61364cd405d6a61e6afda5a5,"[""comma"",""period"",""comma"",""period""]",0,"[0.20890000009541154,0.35400000000004184,1.463100000143072,1.666800000190733]",37,0,37,0,1
,,,,,,,6131532c91b1750f51a9cb0a,,,,,,6131532c91b1750f51a9cb0a,Mężczyzna,19,2021-09-06_19h16.45.870,rantool2,2021.1.4,Win32,59.97001499,6135e006383e6ea6c3d06a28,61364cd405d6a61e6afda5a5,"[""comma"",""period"",""comma"",""period"",""comma""]",0,"[0.4186999998092915,0.6346999998092429,1.1299999999999955,1.4187999999523413,1.432599999904653]",38,0,38,0,1
,,,,,,,6131532c91b1750f51a9cb0a,,,,,,6131532c91b1750f51a9cb0a,Mężczyzna,19,2021-09-06_19h16.45.870,rantool2,2021.1.4,Win32,59.97001499,6135e006383e6ea6c3d06a28,61364cd405d6a61e6afda5a5,"[""period"",""comma"",""comma""]",0,"[0.27910000014304615,0.29920000004767644,0.9189000000953911]",39,0,39,0,1
,,,,,,,6131532c91b1750f51a9cb0a,,,,,,6131532c91b1750f51a9cb0a,Mężczyzna,19,2021-09-06_19h16.45.870,rantool2,2021.1.4,Win32,59.97001499,6135e006383e6ea6c3d06a28,61364cd405d6a61e6afda5a5,"[""period""]",0,[0.2299000000953697],40,0,40,0,1
,,,,,,,6131532c91b1750f51a9cb0a,,,,,,6131532c91b1750f51a9cb0a,Mężczyzna,19,2021-09-06_19h16.45.870,rantool2,2021.1.4,Win32,59.97001499,6135e006383e6ea6c3d06a28,61364cd405d6a61e6afda5a5,"[""comma""]",0,[0.19470000004770327],41,0,41,0,1
,,,,,,,6131532c91b1750f51a9cb0a,,,,,,6131532c91b1750f51a9cb0a,Mężczyzna,19,2021-09-06_19h16.45.870,rantool2,2021.1.4,Win32,59.97001499,6135e006383e6ea6c3d06a28,61364cd405d6a61e6afda5a5,"[""period""]",0,[0.22629999995234584],42,0,42,0,1
,,,,,,,6131532c91b1750f51a9cb0a,,,,,,6131532c91b1750f51a9cb0a,Mężczyzna,19,2021-09-06_19h16.45.870,rantool2,2021.1.4,Win32,59.97001499,6135e006383e6ea6c3d06a28,61364cd405d6a61e6afda5a5,"[""comma"",""comma"",""period""]",0,"[-0.016399999856957947,0.2239000000953979,1.5047999999522972]",43,0,43,0,1
,,,,,,,6131532c91b1750f51a9cb0a,,,,,,6131532c91b1750f51a9cb0a,Mężczyzna,19,2021-09-06_19h16.45.870,rantool2,2021.1.4,Win32,59.97001499,6135e006383e6ea6c3d06a28,61364cd405d6a61e6afda5a5,"[""comma"",""period""]",0,"[1.2237999999522913,1.6167999999523204]",44,0,44,0,1
,,,,,,,6131532c91b1750f51a9cb0a,,,,,,6131532c91b1750f51a9cb0a,Mężczyzna,19,2021-09-06_19h16.45.870,rantool2,2021.1.4,Win32,59.97001499,6135e006383e6ea6c3d06a28,61364cd405d6a61e6afda5a5,"[""period""]",0,[0.5237000000476542],45,0,45,0,1
,,,,,,,6131532c91b1750f51a9cb0a,,,,,,6131532c91b1750f51a9cb0a,Mężczyzna,19,2021-09-06_19h16.45.870,rantool2,2021.1.4,Win32,59.97001499,6135e006383e6ea6c3d06a28,61364cd405d6a61e6afda5a5,"[""period""]",0,[0.23209999990461938],46,0,46,0,1
,,,,,,,6131532c91b1750f51a9cb0a,,,,,,6131532c91b1750f51a9cb0a,Mężczyzna,19,2021-09-06_19h16.45.870,rantool2,2021.1.4,Win32,59.97001499,6135e006383e6ea6c3d06a28,61364cd405d6a61e6afda5a5,"[""comma""]",0,[0.23360000014304205],47,0,47,0,1
,,,,,,,6131532c91b1750f51a9cb0a,,,,,,6131532c91b1750f51a9cb0a,Mężczyzna,19,2021-09-06_19h16.45.870,rantool2,2021.1.4,Win32,59.97001499,6135e006383e6ea6c3d06a28,61364cd405d6a61e6afda5a5,"[""period""]",0,[0.22249999999996817],48,0,48,0,1
,,,,,,,6131532c91b1750f51a9cb0a,,,,,,6131532c91b1750f51a9cb0a,Mężczyzna,19,2021-09-06_19h16.45.870,rantool2,2021.1.4,Win32,59.97001499,6135e006383e6ea6c3d06a28,61364cd405d6a61e6afda5a5,"[""comma""]",0,[0.16829999995229628],49,0,49,0,1
,,,,,,,6131532c91b1750f51a9cb0a,,,,,,6131532c91b1750f51a9cb0a,Mężczyzna,19,2021-09-06_19h16.45.870,rantool2,2021.1.4,Win32,59.97001499,6135e006383e6ea6c3d06a28,61364cd405d6a61e6afda5a5,"[""period""]",0,[0.1904999999999859],50,0,50,0,1
,,,,,,,6131532c91b1750f51a9cb0a,,,,,,6131532c91b1750f51a9cb0a,Mężczyzna,19,2021-09-06_19h16.45.870,rantool2,2021.1.4,Win32,59.97001499,6135e006383e6ea6c3d06a28,61364cd405d6a61e6afda5a5,"[""period""]",0,[0.22049999999995862],51,0,51,0,1
,,,,,,,6131532c91b1750f51a9cb0a,,,,,,6131532c91b1750f51a9cb0a,Mężczyzna,19,2021-09-06_19h16.45.870,rantool2,2021.1.4,Win32,59.97001499,6135e006383e6ea6c3d06a28,61364cd405d6a61e6afda5a5,"[""comma""]",0,[0.2082000000477251],52,0,52,0,1
,,,,,,,6131532c91b1750f51a9cb0a,,,,,,6131532c91b1750f51a9cb0a,Mężczyzna,19,2021-09-06_19h16.45.870,rantool2,2021.1.4,Win32,59.97001499,6135e006383e6ea6c3d06a28,61364cd405d6a61e6afda5a5,"[""period"",""comma""]",0,"[0.09039999985697023,1.777399999856982]",53,0,53,0,1
,,,,,,,6131532c91b1750f51a9cb0a,,,,,,6131532c91b1750f51a9cb0a,Mężczyzna,19,2021-09-06_19h16.45.870,rantool2,2021.1.4,Win32,59.97001499,6135e006383e6ea6c3d06a28,61364cd405d6a61e6afda5a5,"[""period""]",0,[1.9252999999523581],54,0,54,0,1
,,,,,,,6131532c91b1750f51a9cb0a,,,,,,6131532c91b1750f51a9cb0a,Mężczyzna,19,2021-09-06_19h16.45.870,rantool2,2021.1.4,Win32,59.97001499,6135e006383e6ea6c3d06a28,61364cd405d6a61e6afda5a5,"[""period""]",0,[0.7264000000953388],55,0,55,0,1
,,,,,,,6131532c91b1750f51a9cb0a,,,,,,6131532c91b1750f51a9cb0a,Mężczyzna,19,2021-09-06_19h16.45.870,rantool2,2021.1.4,Win32,59.97001499,6135e006383e6ea6c3d06a28,61364cd405d6a61e6afda5a5,"[""comma""]",0,[0.35899999999998045],56,0,56,0,1
,,,,,,,6131532c91b1750f51a9cb0a,,,,,,6131532c91b1750f51a9cb0a,Mężczyzna,19,2021-09-06_19h16.45.870,rantool2,2021.1.4,Win32,59.97001499,6135e006383e6ea6c3d06a28,61364cd405d6a61e6afda5a5,"[""period"",""period""]",0,"[0.19609999990461802,0.5400999999046121]",57,0,57,0,1
,,,,,,,6131532c91b1750f51a9cb0a,,,,,,6131532c91b1750f51a9cb0a,Mężczyzna,19,2021-09-06_19h16.45.870,rantool2,2021.1.4,Win32,59.97001499,6135e006383e6ea6c3d06a28,61364cd405d6a61e6afda5a5,"[""comma"",""period""]",0,"[0.08309999990461847,1.8634000000953392]",58,0,58,0,1
,,,,,,,6131532c91b1750f51a9cb0a,,,,,,6131532c91b1750f51a9cb0a,Mężczyzna,19,2021-09-06_19h16.45.870,rantool2,2021.1.4,Win32,59.97001499,6135e006383e6ea6c3d06a28,61364cd405d6a61e6afda5a5,"[""period""]",0,[0.2731000001430175],59,0,59,0,1
,,,,,,,6131532c91b1750f51a9cb0a,,,,,,6131532c91b1750f51a9cb0a,Mężczyzna,19,2021-09-06_19h16.45.870,rantool2,2021.1.4,Win32,59.97001499,6135e006383e6ea6c3d06a28,61364cd405d6a61e6afda5a5,"[""comma"",""period""]",0,"[0.25510000014304524,1.6849000000953538]",60,0,60,0,1
,,,,,,,6131532c91b1750f51a9cb0a,,,,,,6131532c91b1750f51a9cb0a,Mężczyzna,19,2021-09-06_19h16.45.870,rantool2,2021.1.4,Win32,59.97001499,6135e006383e6ea6c3d06a28,61364cd405d6a61e6afda5a5,"[""period"",""period""]",0,"[0.14790000009537607,0.43200000000001637]",61,0,61,0,1
,,,,,,,6131532c91b1750f51a9cb0a,,,,,,6131532c91b1750f51a9cb0a,Mężczyzna,19,2021-09-06_19h16.45.870,rantool2,2021.1.4,Win32,59.97001499,6135e006383e6ea6c3d06a28,61364cd405d6a61e6afda5a5,"[""comma""]",0,[0.45389999985695795],62,0,62,0,1
,,,,,,,6131532c91b1750f51a9cb0a,,,,,,6131532c91b1750f51a9cb0a,Mężczyzna,19,2021-09-06_19h16.45.870,rantool2,2021.1.4,Win32,59.97001499,6135e006383e6ea6c3d06a28,61364cd405d6a61e6afda5a5,"[""period""]",0,[0.220900000095412],63,0,63,0,1
,,,,,,,6131532c91b1750f51a9cb0a,,,,,,6131532c91b1750f51a9cb0a,Mężczyzna,19,2021-09-06_19h16.45.870,rantool2,2021.1.4,Win32,59.97001499,6135e006383e6ea6c3d06a28,61364cd405d6a61e6afda5a5,"[""comma""]",0,[0.25720000004770327],64,0,64,0,1
,,,,,,,6131532c91b1750f51a9cb0a,,,,,,6131532c91b1750f51a9cb0a,Mężczyzna,19,2021-09-06_19h16.45.870,rantool2,2021.1.4,Win32,59.97001499,6135e006383e6ea6c3d06a28,61364cd405d6a61e6afda5a5,"[""period""]",0,[0.22900000000004184],65,0,65,0,1
,,,,,,,6131532c91b1750f51a9cb0a,,,,,,6131532c91b1750f51a9cb0a,Mężczyzna,19,2021-09-06_19h16.45.870,rantool2,2021.1.4,Win32,59.97001499,6135e006383e6ea6c3d06a28,61364cd405d6a61e6afda5a5,"[""comma""]",0,[0.2368999998569734],66,0,66,0,1
,,,,,,,6131532c91b1750f51a9cb0a,,,,,,6131532c91b1750f51a9cb0a,Mężczyzna,19,2021-09-06_19h16.45.870,rantool2,2021.1.4,Win32,59.97001499,6135e006383e6ea6c3d06a28,61364cd405d6a61e6afda5a5,"[""period""]",0,[0.2767000000476969],67,0,67,0,1
,,,,,,,6131532c91b1750f51a9cb0a,,,,,,6131532c91b1750f51a9cb0a,Mężczyzna,19,2021-09-06_19h16.45.870,rantool2,2021.1.4,Win32,59.97001499,6135e006383e6ea6c3d06a28,61364cd405d6a61e6afda5a5,"[""comma""]",0,[0.23229999995231765],68,0,68,0,1
,,,,,,,6131532c91b1750f51a9cb0a,,,,,,6131532c91b1750f51a9cb0a,Mężczyzna,19,2021-09-06_19h16.45.870,rantool2,2021.1.4,Win32,59.97001499,6135e006383e6ea6c3d06a28,61364cd405d6a61e6afda5a5,"[""comma""]",0,[0.39959999990463757],69,0,69,0,1
,,,,,,,6131532c91b1750f51a9cb0a,,,,,,6131532c91b1750f51a9cb0a,Mężczyzna,19,2021-09-06_19h16.45.870,rantool2,2021.1.4,Win32,59.97001499,6135e006383e6ea6c3d06a28,61364cd405d6a61e6afda5a5,"[""period""]",0,[0.1904999999999859],70,0,70,0,1
,,,,,,,6131532c91b1750f51a9cb0a,,,,,,6131532c91b1750f51a9cb0a,Mężczyzna,19,2021-09-06_19h16.45.870,rantool2,2021.1.4,Win32,59.97001499,6135e006383e6ea6c3d06a28,61364cd405d6a61e6afda5a5,"[""period"",""period""]",0,"[0.006400000095368341,0.21270000004767553]",71,0,71,0,1
,,,,,,,6131532c91b1750f51a9cb0a,,,,,,6131532c91b1750f51a9cb0a,Mężczyzna,19,2021-09-06_19h16.45.870,rantool2,2021.1.4,Win32,59.97001499,6135e006383e6ea6c3d06a28,61364cd405d6a61e6afda5a5,"[""comma"",""period""]",0,"[0.26860000014306706,1.9576000001430316]",72,0,72,0,1
,,,,,,,6131532c91b1750f51a9cb0a,,,,,,6131532c91b1750f51a9cb0a,Mężczyzna,19,2021-09-06_19h16.45.870,rantool2,2021.1.4,Win32,59.97001499,6135e006383e6ea6c3d06a28,61364cd405d6a61e6afda5a5,"[""period""]",0,[0.4693999998569325],73,0,73,0,1
,,,,,,,6131532c91b1750f51a9cb0a,,,,,,6131532c91b1750f51a9cb0a,Mężczyzna,19,2021-09-06_19h16.45.870,rantool2,2021.1.4,Win32,59.97001499,6135e006383e6ea6c3d06a28,61364cd405d6a61e6afda5a5,"[""comma""]",0,[0.40229999995233356],74,0,74,0,1
,,,,,,,6131532c91b1750f51a9cb0a,,,,,,6131532c91b1750f51a9cb0a,Mężczyzna,19,2021-09-06_19h16.45.870,rantool2,2021.1.4,Win32,59.97001499,6135e006383e6ea6c3d06a28,61364cd405d6a61e6afda5a5,"[""comma"",""period""]",0,"[0.24670000004766734,1.8700000000000045]",75,0,75,0,1
,,,,,,,6131532c91b1750f51a9cb0a,,,,,,6131532c91b1750f51a9cb0a,Mężczyzna,19,2021-09-06_19h16.45.870,rantool2,2021.1.4,Win32,59.97001499,6135e006383e6ea6c3d06a28,61364cd405d6a61e6afda5a5,"[""comma""]",0,[1.9365000000000236],76,0,76,0,1
,,,,,,,6131532c91b1750f51a9cb0a,,,,,,6131532c91b1750f51a9cb0a,Mężczyzna,19,2021-09-06_19h16.45.870,rantool2,2021.1.4,Win32,59.97001499,6135e006383e6ea6c3d06a28,61364cd405d6a61e6afda5a5,"[""comma"",""period""]",0,"[0.45029999995227854,0.7021999998092383]",77,0,77,0,1
,,,,,,,6131532c91b1750f51a9cb0a,,,,,,6131532c91b1750f51a9cb0a,Mężczyzna,19,2021-09-06_19h16.45.870,rantool2,2021.1.4,Win32,59.97001499,6135e006383e6ea6c3d06a28,61364cd405d6a61e6afda5a5,"[""comma""]",0,[0.3664999999999736],78,0,78,0,1
,,,,,,,6131532c91b1750f51a9cb0a,,,,,,6131532c91b1750f51a9cb0a,Mężczyzna,19,2021-09-06_19h16.45.870,rantool2,2021.1.4,Win32,59.97001499,6135e006383e6ea6c3d06a28,61364cd405d6a61e6afda5a5,"[""period""]",0,[0.21709999990463302],79,0,79,0,1
,,,,,,,6131532c91b1750f51a9cb0a,,,,,,6131532c91b1750f51a9cb0a,Mężczyzna,19,2021-09-06_19h16.45.870,rantool2,2021.1.4,Win32,59.97001499,6135e006383e6ea6c3d06a28,61364cd405d6a61e6afda5a5,"[""period"",""period""]",0,"[0.0972000000477351,1.7335999999046408]",80,0,80,0,1
,,,,,,,6131532c91b1750f51a9cb0a,,,,,,6131532c91b1750f51a9cb0a,Mężczyzna,19,2021-09-06_19h16.45.870,rantool2,2021.1.4,Win32,59.97001499,6135e006383e6ea6c3d06a28,61364cd405d6a61e6afda5a5,"[""period"",""comma""]",0,"[0.19609999990467486,0.9462000000477246]",81,0,81,0,1
,,,,,,,6131532c91b1750f51a9cb0a,,,,,,6131532c91b1750f51a9cb0a,Mężczyzna,19,2021-09-06_19h16.45.870,rantool2,2021.1.4,Win32,59.97001499,6135e006383e6ea6c3d06a28,61364cd405d6a61e6afda5a5,"[""comma""]",0,[0.8360000000000127],82,0,82,0,1
,,,,,,,6131532c91b1750f51a9cb0a,,,,,,6131532c91b1750f51a9cb0a,Mężczyzna,19,2021-09-06_19h16.45.870,rantool2,2021.1.4,Win32,59.97001499,6135e006383e6ea6c3d06a28,61364cd405d6a61e6afda5a5,"[""comma""]",0,[0.4062000000477042],83,0,83,0,1
,,,,,,,6131532c91b1750f51a9cb0a,,,,,,6131532c91b1750f51a9cb0a,Mężczyzna,19,2021-09-06_19h16.45.870,rantool2,2021.1.4,Win32,59.97001499,6135e006383e6ea6c3d06a28,61364cd405d6a61e6afda5a5,"[""comma""]",0,[0.5351000001430748],84,0,84,0,1
,,,,,,,6131532c91b1750f51a9cb0a,,,,,,6131532c91b1750f51a9cb0a,Mężczyzna,19,2021-09-06_19h16.45.870,rantool2,2021.1.4,Win32,59.97001499,6135e006383e6ea6c3d06a28,61364cd405d6a61e6afda5a5,"[""period""]",0,[0.4399999999999977],85,0,85,0,1
,,,,,,,6131532c91b1750f51a9cb0a,,,,,,6131532c91b1750f51a9cb0a,Mężczyzna,19,2021-09-06_19h16.45.870,rantool2,2021.1.4,Win32,59.97001499,6135e006383e6ea6c3d06a28,61364cd405d6a61e6afda5a5,"[""period""]",0,[1.3741000001430166],86,0,86,0,1
,,,,,,,6131532c91b1750f51a9cb0a,,,,,,6131532c91b1750f51a9cb0a,Mężczyzna,19,2021-09-06_19h16.45.870,rantool2,2021.1.4,Win32,59.97001499,6135e006383e6ea6c3d06a28,61364cd405d6a61e6afda5a5,"[""period""]",0,[0.2269000000953838],87,0,87,0,1
,,,,,,,6131532c91b1750f51a9cb0a,,,,,,6131532c91b1750f51a9cb0a,Mężczyzna,19,2021-09-06_19h16.45.870,rantool2,2021.1.4,Win32,59.97001499,6135e006383e6ea6c3d06a28,61364cd405d6a61e6afda5a5,"[""period""]",0,[-0.01650000000000773],88,0,88,0,1
,,,,,,,6131532c91b1750f51a9cb0a,,,,,,6131532c91b1750f51a9cb0a,Mężczyzna,19,2021-09-06_19h16.45.870,rantool2,2021.1.4,Win32,59.97001499,6135e006383e6ea6c3d06a28,61364cd405d6a61e6afda5a5,"[""comma""]",0,[0.28239999985692066],89,0,89,0,1
,,,,,,,6131532c91b1750f51a9cb0a,,,,,,6131532c91b1750f51a9cb0a,Mężczyzna,19,2021-09-06_19h16.45.870,rantool2,2021.1.4,Win32,59.97001499,6135e006383e6ea6c3d06a28,61364cd405d6a61e6afda5a5,"[""period""]",0,[0.20569999980926923],90,0,90,0,1
,,,,,,,6131532c91b1750f51a9cb0a,,,,,,6131532c91b1750f51a9cb0a,Mężczyzna,19,2021-09-06_19h16.45.870,rantool2,2021.1.4,Win32,59.97001499,6135e006383e6ea6c3d06a28,61364cd405d6a61e6afda5a5,"[""comma""]",0,[0.3488000001907494],91,0,91,0,1
,,,,,,,6131532c91b1750f51a9cb0a,,,,,,6131532c91b1750f51a9cb0a,Mężczyzna,19,2021-09-06_19h16.45.870,rantool2,2021.1.4,Win32,59.97001499,6135e006383e6ea6c3d06a28,61364cd405d6a61e6afda5a5,0,0,,92,0,92,0,1
,,,,,,,6131532c91b1750f51a9cb0a,,,,,,6131532c91b1750f51a9cb0a,Mężczyzna,19,2021-09-06_19h16.45.870,rantool2,2021.1.4,Win32,59.97001499,6135e006383e6ea6c3d06a28,61364cd405d6a61e6afda5a5,"[""period""]",0,[1.1889000000953729],93,0,93,0,1
,,,,,,,6131532c91b1750f51a9cb0a,,,,,,6131532c91b1750f51a9cb0a,Mężczyzna,19,2021-09-06_19h16.45.870,rantool2,2021.1.4,Win32,59.97001499,6135e006383e6ea6c3d06a28,61364cd405d6a61e6afda5a5,"[""comma"",""comma""]",0,"[0.4616000001430507,1.8334000000953665]",94,0,94,0,1
,,,,,,,6131532c91b1750f51a9cb0a,,,,,,6131532c91b1750f51a9cb0a,Mężczyzna,19,2021-09-06_19h16.45.870,rantool2,2021.1.4,Win32,59.97001499,6135e006383e6ea6c3d06a28,61364cd405d6a61e6afda5a5,0,0,,95,0,95,0,1
,,,,,,,6131532c91b1750f51a9cb0a,,,,,,6131532c91b1750f51a9cb0a,Mężczyzna,19,2021-09-06_19h16.45.870,rantool2,2021.1.4,Win32,59.97001499,6135e006383e6ea6c3d06a28,61364cd405d6a61e6afda5a5,"[""comma""]",0,[0.39629999995236176],96,0,96,0,1
,,,,,,,6131532c91b1750f51a9cb0a,,,,,,6131532c91b1750f51a9cb0a,Mężczyzna,19,2021-09-06_19h16.45.870,rantool2,2021.1.4,Win32,59.97001499,6135e006383e6ea6c3d06a28,61364cd405d6a61e6afda5a5,"[""comma"",""period""]",0,"[0.41629999995234357,0.9124000000953743]",97,0,97,0,1
,,,,,,,6131532c91b1750f51a9cb0a,,,,,,6131532c91b1750f51a9cb0a,Mężczyzna,19,2021-09-06_19h16.45.870,rantool2,2021.1.4,Win32,59.97001499,6135e006383e6ea6c3d06a28,61364cd405d6a61e6afda5a5,"[""comma""]",0,[0.9062000000477042],98,0,98,0,1
,,,,,,,6131532c91b1750f51a9cb0a,,,,,,6131532c91b1750f51a9cb0a,Mężczyzna,19,2021-09-06_19h16.45.870,rantool2,2021.1.4,Win32,59.97001499,6135e006383e6ea6c3d06a28,61364cd405d6a61e6afda5a5,"[""period""]",0,[0.27460000014303887],99,0,99,0,1
,,,,,,,6131532c91b1750f51a9cb0a,,,,,,6131532c91b1750f51a9cb0a,Mężczyzna,19,2021-09-06_19h16.45.870,rantool2,2021.1.4,Win32,59.97001499,6135e006383e6ea6c3d06a28,61364cd405d6a61e6afda5a5,"[""comma""]",0,[0.30750000000000455],100,0,100,0,1
,,,,,,,6131532c91b1750f51a9cb0a,,,,,,6131532c91b1750f51a9cb0a,Mężczyzna,19,2021-09-06_19h16.45.870,rantool2,2021.1.4,Win32,59.97001499,6135e006383e6ea6c3d06a28,61364cd405d6a61e6afda5a5,"[""period""]",0,[0.198799999952314],101,0,101,0,1
,,,,,,,6131532c91b1750f51a9cb0a,,,,,,6131532c91b1750f51a9cb0a,Mężczyzna,19,2021-09-06_19h16.45.870,rantool2,2021.1.4,Win32,59.97001499,6135e006383e6ea6c3d06a28,61364cd405d6a61e6afda5a5,"[""comma""]",0,[0.2202000000476687],102,0,102,0,1
,,,,,,,6131532c91b1750f51a9cb0a,,,,,,6131532c91b1750f51a9cb0a,Mężczyzna,19,2021-09-06_19h16.45.870,rantool2,2021.1.4,Win32,59.97001499,6135e006383e6ea6c3d06a28,61364cd405d6a61e6afda5a5,"[""comma""]",0,[0.2835999999045953],103,0,103,0,1
,,,,,,,6131532c91b1750f51a9cb0a,,,,,,6131532c91b1750f51a9cb0a,Mężczyzna,19,2021-09-06_19h16.45.870,rantool2,2021.1.4,Win32,59.97001499,6135e006383e6ea6c3d06a28,61364cd405d6a61e6afda5a5,"[""period""]",0,[0.30639999985692157],104,0,104,0,1
,,,,,,,6131532c91b1750f51a9cb0a,,,,,,6131532c91b1750f51a9cb0a,Mężczyzna,19,2021-09-06_19h16.45.870,rantool2,2021.1.4,Win32,59.97001499,6135e006383e6ea6c3d06a28,61364cd405d6a61e6afda5a5,"[""period""]",0,[0.621300000190729],105,0,105,0,1
,,,,,,,6131532c91b1750f51a9cb0a,,,,,,6131532c91b1750f51a9cb0a,Mężczyzna,19,2021-09-06_19h16.45.870,rantool2,2021.1.4,Win32,59.97001499,6135e006383e6ea6c3d06a28,61364cd405d6a61e6afda5a5,"[""comma""]",0,[0.3102000000476437],106,0,106,0,1
,,,,,,,6131532c91b1750f51a9cb0a,,,,,,6131532c91b1750f51a9cb0a,Mężczyzna,19,2021-09-06_19h16.45.870,rantool2,2021.1.4,Win32,59.97001499,6135e006383e6ea6c3d06a28,61364cd405d6a61e6afda5a5,"[""period"",""comma""]",0,"[0.2168999998569916,1.2756999998092624]",107,0,107,0,1
,,,,,,,6131532c91b1750f51a9cb0a,,,,,,6131532c91b1750f51a9cb0a,Mężczyzna,19,2021-09-06_19h16.45.870,rantool2,2021.1.4,Win32,59.97001499,6135e006383e6ea6c3d06a28,61364cd405d6a61e6afda5a5,"[""comma""]",0,[0.36020000004765507],108,0,108,0,1
,,,,,,,6131532c91b1750f51a9cb0a,,,,,,6131532c91b1750f51a9cb0a,Mężczyzna,19,2021-09-06_19h16.45.870,rantool2,2021.1.4,Win32,59.97001499,6135e006383e6ea6c3d06a28,61364cd405d6a61e6afda5a5,"[""comma""]",0,[0.31810000014309026],109,0,109,0,1
,,,,,,,6131532c91b1750f51a9cb0a,,,,,,6131532c91b1750f51a9cb0a,Mężczyzna,19,2021-09-06_19h16.45.870,rantool2,2021.1.4,Win32,59.97001499,6135e006383e6ea6c3d06a28,61364cd405d6a61e6afda5a5,0,0,,110,0,110,0,1
,,,,,,,6131532c91b1750f51a9cb0a,,,,,,6131532c91b1750f51a9cb0a,Mężczyzna,19,2021-09-06_19h16.45.870,rantool2,2021.1.4,Win32,59.97001499,6135e006383e6ea6c3d06a28,61364cd405d6a61e6afda5a5,0,0,,111,0,111,0,1
,,,,,,,6131532c91b1750f51a9cb0a,,,,,,6131532c91b1750f51a9cb0a,Mężczyzna,19,2021-09-06_19h16.45.870,rantool2,2021.1.4,Win32,59.97001499,6135e006383e6ea6c3d06a28,61364cd405d6a61e6afda5a5,0,0,,112,0,112,0,1
,,,,,,,6131532c91b1750f51a9cb0a,,,,,,6131532c91b1750f51a9cb0a,Mężczyzna,19,2021-09-06_19h16.45.870,rantool2,2021.1.4,Win32,59.97001499,6135e006383e6ea6c3d06a28,61364cd405d6a61e6afda5a5,"[""period""]",0,[0.8990000000000009],113,0,113,0,1
,,,,,,,6131532c91b1750f51a9cb0a,,,,,,6131532c91b1750f51a9cb0a,Mężczyzna,19,2021-09-06_19h16.45.870,rantool2,2021.1.4,Win32,59.97001499,6135e006383e6ea6c3d06a28,61364cd405d6a61e6afda5a5,"[""comma""]",0,[0.25759999990464166],114,0,114,0,1
,,,,,,,6131532c91b1750f51a9cb0a,,,,,,6131532c91b1750f51a9cb0a,Mężczyzna,19,2021-09-06_19h16.45.870,rantool2,2021.1.4,Win32,59.97001499,6135e006383e6ea6c3d06a28,61364cd405d6a61e6afda5a5,"[""period""]",0,[0.22699999999997544],115,0,115,0,1
,,,,,,,6131532c91b1750f51a9cb0a,,,,,,6131532c91b1750f51a9cb0a,Mężczyzna,19,2021-09-06_19h16.45.870,rantool2,2021.1.4,Win32,59.97001499,6135e006383e6ea6c3d06a28,61364cd405d6a61e6afda5a5,"[""period""]",0,[0.14179999995229764],116,0,116,0,1
,,,,,,,6131532c91b1750f51a9cb0a,,,,,,6131532c91b1750f51a9cb0a,Mężczyzna,19,2021-09-06_19h16.45.870,rantool2,2021.1.4,Win32,59.97001499,6135e006383e6ea6c3d06a28,61364cd405d6a61e6afda5a5,"[""comma""]",0,[0.24049999999999727],117,0,117,0,1
,,,,,,,6131532c91b1750f51a9cb0a,,,,,,6131532c91b1750f51a9cb0a,Mężczyzna,19,2021-09-06_19h16.45.870,rantool2,2021.1.4,Win32,59.97001499,6135e006383e6ea6c3d06a28,61364cd405d6a61e6afda5a5,"[""comma""]",0,[0.30360000014303523],118,0,118,0,1
,,,,,,,6131532c91b1750f51a9cb0a,,,,,,6131532c91b1750f51a9cb0a,Mężczyzna,19,2021-09-06_19h16.45.870,rantool2,2021.1.4,Win32,59.97001499,6135e006383e6ea6c3d06a28,61364cd405d6a61e6afda5a5,"[""comma""]",0,[0.2545999999045989],119,0,119,0,1
