key_resp_7.keys,key_resp_7.rt,trials_2.thisRepN,trials_2.thisTrialN,trials_2.thisN,trials_2.thisIndex,trials_2.ran,id,series_0,series_1,acss_0,acss_1,comparison,id*,Płeć*,Wiek*,date,expName,psychopyVersion,OS,frameRate,STUDY_ID,SESSION_ID,key_resp_5.keys,key_resp_5.corr,key_resp_5.rt,trials.thisRepN,trials.thisTrialN,trials.thisN,trials.thisIndex,trials.ran
f,1.643,0,0,0,60,1,5fb9afe59151376740f3fa56,RRRROOO,RRRROOR,22.10108823,22.15934078,series_1,5fb9afe59151376740f3fa56,Mężczyzna,20,2021-09-06_19h16.07.339,rantool2,2021.1.4,Win32,59.85515054,6135e006383e6ea6c3d06a28,61364bdda30f86cb5a625624,,,,,,,,
f,2.0299,0,1,1,43,1,5fb9afe59151376740f3fa56,RORORRO,RORORRR,20.71309134,21.07490964,series_1,5fb9afe59151376740f3fa56,Mężczyzna,20,2021-09-06_19h16.07.339,rantool2,2021.1.4,Win32,59.85515054,6135e006383e6ea6c3d06a28,61364bdda30f86cb5a625624,,,,,,,,
f,1.8329,0,2,2,6,1,5fb9afe59151376740f3fa56,OOORROO,OOORROR,21.12383932,21.38562617,series_1,5fb9afe59151376740f3fa56,Mężczyzna,20,2021-09-06_19h16.07.339,rantool2,2021.1.4,Win32,59.85515054,6135e006383e6ea6c3d06a28,61364bdda30f86cb5a625624,,,,,,,,
j,1.3852,0,3,3,42,1,5fb9afe59151376740f3fa56,ROROROO,ROROROR,20.39515459,19.8361834,series_0,5fb9afe59151376740f3fa56,Mężczyzna,20,2021-09-06_19h16.07.339,rantool2,2021.1.4,Win32,59.85515054,6135e006383e6ea6c3d06a28,61364bdda30f86cb5a625624,,,,,,,,
j,3.1095,0,4,4,20,1,5fb9afe59151376740f3fa56,OROROOO,OROROOR,21.31236711,21.90565814,series_1,5fb9afe59151376740f3fa56,Mężczyzna,20,2021-09-06_19h16.07.339,rantool2,2021.1.4,Win32,59.85515054,6135e006383e6ea6c3d06a28,61364bdda30f86cb5a625624,,,,,,,,
f,2.5533,0,5,5,32,1,5fb9afe59151376740f3fa56,ROOOOOO,ROOOOOR,19.92253567,21.27974287,series_1,5fb9afe59151376740f3fa56,Mężczyzna,20,2021-09-06_19h16.07.339,rantool2,2021.1.4,Win32,59.85515054,6135e006383e6ea6c3d06a28,61364bdda30f86cb5a625624,,,,,,,,
f,1.8281,0,6,6,46,1,5fb9afe59151376740f3fa56,RORRROO,RORRROR,22.00300695,21.24781509,series_0,5fb9afe59151376740f3fa56,Mężczyzna,20,2021-09-06_19h16.07.339,rantool2,2021.1.4,Win32,59.85515054,6135e006383e6ea6c3d06a28,61364bdda30f86cb5a625624,,,,,,,,
f,2.9155,0,7,7,10,1,5fb9afe59151376740f3fa56,OOROROO,OOROROR,21.31236711,21.07490964,series_0,5fb9afe59151376740f3fa56,Mężczyzna,20,2021-09-06_19h16.07.339,rantool2,2021.1.4,Win32,59.85515054,6135e006383e6ea6c3d06a28,61364bdda30f86cb5a625624,,,,,,,,
f,1.8972,0,8,8,0,1,5fb9afe59151376740f3fa56,OOOOOOO,OOOOOOR,18.52739004,19.62521613,series_1,5fb9afe59151376740f3fa56,Mężczyzna,20,2021-09-06_19h16.07.339,rantool2,2021.1.4,Win32,59.85515054,6135e006383e6ea6c3d06a28,61364bdda30f86cb5a625624,,,,,,,,
f,2.8536,0,9,9,2,1,5fb9afe59151376740f3fa56,OOOOROO,OOOOROR,20.43051175,21.02936224,series_1,5fb9afe59151376740f3fa56,Mężczyzna,20,2021-09-06_19h16.07.339,rantool2,2021.1.4,Win32,59.85515054,6135e006383e6ea6c3d06a28,61364bdda30f86cb5a625624,,,,,,,,
j,2.2695,0,10,10,35,1,5fb9afe59151376740f3fa56,ROOORRO,ROOORRR,21.76276513,22.16977179,series_1,5fb9afe59151376740f3fa56,Mężczyzna,20,2021-09-06_19h16.07.339,rantool2,2021.1.4,Win32,59.85515054,6135e006383e6ea6c3d06a28,61364bdda30f86cb5a625624,,,,,,,,
f,2.4432,0,11,11,59,1,5fb9afe59151376740f3fa56,RRRORRO,RRRORRR,21.56657303,20.89823192,series_0,5fb9afe59151376740f3fa56,Mężczyzna,20,2021-09-06_19h16.07.339,rantool2,2021.1.4,Win32,59.85515054,6135e006383e6ea6c3d06a28,61364bdda30f86cb5a625624,,,,,,,,
j,2.0417,0,12,12,49,1,5fb9afe59151376740f3fa56,RROOORO,RROOORR,21.76276513,22.53364006,series_1,5fb9afe59151376740f3fa56,Mężczyzna,20,2021-09-06_19h16.07.339,rantool2,2021.1.4,Win32,59.85515054,6135e006383e6ea6c3d06a28,61364bdda30f86cb5a625624,,,,,,,,
j,2.6431,0,13,13,21,1,5fb9afe59151376740f3fa56,ORORORO,ORORORR,20.39515459,22.06781359,series_1,5fb9afe59151376740f3fa56,Mężczyzna,20,2021-09-06_19h16.07.339,rantool2,2021.1.4,Win32,59.85515054,6135e006383e6ea6c3d06a28,61364bdda30f86cb5a625624,,,,,,,,
f,2.1519,0,14,14,62,1,5fb9afe59151376740f3fa56,RRRRROO,RRRRROR,22.16413392,21.27974287,series_0,5fb9afe59151376740f3fa56,Mężczyzna,20,2021-09-06_19h16.07.339,rantool2,2021.1.4,Win32,59.85515054,6135e006383e6ea6c3d06a28,61364bdda30f86cb5a625624,,,,,,,,
f,2.7426,0,15,15,47,1,5fb9afe59151376740f3fa56,RORRRRO,RORRRRR,21.81333602,21.02936224,series_0,5fb9afe59151376740f3fa56,Mężczyzna,20,2021-09-06_19h16.07.339,rantool2,2021.1.4,Win32,59.85515054,6135e006383e6ea6c3d06a28,61364bdda30f86cb5a625624,,,,,,,,
j,2.0693,0,16,16,45,1,5fb9afe59151376740f3fa56,RORRORO,RORRORR,20.78182524,21.22513037,series_1,5fb9afe59151376740f3fa56,Mężczyzna,20,2021-09-06_19h16.07.339,rantool2,2021.1.4,Win32,59.85515054,6135e006383e6ea6c3d06a28,61364bdda30f86cb5a625624,,,,,,,,
f,3.3778,0,17,17,48,1,5fb9afe59151376740f3fa56,RROOOOO,RROOOOR,20.90986523,22.15934078,series_1,5fb9afe59151376740f3fa56,Mężczyzna,20,2021-09-06_19h16.07.339,rantool2,2021.1.4,Win32,59.85515054,6135e006383e6ea6c3d06a28,61364bdda30f86cb5a625624,,,,,,,,
j,3.3371,0,18,18,28,1,5fb9afe59151376740f3fa56,ORRROOO,ORRROOR,22.24142883,22.53364006,series_1,5fb9afe59151376740f3fa56,Mężczyzna,20,2021-09-06_19h16.07.339,rantool2,2021.1.4,Win32,59.85515054,6135e006383e6ea6c3d06a28,61364bdda30f86cb5a625624,,,,,,,,
j,2.046,0,19,19,54,1,5fb9afe59151376740f3fa56,RRORROO,RRORROR,21.55250791,20.9984461,series_0,5fb9afe59151376740f3fa56,Mężczyzna,20,2021-09-06_19h16.07.339,rantool2,2021.1.4,Win32,59.85515054,6135e006383e6ea6c3d06a28,61364bdda30f86cb5a625624,,,,,,,,
f,2.32,0,20,20,27,1,5fb9afe59151376740f3fa56,ORRORRO,ORRORRR,21.55250791,22.2428857,series_1,5fb9afe59151376740f3fa56,Mężczyzna,20,2021-09-06_19h16.07.339,rantool2,2021.1.4,Win32,59.85515054,6135e006383e6ea6c3d06a28,61364bdda30f86cb5a625624,,,,,,,,
j,2.7533,0,21,21,37,1,5fb9afe59151376740f3fa56,ROORORO,ROORORR,20.42602454,21.57657071,series_1,5fb9afe59151376740f3fa56,Mężczyzna,20,2021-09-06_19h16.07.339,rantool2,2021.1.4,Win32,59.85515054,6135e006383e6ea6c3d06a28,61364bdda30f86cb5a625624,,,,,,,,
j,2.7334,0,22,22,16,1,5fb9afe59151376740f3fa56,OROOOOO,OROOOOR,20.43051175,21.17347734,series_1,5fb9afe59151376740f3fa56,Mężczyzna,20,2021-09-06_19h16.07.339,rantool2,2021.1.4,Win32,59.85515054,6135e006383e6ea6c3d06a28,61364bdda30f86cb5a625624,,,,,,,,
j,2.5364,0,23,23,63,1,5fb9afe59151376740f3fa56,RRRRRRO,RRRRRRR,21.35278725,19.62521613,series_0,5fb9afe59151376740f3fa56,Mężczyzna,20,2021-09-06_19h16.07.339,rantool2,2021.1.4,Win32,59.85515054,6135e006383e6ea6c3d06a28,61364bdda30f86cb5a625624,,,,,,,,
j,2.4398,0,24,24,56,1,5fb9afe59151376740f3fa56,RRROOOO,RRROOOR,21.6194508,22.31681875,series_1,5fb9afe59151376740f3fa56,Mężczyzna,20,2021-09-06_19h16.07.339,rantool2,2021.1.4,Win32,59.85515054,6135e006383e6ea6c3d06a28,61364bdda30f86cb5a625624,,,,,,,,
j,3.3085,0,25,25,17,1,5fb9afe59151376740f3fa56,OROOORO,OROOORR,21.03750787,22.12173012,series_1,5fb9afe59151376740f3fa56,Mężczyzna,20,2021-09-06_19h16.07.339,rantool2,2021.1.4,Win32,59.85515054,6135e006383e6ea6c3d06a28,61364bdda30f86cb5a625624,,,,,,,,
j,1.6188,0,26,26,40,1,5fb9afe59151376740f3fa56,ROROOOO,ROROOOR,20.87963819,21.37121559,series_1,5fb9afe59151376740f3fa56,Mężczyzna,20,2021-09-06_19h16.07.339,rantool2,2021.1.4,Win32,59.85515054,6135e006383e6ea6c3d06a28,61364bdda30f86cb5a625624,,,,,,,,
f,1.9323,0,27,27,9,1,5fb9afe59151376740f3fa56,OOROORO,OOROORR,21.07991943,22.2428857,series_1,5fb9afe59151376740f3fa56,Mężczyzna,20,2021-09-06_19h16.07.339,rantool2,2021.1.4,Win32,59.85515054,6135e006383e6ea6c3d06a28,61364bdda30f86cb5a625624,,,,,,,,
j,2.4556,0,28,28,1,1,5fb9afe59151376740f3fa56,OOOOORO,OOOOORR,19.92253567,20.74050628,series_1,5fb9afe59151376740f3fa56,Mężczyzna,20,2021-09-06_19h16.07.339,rantool2,2021.1.4,Win32,59.85515054,6135e006383e6ea6c3d06a28,61364bdda30f86cb5a625624,,,,,,,,
f,1.7814,0,29,29,61,1,5fb9afe59151376740f3fa56,RRRRORO,RRRRORR,21.81333602,21.17347734,series_0,5fb9afe59151376740f3fa56,Mężczyzna,20,2021-09-06_19h16.07.339,rantool2,2021.1.4,Win32,59.85515054,6135e006383e6ea6c3d06a28,61364bdda30f86cb5a625624,,,,,,,,
j,1.9775,0,30,30,30,1,5fb9afe59151376740f3fa56,ORRRROO,ORRRROR,22.46748491,22.03072203,series_0,5fb9afe59151376740f3fa56,Mężczyzna,20,2021-09-06_19h16.07.339,rantool2,2021.1.4,Win32,59.85515054,6135e006383e6ea6c3d06a28,61364bdda30f86cb5a625624,,,,,,,,
f,2.0859,0,31,31,4,1,5fb9afe59151376740f3fa56,OOOROOO,OOOROOR,19.91402015,21.21223021,series_1,5fb9afe59151376740f3fa56,Mężczyzna,20,2021-09-06_19h16.07.339,rantool2,2021.1.4,Win32,59.85515054,6135e006383e6ea6c3d06a28,61364bdda30f86cb5a625624,,,,,,,,
f,2.2224,0,32,32,29,1,5fb9afe59151376740f3fa56,ORRRORO,ORRRORR,22.00300695,22.12173012,series_1,5fb9afe59151376740f3fa56,Mężczyzna,20,2021-09-06_19h16.07.339,rantool2,2021.1.4,Win32,59.85515054,6135e006383e6ea6c3d06a28,61364bdda30f86cb5a625624,,,,,,,,
f,2.8475,0,33,33,22,1,5fb9afe59151376740f3fa56,ORORROO,ORORROR,22.02732763,21.57657071,series_0,5fb9afe59151376740f3fa56,Mężczyzna,20,2021-09-06_19h16.07.339,rantool2,2021.1.4,Win32,59.85515054,6135e006383e6ea6c3d06a28,61364bdda30f86cb5a625624,,,,,,,,
j,2.9556,0,34,34,25,1,5fb9afe59151376740f3fa56,ORROORO,ORROORR,21.79500819,22.61624387,series_1,5fb9afe59151376740f3fa56,Mężczyzna,20,2021-09-06_19h16.07.339,rantool2,2021.1.4,Win32,59.85515054,6135e006383e6ea6c3d06a28,61364bdda30f86cb5a625624,,,,,,,,
j,2.2122,0,35,35,55,1,5fb9afe59151376740f3fa56,RRORRRO,RRORRRR,21.56657303,21.21223021,series_0,5fb9afe59151376740f3fa56,Mężczyzna,20,2021-09-06_19h16.07.339,rantool2,2021.1.4,Win32,59.85515054,6135e006383e6ea6c3d06a28,61364bdda30f86cb5a625624,,,,,,,,
j,2.0154,0,36,36,53,1,5fb9afe59151376740f3fa56,RRORORO,RRORORR,20.71309134,21.90565814,series_1,5fb9afe59151376740f3fa56,Mężczyzna,20,2021-09-06_19h16.07.339,rantool2,2021.1.4,Win32,59.85515054,6135e006383e6ea6c3d06a28,61364bdda30f86cb5a625624,,,,,,,,
j,2.2641,0,37,37,5,1,5fb9afe59151376740f3fa56,OOORORO,OOORORR,20.87963819,21.9921709,series_1,5fb9afe59151376740f3fa56,Mężczyzna,20,2021-09-06_19h16.07.339,rantool2,2021.1.4,Win32,59.85515054,6135e006383e6ea6c3d06a28,61364bdda30f86cb5a625624,,,,,,,,
j,2.5982,0,38,38,39,1,5fb9afe59151376740f3fa56,ROORRRO,ROORRRR,21.82425538,21.38562617,series_0,5fb9afe59151376740f3fa56,Mężczyzna,20,2021-09-06_19h16.07.339,rantool2,2021.1.4,Win32,59.85515054,6135e006383e6ea6c3d06a28,61364bdda30f86cb5a625624,,,,,,,,
f,3.4489,0,39,39,11,1,5fb9afe59151376740f3fa56,OORORRO,OORORRR,22.18365867,22.6797523,series_1,5fb9afe59151376740f3fa56,Mężczyzna,20,2021-09-06_19h16.07.339,rantool2,2021.1.4,Win32,59.85515054,6135e006383e6ea6c3d06a28,61364bdda30f86cb5a625624,,,,,,,,
j,2.3027,0,40,40,12,1,5fb9afe59151376740f3fa56,OORROOO,OORROOR,21.30250474,22.02786418,series_1,5fb9afe59151376740f3fa56,Mężczyzna,20,2021-09-06_19h16.07.339,rantool2,2021.1.4,Win32,59.85515054,6135e006383e6ea6c3d06a28,61364bdda30f86cb5a625624,,,,,,,,
j,2.3278,0,41,41,52,1,5fb9afe59151376740f3fa56,RROROOO,RROROOR,22.18365867,22.11097995,series_0,5fb9afe59151376740f3fa56,Mężczyzna,20,2021-09-06_19h16.07.339,rantool2,2021.1.4,Win32,59.85515054,6135e006383e6ea6c3d06a28,61364bdda30f86cb5a625624,,,,,,,,
f,2.0822,0,42,42,26,1,5fb9afe59151376740f3fa56,ORROROO,ORROROR,22.02732763,21.71443381,series_0,5fb9afe59151376740f3fa56,Mężczyzna,20,2021-09-06_19h16.07.339,rantool2,2021.1.4,Win32,59.85515054,6135e006383e6ea6c3d06a28,61364bdda30f86cb5a625624,,,,,,,,
j,3.4141,0,43,43,36,1,5fb9afe59151376740f3fa56,ROOROOO,ROOROOR,21.07991943,20.9984461,series_0,5fb9afe59151376740f3fa56,Mężczyzna,20,2021-09-06_19h16.07.339,rantool2,2021.1.4,Win32,59.85515054,6135e006383e6ea6c3d06a28,61364bdda30f86cb5a625624,,,,,,,,
f,3.3365,0,44,44,38,1,5fb9afe59151376740f3fa56,ROORROO,ROORROR,21.79500819,21.36812781,series_0,5fb9afe59151376740f3fa56,Mężczyzna,20,2021-09-06_19h16.07.339,rantool2,2021.1.4,Win32,59.85515054,6135e006383e6ea6c3d06a28,61364bdda30f86cb5a625624,,,,,,,,
f,3.2497,0,45,45,58,1,5fb9afe59151376740f3fa56,RRROROO,RRROROR,22.1285618,21.37121559,series_0,5fb9afe59151376740f3fa56,Mężczyzna,20,2021-09-06_19h16.07.339,rantool2,2021.1.4,Win32,59.85515054,6135e006383e6ea6c3d06a28,61364bdda30f86cb5a625624,,,,,,,,
j,2.655,0,46,46,24,1,5fb9afe59151376740f3fa56,ORROOOO,ORROOOR,21.12383932,22.07102821,series_1,5fb9afe59151376740f3fa56,Mężczyzna,20,2021-09-06_19h16.07.339,rantool2,2021.1.4,Win32,59.85515054,6135e006383e6ea6c3d06a28,61364bdda30f86cb5a625624,,,,,,,,
j,2.9711,0,47,47,44,1,5fb9afe59151376740f3fa56,RORROOO,RORROOR,21.66733484,22.02566557,series_1,5fb9afe59151376740f3fa56,Mężczyzna,20,2021-09-06_19h16.07.339,rantool2,2021.1.4,Win32,59.85515054,6135e006383e6ea6c3d06a28,61364bdda30f86cb5a625624,,,,,,,,
j,2.2728,0,48,48,7,1,5fb9afe59151376740f3fa56,OOORRRO,OOORRRR,21.6194508,21.899017,series_1,5fb9afe59151376740f3fa56,Mężczyzna,20,2021-09-06_19h16.07.339,rantool2,2021.1.4,Win32,59.85515054,6135e006383e6ea6c3d06a28,61364bdda30f86cb5a625624,,,,,,,,
j,3.6616,0,49,49,51,1,5fb9afe59151376740f3fa56,RROORRO,RROORRR,21.89852628,22.02786418,series_1,5fb9afe59151376740f3fa56,Mężczyzna,20,2021-09-06_19h16.07.339,rantool2,2021.1.4,Win32,59.85515054,6135e006383e6ea6c3d06a28,61364bdda30f86cb5a625624,,,,,,,,
f,3.6012,0,50,50,19,1,5fb9afe59151376740f3fa56,OROORRO,OROORRR,21.73568164,22.11181017,series_1,5fb9afe59151376740f3fa56,Mężczyzna,20,2021-09-06_19h16.07.339,rantool2,2021.1.4,Win32,59.85515054,6135e006383e6ea6c3d06a28,61364bdda30f86cb5a625624,,,,,,,,
f,3.5214,0,51,51,23,1,5fb9afe59151376740f3fa56,ORORRRO,ORORRRR,22.1285618,21.9921709,series_0,5fb9afe59151376740f3fa56,Mężczyzna,20,2021-09-06_19h16.07.339,rantool2,2021.1.4,Win32,59.85515054,6135e006383e6ea6c3d06a28,61364bdda30f86cb5a625624,,,,,,,,
f,2.7317,0,52,52,14,1,5fb9afe59151376740f3fa56,OORRROO,OORRROR,22.24142883,22.16977179,series_0,5fb9afe59151376740f3fa56,Mężczyzna,20,2021-09-06_19h16.07.339,rantool2,2021.1.4,Win32,59.85515054,6135e006383e6ea6c3d06a28,61364bdda30f86cb5a625624,,,,,,,,
f,1.9669,0,53,53,3,1,5fb9afe59151376740f3fa56,OOOORRO,OOOORRR,20.90986523,21.74922619,series_1,5fb9afe59151376740f3fa56,Mężczyzna,20,2021-09-06_19h16.07.339,rantool2,2021.1.4,Win32,59.85515054,6135e006383e6ea6c3d06a28,61364bdda30f86cb5a625624,,,,,,,,
j,1.8713,0,54,54,50,1,5fb9afe59151376740f3fa56,RROOROO,RROOROR,21.73568164,22.02566557,series_1,5fb9afe59151376740f3fa56,Mężczyzna,20,2021-09-06_19h16.07.339,rantool2,2021.1.4,Win32,59.85515054,6135e006383e6ea6c3d06a28,61364bdda30f86cb5a625624,,,,,,,,
j,1.7273,0,55,55,57,1,5fb9afe59151376740f3fa56,RRROORO,RRROORR,21.82425538,22.07102821,series_1,5fb9afe59151376740f3fa56,Mężczyzna,20,2021-09-06_19h16.07.339,rantool2,2021.1.4,Win32,59.85515054,6135e006383e6ea6c3d06a28,61364bdda30f86cb5a625624,,,,,,,,
j,1.6683,0,56,56,31,1,5fb9afe59151376740f3fa56,ORRRRRO,ORRRRRR,22.16413392,20.74050628,series_0,5fb9afe59151376740f3fa56,Mężczyzna,20,2021-09-06_19h16.07.339,rantool2,2021.1.4,Win32,59.85515054,6135e006383e6ea6c3d06a28,61364bdda30f86cb5a625624,,,,,,,,
j,2.2565,0,57,57,33,1,5fb9afe59151376740f3fa56,ROOOORO,ROOOORR,20.83779602,22.03072203,series_1,5fb9afe59151376740f3fa56,Mężczyzna,20,2021-09-06_19h16.07.339,rantool2,2021.1.4,Win32,59.85515054,6135e006383e6ea6c3d06a28,61364bdda30f86cb5a625624,,,,,,,,
f,1.4065,0,58,58,34,1,5fb9afe59151376740f3fa56,ROOOROO,ROOOROR,21.03750787,21.24781509,series_1,5fb9afe59151376740f3fa56,Mężczyzna,20,2021-09-06_19h16.07.339,rantool2,2021.1.4,Win32,59.85515054,6135e006383e6ea6c3d06a28,61364bdda30f86cb5a625624,,,,,,,,
j,1.588,0,59,59,41,1,5fb9afe59151376740f3fa56,ROROORO,ROROORR,20.42602454,21.71443381,series_1,5fb9afe59151376740f3fa56,Mężczyzna,20,2021-09-06_19h16.07.339,rantool2,2021.1.4,Win32,59.85515054,6135e006383e6ea6c3d06a28,61364bdda30f86cb5a625624,,,,,,,,
j,1.8262,0,60,60,18,1,5fb9afe59151376740f3fa56,OROOROO,OROOROR,20.84860893,21.22513037,series_1,5fb9afe59151376740f3fa56,Mężczyzna,20,2021-09-06_19h16.07.339,rantool2,2021.1.4,Win32,59.85515054,6135e006383e6ea6c3d06a28,61364bdda30f86cb5a625624,,,,,,,,
f,1.8784,0,61,61,15,1,5fb9afe59151376740f3fa56,OORRRRO,OORRRRR,22.10108823,21.74922619,series_0,5fb9afe59151376740f3fa56,Mężczyzna,20,2021-09-06_19h16.07.339,rantool2,2021.1.4,Win32,59.85515054,6135e006383e6ea6c3d06a28,61364bdda30f86cb5a625624,,,,,,,,
f,1.6894,0,62,62,8,1,5fb9afe59151376740f3fa56,OOROOOO,OOROOOR,19.91402015,20.89823192,series_1,5fb9afe59151376740f3fa56,Mężczyzna,20,2021-09-06_19h16.07.339,rantool2,2021.1.4,Win32,59.85515054,6135e006383e6ea6c3d06a28,61364bdda30f86cb5a625624,,,,,,,,
j,1.461,0,63,63,13,1,5fb9afe59151376740f3fa56,OORRORO,OORRORR,21.66733484,22.11181017,series_1,5fb9afe59151376740f3fa56,Mężczyzna,20,2021-09-06_19h16.07.339,rantool2,2021.1.4,Win32,59.85515054,6135e006383e6ea6c3d06a28,61364bdda30f86cb5a625624,,,,,,,,
,,,,,,,5fb9afe59151376740f3fa56,,,,,,5fb9afe59151376740f3fa56,Mężczyzna,20,2021-09-06_19h16.07.339,rantool2,2021.1.4,Win32,59.85515054,6135e006383e6ea6c3d06a28,61364bdda30f86cb5a625624,0,,,0,0,0,0,1
,,,,,,,5fb9afe59151376740f3fa56,,,,,,5fb9afe59151376740f3fa56,Mężczyzna,20,2021-09-06_19h16.07.339,rantool2,2021.1.4,Win32,59.85515054,6135e006383e6ea6c3d06a28,61364bdda30f86cb5a625624,"[""comma""]",0,[0.4614000000953524],1,0,1,0,1
,,,,,,,5fb9afe59151376740f3fa56,,,,,,5fb9afe59151376740f3fa56,Mężczyzna,20,2021-09-06_19h16.07.339,rantool2,2021.1.4,Win32,59.85515054,6135e006383e6ea6c3d06a28,61364bdda30f86cb5a625624,"[""period""]",0,[0.626599999904613],2,0,2,0,1
,,,,,,,5fb9afe59151376740f3fa56,,,,,,5fb9afe59151376740f3fa56,Mężczyzna,20,2021-09-06_19h16.07.339,rantool2,2021.1.4,Win32,59.85515054,6135e006383e6ea6c3d06a28,61364bdda30f86cb5a625624,"[""period""]",0,[0.650400000095317],3,0,3,0,1
,,,,,,,5fb9afe59151376740f3fa56,,,,,,5fb9afe59151376740f3fa56,Mężczyzna,20,2021-09-06_19h16.07.339,rantool2,2021.1.4,Win32,59.85515054,6135e006383e6ea6c3d06a28,61364bdda30f86cb5a625624,"[""period""]",0,[0.48409999990462893],4,0,4,0,1
,,,,,,,5fb9afe59151376740f3fa56,,,,,,5fb9afe59151376740f3fa56,Mężczyzna,20,2021-09-06_19h16.07.339,rantool2,2021.1.4,Win32,59.85515054,6135e006383e6ea6c3d06a28,61364bdda30f86cb5a625624,"[""period""]",0,[0.45020000028614504],5,0,5,0,1
,,,,,,,5fb9afe59151376740f3fa56,,,,,,5fb9afe59151376740f3fa56,Mężczyzna,20,2021-09-06_19h16.07.339,rantool2,2021.1.4,Win32,59.85515054,6135e006383e6ea6c3d06a28,61364bdda30f86cb5a625624,"[""comma""]",0,[0.42709999990461256],6,0,6,0,1
,,,,,,,5fb9afe59151376740f3fa56,,,,,,5fb9afe59151376740f3fa56,Mężczyzna,20,2021-09-06_19h16.07.339,rantool2,2021.1.4,Win32,59.85515054,6135e006383e6ea6c3d06a28,61364bdda30f86cb5a625624,"[""comma""]",0,[0.39809999990467304],7,0,7,0,1
,,,,,,,5fb9afe59151376740f3fa56,,,,,,5fb9afe59151376740f3fa56,Mężczyzna,20,2021-09-06_19h16.07.339,rantool2,2021.1.4,Win32,59.85515054,6135e006383e6ea6c3d06a28,61364bdda30f86cb5a625624,"[""period""]",0,[0.3369000000953406],8,0,8,0,1
,,,,,,,5fb9afe59151376740f3fa56,,,,,,5fb9afe59151376740f3fa56,Mężczyzna,20,2021-09-06_19h16.07.339,rantool2,2021.1.4,Win32,59.85515054,6135e006383e6ea6c3d06a28,61364bdda30f86cb5a625624,"[""period""]",0,[0.3954000000953215],9,0,9,0,1
,,,,,,,5fb9afe59151376740f3fa56,,,,,,5fb9afe59151376740f3fa56,Mężczyzna,20,2021-09-06_19h16.07.339,rantool2,2021.1.4,Win32,59.85515054,6135e006383e6ea6c3d06a28,61364bdda30f86cb5a625624,"[""period""]",0,[0.6394999999999982],10,0,10,0,1
,,,,,,,5fb9afe59151376740f3fa56,,,,,,5fb9afe59151376740f3fa56,Mężczyzna,20,2021-09-06_19h16.07.339,rantool2,2021.1.4,Win32,59.85515054,6135e006383e6ea6c3d06a28,61364bdda30f86cb5a625624,"[""comma""]",0,[0.45090000009537334],11,0,11,0,1
,,,,,,,5fb9afe59151376740f3fa56,,,,,,5fb9afe59151376740f3fa56,Mężczyzna,20,2021-09-06_19h16.07.339,rantool2,2021.1.4,Win32,59.85515054,6135e006383e6ea6c3d06a28,61364bdda30f86cb5a625624,"[""comma""]",0,[0.42929999971386223],12,0,12,0,1
,,,,,,,5fb9afe59151376740f3fa56,,,,,,5fb9afe59151376740f3fa56,Mężczyzna,20,2021-09-06_19h16.07.339,rantool2,2021.1.4,Win32,59.85515054,6135e006383e6ea6c3d06a28,61364bdda30f86cb5a625624,"[""comma""]",0,[0.4841999998092774],13,0,13,0,1
,,,,,,,5fb9afe59151376740f3fa56,,,,,,5fb9afe59151376740f3fa56,Mężczyzna,20,2021-09-06_19h16.07.339,rantool2,2021.1.4,Win32,59.85515054,6135e006383e6ea6c3d06a28,61364bdda30f86cb5a625624,"[""period""]",0,[0.3344000000953997],14,0,14,0,1
,,,,,,,5fb9afe59151376740f3fa56,,,,,,5fb9afe59151376740f3fa56,Mężczyzna,20,2021-09-06_19h16.07.339,rantool2,2021.1.4,Win32,59.85515054,6135e006383e6ea6c3d06a28,61364bdda30f86cb5a625624,"[""period""]",0,[0.3875999999045803],15,0,15,0,1
,,,,,,,5fb9afe59151376740f3fa56,,,,,,5fb9afe59151376740f3fa56,Mężczyzna,20,2021-09-06_19h16.07.339,rantool2,2021.1.4,Win32,59.85515054,6135e006383e6ea6c3d06a28,61364bdda30f86cb5a625624,"[""period""]",0,[0.3533000001907567],16,0,16,0,1
,,,,,,,5fb9afe59151376740f3fa56,,,,,,5fb9afe59151376740f3fa56,Mężczyzna,20,2021-09-06_19h16.07.339,rantool2,2021.1.4,Win32,59.85515054,6135e006383e6ea6c3d06a28,61364bdda30f86cb5a625624,"[""period""]",0,[0.29430000019073077],17,0,17,0,1
,,,,,,,5fb9afe59151376740f3fa56,,,,,,5fb9afe59151376740f3fa56,Mężczyzna,20,2021-09-06_19h16.07.339,rantool2,2021.1.4,Win32,59.85515054,6135e006383e6ea6c3d06a28,61364bdda30f86cb5a625624,"[""comma""]",0,[0.3611000003814411],18,0,18,0,1
,,,,,,,5fb9afe59151376740f3fa56,,,,,,5fb9afe59151376740f3fa56,Mężczyzna,20,2021-09-06_19h16.07.339,rantool2,2021.1.4,Win32,59.85515054,6135e006383e6ea6c3d06a28,61364bdda30f86cb5a625624,"[""comma""]",0,[0.31759999990464394],19,0,19,0,1
,,,,,,,5fb9afe59151376740f3fa56,,,,,,5fb9afe59151376740f3fa56,Mężczyzna,20,2021-09-06_19h16.07.339,rantool2,2021.1.4,Win32,59.85515054,6135e006383e6ea6c3d06a28,61364bdda30f86cb5a625624,"[""comma""]",0,[0.26730000019074396],20,0,20,0,1
,,,,,,,5fb9afe59151376740f3fa56,,,,,,5fb9afe59151376740f3fa56,Mężczyzna,20,2021-09-06_19h16.07.339,rantool2,2021.1.4,Win32,59.85515054,6135e006383e6ea6c3d06a28,61364bdda30f86cb5a625624,"[""period""]",0,[0.2839999999999918],21,0,21,0,1
,,,,,,,5fb9afe59151376740f3fa56,,,,,,5fb9afe59151376740f3fa56,Mężczyzna,20,2021-09-06_19h16.07.339,rantool2,2021.1.4,Win32,59.85515054,6135e006383e6ea6c3d06a28,61364bdda30f86cb5a625624,"[""period""]",0,[0.418099999904598],22,0,22,0,1
,,,,,,,5fb9afe59151376740f3fa56,,,,,,5fb9afe59151376740f3fa56,Mężczyzna,20,2021-09-06_19h16.07.339,rantool2,2021.1.4,Win32,59.85515054,6135e006383e6ea6c3d06a28,61364bdda30f86cb5a625624,"[""period""]",0,[0.40250000000003183],23,0,23,0,1
,,,,,,,5fb9afe59151376740f3fa56,,,,,,5fb9afe59151376740f3fa56,Mężczyzna,20,2021-09-06_19h16.07.339,rantool2,2021.1.4,Win32,59.85515054,6135e006383e6ea6c3d06a28,61364bdda30f86cb5a625624,"[""comma""]",0,[0.5510999999046362],24,0,24,0,1
,,,,,,,5fb9afe59151376740f3fa56,,,,,,5fb9afe59151376740f3fa56,Mężczyzna,20,2021-09-06_19h16.07.339,rantool2,2021.1.4,Win32,59.85515054,6135e006383e6ea6c3d06a28,61364bdda30f86cb5a625624,"[""comma""]",0,[0.45800000000002683],25,0,25,0,1
,,,,,,,5fb9afe59151376740f3fa56,,,,,,5fb9afe59151376740f3fa56,Mężczyzna,20,2021-09-06_19h16.07.339,rantool2,2021.1.4,Win32,59.85515054,6135e006383e6ea6c3d06a28,61364bdda30f86cb5a625624,"[""comma""]",0,[0.4674000000953811],26,0,26,0,1
,,,,,,,5fb9afe59151376740f3fa56,,,,,,5fb9afe59151376740f3fa56,Mężczyzna,20,2021-09-06_19h16.07.339,rantool2,2021.1.4,Win32,59.85515054,6135e006383e6ea6c3d06a28,61364bdda30f86cb5a625624,"[""period""]",0,[0.42370000028608956],27,0,27,0,1
,,,,,,,5fb9afe59151376740f3fa56,,,,,,5fb9afe59151376740f3fa56,Mężczyzna,20,2021-09-06_19h16.07.339,rantool2,2021.1.4,Win32,59.85515054,6135e006383e6ea6c3d06a28,61364bdda30f86cb5a625624,"[""period""]",0,[0.32179999971390316],28,0,28,0,1
,,,,,,,5fb9afe59151376740f3fa56,,,,,,5fb9afe59151376740f3fa56,Mężczyzna,20,2021-09-06_19h16.07.339,rantool2,2021.1.4,Win32,59.85515054,6135e006383e6ea6c3d06a28,61364bdda30f86cb5a625624,"[""period""]",0,[0.23059999990465485],29,0,29,0,1
,,,,,,,5fb9afe59151376740f3fa56,,,,,,5fb9afe59151376740f3fa56,Mężczyzna,20,2021-09-06_19h16.07.339,rantool2,2021.1.4,Win32,59.85515054,6135e006383e6ea6c3d06a28,61364bdda30f86cb5a625624,"[""period""]",0,[0.07949999999999591],30,0,30,0,1
,,,,,,,5fb9afe59151376740f3fa56,,,,,,5fb9afe59151376740f3fa56,Mężczyzna,20,2021-09-06_19h16.07.339,rantool2,2021.1.4,Win32,59.85515054,6135e006383e6ea6c3d06a28,61364bdda30f86cb5a625624,"[""period""]",0,[0.42690000009537243],31,0,31,0,1
,,,,,,,5fb9afe59151376740f3fa56,,,,,,5fb9afe59151376740f3fa56,Mężczyzna,20,2021-09-06_19h16.07.339,rantool2,2021.1.4,Win32,59.85515054,6135e006383e6ea6c3d06a28,61364bdda30f86cb5a625624,"[""period""]",0,[0.5009000000953279],32,0,32,0,1
,,,,,,,5fb9afe59151376740f3fa56,,,,,,5fb9afe59151376740f3fa56,Mężczyzna,20,2021-09-06_19h16.07.339,rantool2,2021.1.4,Win32,59.85515054,6135e006383e6ea6c3d06a28,61364bdda30f86cb5a625624,"[""comma""]",0,[0.36690000009537016],33,0,33,0,1
,,,,,,,5fb9afe59151376740f3fa56,,,,,,5fb9afe59151376740f3fa56,Mężczyzna,20,2021-09-06_19h16.07.339,rantool2,2021.1.4,Win32,59.85515054,6135e006383e6ea6c3d06a28,61364bdda30f86cb5a625624,"[""comma""]",0,[0.29170000028608456],34,0,34,0,1
,,,,,,,5fb9afe59151376740f3fa56,,,,,,5fb9afe59151376740f3fa56,Mężczyzna,20,2021-09-06_19h16.07.339,rantool2,2021.1.4,Win32,59.85515054,6135e006383e6ea6c3d06a28,61364bdda30f86cb5a625624,"[""comma""]",0,[0.2793000001907444],35,0,35,0,1
,,,,,,,5fb9afe59151376740f3fa56,,,,,,5fb9afe59151376740f3fa56,Mężczyzna,20,2021-09-06_19h16.07.339,rantool2,2021.1.4,Win32,59.85515054,6135e006383e6ea6c3d06a28,61364bdda30f86cb5a625624,"[""comma""]",0,[0.2963000001906835],36,0,36,0,1
,,,,,,,5fb9afe59151376740f3fa56,,,,,,5fb9afe59151376740f3fa56,Mężczyzna,20,2021-09-06_19h16.07.339,rantool2,2021.1.4,Win32,59.85515054,6135e006383e6ea6c3d06a28,61364bdda30f86cb5a625624,"[""period""]",0,[0.3063000001907312],37,0,37,0,1
,,,,,,,5fb9afe59151376740f3fa56,,,,,,5fb9afe59151376740f3fa56,Mężczyzna,20,2021-09-06_19h16.07.339,rantool2,2021.1.4,Win32,59.85515054,6135e006383e6ea6c3d06a28,61364bdda30f86cb5a625624,"[""period""]",0,[0.2434000000953347],38,0,38,0,1
,,,,,,,5fb9afe59151376740f3fa56,,,,,,5fb9afe59151376740f3fa56,Mężczyzna,20,2021-09-06_19h16.07.339,rantool2,2021.1.4,Win32,59.85515054,6135e006383e6ea6c3d06a28,61364bdda30f86cb5a625624,"[""comma""]",0,[0.31909999990460847],39,0,39,0,1
,,,,,,,5fb9afe59151376740f3fa56,,,,,,5fb9afe59151376740f3fa56,Mężczyzna,20,2021-09-06_19h16.07.339,rantool2,2021.1.4,Win32,59.85515054,6135e006383e6ea6c3d06a28,61364bdda30f86cb5a625624,"[""comma""]",0,[0.3395999999046353],40,0,40,0,1
,,,,,,,5fb9afe59151376740f3fa56,,,,,,5fb9afe59151376740f3fa56,Mężczyzna,20,2021-09-06_19h16.07.339,rantool2,2021.1.4,Win32,59.85515054,6135e006383e6ea6c3d06a28,61364bdda30f86cb5a625624,"[""comma""]",0,[0.26340000009537334],41,0,41,0,1
,,,,,,,5fb9afe59151376740f3fa56,,,,,,5fb9afe59151376740f3fa56,Mężczyzna,20,2021-09-06_19h16.07.339,rantool2,2021.1.4,Win32,59.85515054,6135e006383e6ea6c3d06a28,61364bdda30f86cb5a625624,"[""period""]",0,[0.3213000001907176],42,0,42,0,1
,,,,,,,5fb9afe59151376740f3fa56,,,,,,5fb9afe59151376740f3fa56,Mężczyzna,20,2021-09-06_19h16.07.339,rantool2,2021.1.4,Win32,59.85515054,6135e006383e6ea6c3d06a28,61364bdda30f86cb5a625624,"[""period""]",0,[0.2012000002861214],43,0,43,0,1
,,,,,,,5fb9afe59151376740f3fa56,,,,,,5fb9afe59151376740f3fa56,Mężczyzna,20,2021-09-06_19h16.07.339,rantool2,2021.1.4,Win32,59.85515054,6135e006383e6ea6c3d06a28,61364bdda30f86cb5a625624,"[""period""]",0,[0.3009999999999877],44,0,44,0,1
,,,,,,,5fb9afe59151376740f3fa56,,,,,,5fb9afe59151376740f3fa56,Mężczyzna,20,2021-09-06_19h16.07.339,rantool2,2021.1.4,Win32,59.85515054,6135e006383e6ea6c3d06a28,61364bdda30f86cb5a625624,"[""period""]",0,[0.21039999961851663],45,0,45,0,1
,,,,,,,5fb9afe59151376740f3fa56,,,,,,5fb9afe59151376740f3fa56,Mężczyzna,20,2021-09-06_19h16.07.339,rantool2,2021.1.4,Win32,59.85515054,6135e006383e6ea6c3d06a28,61364bdda30f86cb5a625624,"[""comma""]",0,[0.21740000009532423],46,0,46,0,1
,,,,,,,5fb9afe59151376740f3fa56,,,,,,5fb9afe59151376740f3fa56,Mężczyzna,20,2021-09-06_19h16.07.339,rantool2,2021.1.4,Win32,59.85515054,6135e006383e6ea6c3d06a28,61364bdda30f86cb5a625624,"[""comma""]",0,[0.25770000028609275],47,0,47,0,1
,,,,,,,5fb9afe59151376740f3fa56,,,,,,5fb9afe59151376740f3fa56,Mężczyzna,20,2021-09-06_19h16.07.339,rantool2,2021.1.4,Win32,59.85515054,6135e006383e6ea6c3d06a28,61364bdda30f86cb5a625624,"[""period""]",0,[0.2775999999046235],48,0,48,0,1
,,,,,,,5fb9afe59151376740f3fa56,,,,,,5fb9afe59151376740f3fa56,Mężczyzna,20,2021-09-06_19h16.07.339,rantool2,2021.1.4,Win32,59.85515054,6135e006383e6ea6c3d06a28,61364bdda30f86cb5a625624,"[""comma""]",0,[0.2453000001907526],49,0,49,0,1
,,,,,,,5fb9afe59151376740f3fa56,,,,,,5fb9afe59151376740f3fa56,Mężczyzna,20,2021-09-06_19h16.07.339,rantool2,2021.1.4,Win32,59.85515054,6135e006383e6ea6c3d06a28,61364bdda30f86cb5a625624,"[""comma""]",0,[0.24780000019069348],50,0,50,0,1
,,,,,,,5fb9afe59151376740f3fa56,,,,,,5fb9afe59151376740f3fa56,Mężczyzna,20,2021-09-06_19h16.07.339,rantool2,2021.1.4,Win32,59.85515054,6135e006383e6ea6c3d06a28,61364bdda30f86cb5a625624,"[""comma""]",0,[0.23490000009536516],51,0,51,0,1
,,,,,,,5fb9afe59151376740f3fa56,,,,,,5fb9afe59151376740f3fa56,Mężczyzna,20,2021-09-06_19h16.07.339,rantool2,2021.1.4,Win32,59.85515054,6135e006383e6ea6c3d06a28,61364bdda30f86cb5a625624,"[""period""]",0,[0.23579999971394727],52,0,52,0,1
,,,,,,,5fb9afe59151376740f3fa56,,,,,,5fb9afe59151376740f3fa56,Mężczyzna,20,2021-09-06_19h16.07.339,rantool2,2021.1.4,Win32,59.85515054,6135e006383e6ea6c3d06a28,61364bdda30f86cb5a625624,"[""period""]",0,[0.27469999980928606],53,0,53,0,1
,,,,,,,5fb9afe59151376740f3fa56,,,,,,5fb9afe59151376740f3fa56,Mężczyzna,20,2021-09-06_19h16.07.339,rantool2,2021.1.4,Win32,59.85515054,6135e006383e6ea6c3d06a28,61364bdda30f86cb5a625624,"[""period""]",0,[0.27240000009533105],54,0,54,0,1
,,,,,,,5fb9afe59151376740f3fa56,,,,,,5fb9afe59151376740f3fa56,Mężczyzna,20,2021-09-06_19h16.07.339,rantool2,2021.1.4,Win32,59.85515054,6135e006383e6ea6c3d06a28,61364bdda30f86cb5a625624,"[""comma""]",0,[0.2713000001907062],55,0,55,0,1
,,,,,,,5fb9afe59151376740f3fa56,,,,,,5fb9afe59151376740f3fa56,Mężczyzna,20,2021-09-06_19h16.07.339,rantool2,2021.1.4,Win32,59.85515054,6135e006383e6ea6c3d06a28,61364bdda30f86cb5a625624,"[""period""]",0,[0.2644000000953497],56,0,56,0,1
,,,,,,,5fb9afe59151376740f3fa56,,,,,,5fb9afe59151376740f3fa56,Mężczyzna,20,2021-09-06_19h16.07.339,rantool2,2021.1.4,Win32,59.85515054,6135e006383e6ea6c3d06a28,61364bdda30f86cb5a625624,"[""comma""]",0,[0.2970999999046171],57,0,57,0,1
,,,,,,,5fb9afe59151376740f3fa56,,,,,,5fb9afe59151376740f3fa56,Mężczyzna,20,2021-09-06_19h16.07.339,rantool2,2021.1.4,Win32,59.85515054,6135e006383e6ea6c3d06a28,61364bdda30f86cb5a625624,"[""comma""]",0,[0.30059999990464803],58,0,58,0,1
,,,,,,,5fb9afe59151376740f3fa56,,,,,,5fb9afe59151376740f3fa56,Mężczyzna,20,2021-09-06_19h16.07.339,rantool2,2021.1.4,Win32,59.85515054,6135e006383e6ea6c3d06a28,61364bdda30f86cb5a625624,"[""comma""]",0,[0.2849000000953197],59,0,59,0,1
,,,,,,,5fb9afe59151376740f3fa56,,,,,,5fb9afe59151376740f3fa56,Mężczyzna,20,2021-09-06_19h16.07.339,rantool2,2021.1.4,Win32,59.85515054,6135e006383e6ea6c3d06a28,61364bdda30f86cb5a625624,"[""period""]",0,[0.2796999998092815],60,0,60,0,1
,,,,,,,5fb9afe59151376740f3fa56,,,,,,5fb9afe59151376740f3fa56,Mężczyzna,20,2021-09-06_19h16.07.339,rantool2,2021.1.4,Win32,59.85515054,6135e006383e6ea6c3d06a28,61364bdda30f86cb5a625624,"[""period""]",0,[0.30299999999999727],61,0,61,0,1
,,,,,,,5fb9afe59151376740f3fa56,,,,,,5fb9afe59151376740f3fa56,Mężczyzna,20,2021-09-06_19h16.07.339,rantool2,2021.1.4,Win32,59.85515054,6135e006383e6ea6c3d06a28,61364bdda30f86cb5a625624,"[""comma""]",0,[0.12759999990458937],62,0,62,0,1
,,,,,,,5fb9afe59151376740f3fa56,,,,,,5fb9afe59151376740f3fa56,Mężczyzna,20,2021-09-06_19h16.07.339,rantool2,2021.1.4,Win32,59.85515054,6135e006383e6ea6c3d06a28,61364bdda30f86cb5a625624,"[""comma""]",0,[0.05640000009537971],63,0,63,0,1
,,,,,,,5fb9afe59151376740f3fa56,,,,,,5fb9afe59151376740f3fa56,Mężczyzna,20,2021-09-06_19h16.07.339,rantool2,2021.1.4,Win32,59.85515054,6135e006383e6ea6c3d06a28,61364bdda30f86cb5a625624,"[""comma""]",0,[0.25609999990467713],64,0,64,0,1
,,,,,,,5fb9afe59151376740f3fa56,,,,,,5fb9afe59151376740f3fa56,Mężczyzna,20,2021-09-06_19h16.07.339,rantool2,2021.1.4,Win32,59.85515054,6135e006383e6ea6c3d06a28,61364bdda30f86cb5a625624,"[""comma""]",0,[0.3068000001907194],65,0,65,0,1
,,,,,,,5fb9afe59151376740f3fa56,,,,,,5fb9afe59151376740f3fa56,Mężczyzna,20,2021-09-06_19h16.07.339,rantool2,2021.1.4,Win32,59.85515054,6135e006383e6ea6c3d06a28,61364bdda30f86cb5a625624,"[""period""]",0,[0.30059999990464803],66,0,66,0,1
,,,,,,,5fb9afe59151376740f3fa56,,,,,,5fb9afe59151376740f3fa56,Mężczyzna,20,2021-09-06_19h16.07.339,rantool2,2021.1.4,Win32,59.85515054,6135e006383e6ea6c3d06a28,61364bdda30f86cb5a625624,"[""period""]",0,[0.3172999997138959],67,0,67,0,1
,,,,,,,5fb9afe59151376740f3fa56,,,,,,5fb9afe59151376740f3fa56,Mężczyzna,20,2021-09-06_19h16.07.339,rantool2,2021.1.4,Win32,59.85515054,6135e006383e6ea6c3d06a28,61364bdda30f86cb5a625624,"[""period""]",0,[0.23640000009538653],68,0,68,0,1
,,,,,,,5fb9afe59151376740f3fa56,,,,,,5fb9afe59151376740f3fa56,Mężczyzna,20,2021-09-06_19h16.07.339,rantool2,2021.1.4,Win32,59.85515054,6135e006383e6ea6c3d06a28,61364bdda30f86cb5a625624,"[""comma""]",0,[0.2508000001907362],69,0,69,0,1
,,,,,,,5fb9afe59151376740f3fa56,,,,,,5fb9afe59151376740f3fa56,Mężczyzna,20,2021-09-06_19h16.07.339,rantool2,2021.1.4,Win32,59.85515054,6135e006383e6ea6c3d06a28,61364bdda30f86cb5a625624,"[""comma""]",0,[0.27919999980929333],70,0,70,0,1
,,,,,,,5fb9afe59151376740f3fa56,,,,,,5fb9afe59151376740f3fa56,Mężczyzna,20,2021-09-06_19h16.07.339,rantool2,2021.1.4,Win32,59.85515054,6135e006383e6ea6c3d06a28,61364bdda30f86cb5a625624,"[""comma""]",0,[0.19530000019074123],71,0,71,0,1
,,,,,,,5fb9afe59151376740f3fa56,,,,,,5fb9afe59151376740f3fa56,Mężczyzna,20,2021-09-06_19h16.07.339,rantool2,2021.1.4,Win32,59.85515054,6135e006383e6ea6c3d06a28,61364bdda30f86cb5a625624,"[""comma""]",0,[0.23399999999998045],72,0,72,0,1
,,,,,,,5fb9afe59151376740f3fa56,,,,,,5fb9afe59151376740f3fa56,Mężczyzna,20,2021-09-06_19h16.07.339,rantool2,2021.1.4,Win32,59.85515054,6135e006383e6ea6c3d06a28,61364bdda30f86cb5a625624,"[""period""]",0,[0.1945999999046535],73,0,73,0,1
,,,,,,,5fb9afe59151376740f3fa56,,,,,,5fb9afe59151376740f3fa56,Mężczyzna,20,2021-09-06_19h16.07.339,rantool2,2021.1.4,Win32,59.85515054,6135e006383e6ea6c3d06a28,61364bdda30f86cb5a625624,"[""period""]",0,[0.15169999980923876],74,0,74,0,1
,,,,,,,5fb9afe59151376740f3fa56,,,,,,5fb9afe59151376740f3fa56,Mężczyzna,20,2021-09-06_19h16.07.339,rantool2,2021.1.4,Win32,59.85515054,6135e006383e6ea6c3d06a28,61364bdda30f86cb5a625624,"[""period""]",0,[0.33420000028610275],75,0,75,0,1
,,,,,,,5fb9afe59151376740f3fa56,,,,,,5fb9afe59151376740f3fa56,Mężczyzna,20,2021-09-06_19h16.07.339,rantool2,2021.1.4,Win32,59.85515054,6135e006383e6ea6c3d06a28,61364bdda30f86cb5a625624,"[""comma""]",0,[0.19750000000004775],76,0,76,0,1
,,,,,,,5fb9afe59151376740f3fa56,,,,,,5fb9afe59151376740f3fa56,Mężczyzna,20,2021-09-06_19h16.07.339,rantool2,2021.1.4,Win32,59.85515054,6135e006383e6ea6c3d06a28,61364bdda30f86cb5a625624,"[""comma""]",0,[0.3040999999046221],77,0,77,0,1
,,,,,,,5fb9afe59151376740f3fa56,,,,,,5fb9afe59151376740f3fa56,Mężczyzna,20,2021-09-06_19h16.07.339,rantool2,2021.1.4,Win32,59.85515054,6135e006383e6ea6c3d06a28,61364bdda30f86cb5a625624,"[""comma""]",0,[0.27209999990463984],78,0,78,0,1
,,,,,,,5fb9afe59151376740f3fa56,,,,,,5fb9afe59151376740f3fa56,Mężczyzna,20,2021-09-06_19h16.07.339,rantool2,2021.1.4,Win32,59.85515054,6135e006383e6ea6c3d06a28,61364bdda30f86cb5a625624,"[""comma""]",0,[0.16669999980922512],79,0,79,0,1
,,,,,,,5fb9afe59151376740f3fa56,,,,,,5fb9afe59151376740f3fa56,Mężczyzna,20,2021-09-06_19h16.07.339,rantool2,2021.1.4,Win32,59.85515054,6135e006383e6ea6c3d06a28,61364bdda30f86cb5a625624,"[""period""]",0,[0.2555999999046321],80,0,80,0,1
,,,,,,,5fb9afe59151376740f3fa56,,,,,,5fb9afe59151376740f3fa56,Mężczyzna,20,2021-09-06_19h16.07.339,rantool2,2021.1.4,Win32,59.85515054,6135e006383e6ea6c3d06a28,61364bdda30f86cb5a625624,"[""period""]",0,[0.3048000001907667],81,0,81,0,1
,,,,,,,5fb9afe59151376740f3fa56,,,,,,5fb9afe59151376740f3fa56,Mężczyzna,20,2021-09-06_19h16.07.339,rantool2,2021.1.4,Win32,59.85515054,6135e006383e6ea6c3d06a28,61364bdda30f86cb5a625624,"[""comma""]",0,[0.31749999999999545],82,0,82,0,1
,,,,,,,5fb9afe59151376740f3fa56,,,,,,5fb9afe59151376740f3fa56,Mężczyzna,20,2021-09-06_19h16.07.339,rantool2,2021.1.4,Win32,59.85515054,6135e006383e6ea6c3d06a28,61364bdda30f86cb5a625624,"[""comma""]",0,[0.3024000000953606],83,0,83,0,1
,,,,,,,5fb9afe59151376740f3fa56,,,,,,5fb9afe59151376740f3fa56,Mężczyzna,20,2021-09-06_19h16.07.339,rantool2,2021.1.4,Win32,59.85515054,6135e006383e6ea6c3d06a28,61364bdda30f86cb5a625624,"[""period""]",0,[0.24219999980925877],84,0,84,0,1
,,,,,,,5fb9afe59151376740f3fa56,,,,,,5fb9afe59151376740f3fa56,Mężczyzna,20,2021-09-06_19h16.07.339,rantool2,2021.1.4,Win32,59.85515054,6135e006383e6ea6c3d06a28,61364bdda30f86cb5a625624,"[""period""]",0,[0.25],85,0,85,0,1
,,,,,,,5fb9afe59151376740f3fa56,,,,,,5fb9afe59151376740f3fa56,Mężczyzna,20,2021-09-06_19h16.07.339,rantool2,2021.1.4,Win32,59.85515054,6135e006383e6ea6c3d06a28,61364bdda30f86cb5a625624,"[""period""]",0,[0.21890000009540245],86,0,86,0,1
,,,,,,,5fb9afe59151376740f3fa56,,,,,,5fb9afe59151376740f3fa56,Mężczyzna,20,2021-09-06_19h16.07.339,rantool2,2021.1.4,Win32,59.85515054,6135e006383e6ea6c3d06a28,61364bdda30f86cb5a625624,"[""period""]",0,[0.2912999997138854],87,0,87,0,1
,,,,,,,5fb9afe59151376740f3fa56,,,,,,5fb9afe59151376740f3fa56,Mężczyzna,20,2021-09-06_19h16.07.339,rantool2,2021.1.4,Win32,59.85515054,6135e006383e6ea6c3d06a28,61364bdda30f86cb5a625624,"[""period""]",0,[0.2425999999046553],88,0,88,0,1
,,,,,,,5fb9afe59151376740f3fa56,,,,,,5fb9afe59151376740f3fa56,Mężczyzna,20,2021-09-06_19h16.07.339,rantool2,2021.1.4,Win32,59.85515054,6135e006383e6ea6c3d06a28,61364bdda30f86cb5a625624,"[""period""]",0,[0.2965000000000373],89,0,89,0,1
,,,,,,,5fb9afe59151376740f3fa56,,,,,,5fb9afe59151376740f3fa56,Mężczyzna,20,2021-09-06_19h16.07.339,rantool2,2021.1.4,Win32,59.85515054,6135e006383e6ea6c3d06a28,61364bdda30f86cb5a625624,"[""comma""]",0,[0.2581999998092783],90,0,90,0,1
,,,,,,,5fb9afe59151376740f3fa56,,,,,,5fb9afe59151376740f3fa56,Mężczyzna,20,2021-09-06_19h16.07.339,rantool2,2021.1.4,Win32,59.85515054,6135e006383e6ea6c3d06a28,61364bdda30f86cb5a625624,"[""comma""]",0,[0.2839999999999918],91,0,91,0,1
,,,,,,,5fb9afe59151376740f3fa56,,,,,,5fb9afe59151376740f3fa56,Mężczyzna,20,2021-09-06_19h16.07.339,rantool2,2021.1.4,Win32,59.85515054,6135e006383e6ea6c3d06a28,61364bdda30f86cb5a625624,"[""comma""]",0,[0.2674000000953356],92,0,92,0,1
,,,,,,,5fb9afe59151376740f3fa56,,,,,,5fb9afe59151376740f3fa56,Mężczyzna,20,2021-09-06_19h16.07.339,rantool2,2021.1.4,Win32,59.85515054,6135e006383e6ea6c3d06a28,61364bdda30f86cb5a625624,"[""comma""]",0,[0.13769999980922876],93,0,93,0,1
,,,,,,,5fb9afe59151376740f3fa56,,,,,,5fb9afe59151376740f3fa56,Mężczyzna,20,2021-09-06_19h16.07.339,rantool2,2021.1.4,Win32,59.85515054,6135e006383e6ea6c3d06a28,61364bdda30f86cb5a625624,"[""comma""]",0,[0.3009999999999877],94,0,94,0,1
,,,,,,,5fb9afe59151376740f3fa56,,,,,,5fb9afe59151376740f3fa56,Mężczyzna,20,2021-09-06_19h16.07.339,rantool2,2021.1.4,Win32,59.85515054,6135e006383e6ea6c3d06a28,61364bdda30f86cb5a625624,"[""comma""]",0,[0.24009999990465758],95,0,95,0,1
,,,,,,,5fb9afe59151376740f3fa56,,,,,,5fb9afe59151376740f3fa56,Mężczyzna,20,2021-09-06_19h16.07.339,rantool2,2021.1.4,Win32,59.85515054,6135e006383e6ea6c3d06a28,61364bdda30f86cb5a625624,"[""period""]",0,[0.2721999998092315],96,0,96,0,1
,,,,,,,5fb9afe59151376740f3fa56,,,,,,5fb9afe59151376740f3fa56,Mężczyzna,20,2021-09-06_19h16.07.339,rantool2,2021.1.4,Win32,59.85515054,6135e006383e6ea6c3d06a28,61364bdda30f86cb5a625624,"[""period""]",0,[0.439099999904613],97,0,97,0,1
,,,,,,,5fb9afe59151376740f3fa56,,,,,,5fb9afe59151376740f3fa56,Mężczyzna,20,2021-09-06_19h16.07.339,rantool2,2021.1.4,Win32,59.85515054,6135e006383e6ea6c3d06a28,61364bdda30f86cb5a625624,"[""period""]",0,[0.4356999998092306],98,0,98,0,1
,,,,,,,5fb9afe59151376740f3fa56,,,,,,5fb9afe59151376740f3fa56,Mężczyzna,20,2021-09-06_19h16.07.339,rantool2,2021.1.4,Win32,59.85515054,6135e006383e6ea6c3d06a28,61364bdda30f86cb5a625624,"[""period""]",0,[0.32609999990461347],99,0,99,0,1
,,,,,,,5fb9afe59151376740f3fa56,,,,,,5fb9afe59151376740f3fa56,Mężczyzna,20,2021-09-06_19h16.07.339,rantool2,2021.1.4,Win32,59.85515054,6135e006383e6ea6c3d06a28,61364bdda30f86cb5a625624,"[""comma""]",0,[0.1965999999046062],100,0,100,0,1
,,,,,,,5fb9afe59151376740f3fa56,,,,,,5fb9afe59151376740f3fa56,Mężczyzna,20,2021-09-06_19h16.07.339,rantool2,2021.1.4,Win32,59.85515054,6135e006383e6ea6c3d06a28,61364bdda30f86cb5a625624,"[""comma""]",0,[0.19650000000001455],101,0,101,0,1
,,,,,,,5fb9afe59151376740f3fa56,,,,,,5fb9afe59151376740f3fa56,Mężczyzna,20,2021-09-06_19h16.07.339,rantool2,2021.1.4,Win32,59.85515054,6135e006383e6ea6c3d06a28,61364bdda30f86cb5a625624,"[""period""]",0,[0.21020000028613595],102,0,102,0,1
,,,,,,,5fb9afe59151376740f3fa56,,,,,,5fb9afe59151376740f3fa56,Mężczyzna,20,2021-09-06_19h16.07.339,rantool2,2021.1.4,Win32,59.85515054,6135e006383e6ea6c3d06a28,61364bdda30f86cb5a625624,"[""period""]",0,[0.22520000028606546],103,0,103,0,1
,,,,,,,5fb9afe59151376740f3fa56,,,,,,5fb9afe59151376740f3fa56,Mężczyzna,20,2021-09-06_19h16.07.339,rantool2,2021.1.4,Win32,59.85515054,6135e006383e6ea6c3d06a28,61364bdda30f86cb5a625624,"[""period""]",0,[0.22569999980930788],104,0,104,0,1
,,,,,,,5fb9afe59151376740f3fa56,,,,,,5fb9afe59151376740f3fa56,Mężczyzna,20,2021-09-06_19h16.07.339,rantool2,2021.1.4,Win32,59.85515054,6135e006383e6ea6c3d06a28,61364bdda30f86cb5a625624,"[""comma""]",0,[0.3050000000000068],105,0,105,0,1
,,,,,,,5fb9afe59151376740f3fa56,,,,,,5fb9afe59151376740f3fa56,Mężczyzna,20,2021-09-06_19h16.07.339,rantool2,2021.1.4,Win32,59.85515054,6135e006383e6ea6c3d06a28,61364bdda30f86cb5a625624,"[""comma""]",0,[0.2376999998092515],106,0,106,0,1
,,,,,,,5fb9afe59151376740f3fa56,,,,,,5fb9afe59151376740f3fa56,Mężczyzna,20,2021-09-06_19h16.07.339,rantool2,2021.1.4,Win32,59.85515054,6135e006383e6ea6c3d06a28,61364bdda30f86cb5a625624,"[""period""]",0,[0.46480000019073486],107,0,107,0,1
,,,,,,,5fb9afe59151376740f3fa56,,,,,,5fb9afe59151376740f3fa56,Mężczyzna,20,2021-09-06_19h16.07.339,rantool2,2021.1.4,Win32,59.85515054,6135e006383e6ea6c3d06a28,61364bdda30f86cb5a625624,"[""period""]",0,[0.4011999998092506],108,0,108,0,1
,,,,,,,5fb9afe59151376740f3fa56,,,,,,5fb9afe59151376740f3fa56,Mężczyzna,20,2021-09-06_19h16.07.339,rantool2,2021.1.4,Win32,59.85515054,6135e006383e6ea6c3d06a28,61364bdda30f86cb5a625624,"[""period""]",0,[0.29340000009534606],109,0,109,0,1
,,,,,,,5fb9afe59151376740f3fa56,,,,,,5fb9afe59151376740f3fa56,Mężczyzna,20,2021-09-06_19h16.07.339,rantool2,2021.1.4,Win32,59.85515054,6135e006383e6ea6c3d06a28,61364bdda30f86cb5a625624,"[""period""]",0,[0.1800999999046553],110,0,110,0,1
,,,,,,,5fb9afe59151376740f3fa56,,,,,,5fb9afe59151376740f3fa56,Mężczyzna,20,2021-09-06_19h16.07.339,rantool2,2021.1.4,Win32,59.85515054,6135e006383e6ea6c3d06a28,61364bdda30f86cb5a625624,"[""period""]",0,[0.17000000000001592],111,0,111,0,1
,,,,,,,5fb9afe59151376740f3fa56,,,,,,5fb9afe59151376740f3fa56,Mężczyzna,20,2021-09-06_19h16.07.339,rantool2,2021.1.4,Win32,59.85515054,6135e006383e6ea6c3d06a28,61364bdda30f86cb5a625624,"[""comma""]",0,[0.22049999999995862],112,0,112,0,1
,,,,,,,5fb9afe59151376740f3fa56,,,,,,5fb9afe59151376740f3fa56,Mężczyzna,20,2021-09-06_19h16.07.339,rantool2,2021.1.4,Win32,59.85515054,6135e006383e6ea6c3d06a28,61364bdda30f86cb5a625624,"[""comma""]",0,[0.3085999999046294],113,0,113,0,1
,,,,,,,5fb9afe59151376740f3fa56,,,,,,5fb9afe59151376740f3fa56,Mężczyzna,20,2021-09-06_19h16.07.339,rantool2,2021.1.4,Win32,59.85515054,6135e006383e6ea6c3d06a28,61364bdda30f86cb5a625624,"[""comma""]",0,[0.3613999996185271],114,0,114,0,1
,,,,,,,5fb9afe59151376740f3fa56,,,,,,5fb9afe59151376740f3fa56,Mężczyzna,20,2021-09-06_19h16.07.339,rantool2,2021.1.4,Win32,59.85515054,6135e006383e6ea6c3d06a28,61364bdda30f86cb5a625624,"[""period""]",0,[0.328099999904623],115,0,115,0,1
,,,,,,,5fb9afe59151376740f3fa56,,,,,,5fb9afe59151376740f3fa56,Mężczyzna,20,2021-09-06_19h16.07.339,rantool2,2021.1.4,Win32,59.85515054,6135e006383e6ea6c3d06a28,61364bdda30f86cb5a625624,"[""period""]",0,[0.2573000001906962],116,0,116,0,1
,,,,,,,5fb9afe59151376740f3fa56,,,,,,5fb9afe59151376740f3fa56,Mężczyzna,20,2021-09-06_19h16.07.339,rantool2,2021.1.4,Win32,59.85515054,6135e006383e6ea6c3d06a28,61364bdda30f86cb5a625624,"[""period""]",0,[0.2509000000953847],117,0,117,0,1
,,,,,,,5fb9afe59151376740f3fa56,,,,,,5fb9afe59151376740f3fa56,Mężczyzna,20,2021-09-06_19h16.07.339,rantool2,2021.1.4,Win32,59.85515054,6135e006383e6ea6c3d06a28,61364bdda30f86cb5a625624,"[""period""]",0,[0.2880000000000109],118,0,118,0,1
,,,,,,,5fb9afe59151376740f3fa56,,,,,,5fb9afe59151376740f3fa56,Mężczyzna,20,2021-09-06_19h16.07.339,rantool2,2021.1.4,Win32,59.85515054,6135e006383e6ea6c3d06a28,61364bdda30f86cb5a625624,"[""period""]",0,[0.26040000009538744],119,0,119,0,1
