key_resp_7.keys,key_resp_7.rt,trials_2.thisRepN,trials_2.thisTrialN,trials_2.thisN,trials_2.thisIndex,trials_2.ran,id,series_0,series_1,acss_0,acss_1,comparison,id*,Płeć*,Wiek*,date,expName,psychopyVersion,OS,frameRate,STUDY_ID,SESSION_ID,key_resp_5.keys,key_resp_5.corr,key_resp_5.rt,trials.thisRepN,trials.thisTrialN,trials.thisN,trials.thisIndex,trials.ran
f,3.099,0,0,0,62,1,5f7082bf1eac2964de164d15,RRRRROO,RRRRROR,22.16413392,21.27974287,series_0,5f7082bf1eac2964de164d15,Kobieta,27,2021-09-06_19h04.56.579,rantool2,2021.1.4,Win32,60.0240096,6135e006383e6ea6c3d06a28,61364a244f077ef677c6d4ba,,,,,,,,
j,2.665,0,1,1,34,1,5f7082bf1eac2964de164d15,ROOOROO,ROOOROR,21.03750787,21.24781509,series_1,5f7082bf1eac2964de164d15,Kobieta,27,2021-09-06_19h04.56.579,rantool2,2021.1.4,Win32,60.0240096,6135e006383e6ea6c3d06a28,61364a244f077ef677c6d4ba,,,,,,,,
f,2.069,0,2,2,7,1,5f7082bf1eac2964de164d15,OOORRRO,OOORRRR,21.6194508,21.899017,series_1,5f7082bf1eac2964de164d15,Kobieta,27,2021-09-06_19h04.56.579,rantool2,2021.1.4,Win32,60.0240096,6135e006383e6ea6c3d06a28,61364a244f077ef677c6d4ba,,,,,,,,
j,2.819,0,3,3,58,1,5f7082bf1eac2964de164d15,RRROROO,RRROROR,22.1285618,21.37121559,series_0,5f7082bf1eac2964de164d15,Kobieta,27,2021-09-06_19h04.56.579,rantool2,2021.1.4,Win32,60.0240096,6135e006383e6ea6c3d06a28,61364a244f077ef677c6d4ba,,,,,,,,
f,1.957,0,4,4,49,1,5f7082bf1eac2964de164d15,RROOORO,RROOORR,21.76276513,22.53364006,series_1,5f7082bf1eac2964de164d15,Kobieta,27,2021-09-06_19h04.56.579,rantool2,2021.1.4,Win32,60.0240096,6135e006383e6ea6c3d06a28,61364a244f077ef677c6d4ba,,,,,,,,
j,1.969,0,5,5,15,1,5f7082bf1eac2964de164d15,OORRRRO,OORRRRR,22.10108823,21.74922619,series_0,5f7082bf1eac2964de164d15,Kobieta,27,2021-09-06_19h04.56.579,rantool2,2021.1.4,Win32,60.0240096,6135e006383e6ea6c3d06a28,61364a244f077ef677c6d4ba,,,,,,,,
f,1.785,0,6,6,44,1,5f7082bf1eac2964de164d15,RORROOO,RORROOR,21.66733484,22.02566557,series_1,5f7082bf1eac2964de164d15,Kobieta,27,2021-09-06_19h04.56.579,rantool2,2021.1.4,Win32,60.0240096,6135e006383e6ea6c3d06a28,61364a244f077ef677c6d4ba,,,,,,,,
f,1.951,0,7,7,42,1,5f7082bf1eac2964de164d15,ROROROO,ROROROR,20.39515459,19.8361834,series_0,5f7082bf1eac2964de164d15,Kobieta,27,2021-09-06_19h04.56.579,rantool2,2021.1.4,Win32,60.0240096,6135e006383e6ea6c3d06a28,61364a244f077ef677c6d4ba,,,,,,,,
f,1.953,0,8,8,8,1,5f7082bf1eac2964de164d15,OOROOOO,OOROOOR,19.91402015,20.89823192,series_1,5f7082bf1eac2964de164d15,Kobieta,27,2021-09-06_19h04.56.579,rantool2,2021.1.4,Win32,60.0240096,6135e006383e6ea6c3d06a28,61364a244f077ef677c6d4ba,,,,,,,,
j,1.508,0,9,9,51,1,5f7082bf1eac2964de164d15,RROORRO,RROORRR,21.89852628,22.02786418,series_1,5f7082bf1eac2964de164d15,Kobieta,27,2021-09-06_19h04.56.579,rantool2,2021.1.4,Win32,60.0240096,6135e006383e6ea6c3d06a28,61364a244f077ef677c6d4ba,,,,,,,,
j,1.783,0,10,10,43,1,5f7082bf1eac2964de164d15,RORORRO,RORORRR,20.71309134,21.07490964,series_1,5f7082bf1eac2964de164d15,Kobieta,27,2021-09-06_19h04.56.579,rantool2,2021.1.4,Win32,60.0240096,6135e006383e6ea6c3d06a28,61364a244f077ef677c6d4ba,,,,,,,,
j,3.017,0,11,11,53,1,5f7082bf1eac2964de164d15,RRORORO,RRORORR,20.71309134,21.90565814,series_1,5f7082bf1eac2964de164d15,Kobieta,27,2021-09-06_19h04.56.579,rantool2,2021.1.4,Win32,60.0240096,6135e006383e6ea6c3d06a28,61364a244f077ef677c6d4ba,,,,,,,,
f,2.613,0,12,12,25,1,5f7082bf1eac2964de164d15,ORROORO,ORROORR,21.79500819,22.61624387,series_1,5f7082bf1eac2964de164d15,Kobieta,27,2021-09-06_19h04.56.579,rantool2,2021.1.4,Win32,60.0240096,6135e006383e6ea6c3d06a28,61364a244f077ef677c6d4ba,,,,,,,,
f,3.321,0,13,13,37,1,5f7082bf1eac2964de164d15,ROORORO,ROORORR,20.42602454,21.57657071,series_1,5f7082bf1eac2964de164d15,Kobieta,27,2021-09-06_19h04.56.579,rantool2,2021.1.4,Win32,60.0240096,6135e006383e6ea6c3d06a28,61364a244f077ef677c6d4ba,,,,,,,,
f,2.685,0,14,14,54,1,5f7082bf1eac2964de164d15,RRORROO,RRORROR,21.55250791,20.9984461,series_0,5f7082bf1eac2964de164d15,Kobieta,27,2021-09-06_19h04.56.579,rantool2,2021.1.4,Win32,60.0240096,6135e006383e6ea6c3d06a28,61364a244f077ef677c6d4ba,,,,,,,,
j,2.873,0,15,15,40,1,5f7082bf1eac2964de164d15,ROROOOO,ROROOOR,20.87963819,21.37121559,series_1,5f7082bf1eac2964de164d15,Kobieta,27,2021-09-06_19h04.56.579,rantool2,2021.1.4,Win32,60.0240096,6135e006383e6ea6c3d06a28,61364a244f077ef677c6d4ba,,,,,,,,
f,1.672,0,16,16,23,1,5f7082bf1eac2964de164d15,ORORRRO,ORORRRR,22.1285618,21.9921709,series_0,5f7082bf1eac2964de164d15,Kobieta,27,2021-09-06_19h04.56.579,rantool2,2021.1.4,Win32,60.0240096,6135e006383e6ea6c3d06a28,61364a244f077ef677c6d4ba,,,,,,,,
j,1.825,0,17,17,39,1,5f7082bf1eac2964de164d15,ROORRRO,ROORRRR,21.82425538,21.38562617,series_0,5f7082bf1eac2964de164d15,Kobieta,27,2021-09-06_19h04.56.579,rantool2,2021.1.4,Win32,60.0240096,6135e006383e6ea6c3d06a28,61364a244f077ef677c6d4ba,,,,,,,,
j,2.431,0,18,18,63,1,5f7082bf1eac2964de164d15,RRRRRRO,RRRRRRR,21.35278725,19.62521613,series_0,5f7082bf1eac2964de164d15,Kobieta,27,2021-09-06_19h04.56.579,rantool2,2021.1.4,Win32,60.0240096,6135e006383e6ea6c3d06a28,61364a244f077ef677c6d4ba,,,,,,,,
j,2.32,0,19,19,26,1,5f7082bf1eac2964de164d15,ORROROO,ORROROR,22.02732763,21.71443381,series_0,5f7082bf1eac2964de164d15,Kobieta,27,2021-09-06_19h04.56.579,rantool2,2021.1.4,Win32,60.0240096,6135e006383e6ea6c3d06a28,61364a244f077ef677c6d4ba,,,,,,,,
f,3.654,0,20,20,29,1,5f7082bf1eac2964de164d15,ORRRORO,ORRRORR,22.00300695,22.12173012,series_1,5f7082bf1eac2964de164d15,Kobieta,27,2021-09-06_19h04.56.579,rantool2,2021.1.4,Win32,60.0240096,6135e006383e6ea6c3d06a28,61364a244f077ef677c6d4ba,,,,,,,,
f,1.887,0,21,21,32,1,5f7082bf1eac2964de164d15,ROOOOOO,ROOOOOR,19.92253567,21.27974287,series_1,5f7082bf1eac2964de164d15,Kobieta,27,2021-09-06_19h04.56.579,rantool2,2021.1.4,Win32,60.0240096,6135e006383e6ea6c3d06a28,61364a244f077ef677c6d4ba,,,,,,,,
f,2.408,0,22,22,22,1,5f7082bf1eac2964de164d15,ORORROO,ORORROR,22.02732763,21.57657071,series_0,5f7082bf1eac2964de164d15,Kobieta,27,2021-09-06_19h04.56.579,rantool2,2021.1.4,Win32,60.0240096,6135e006383e6ea6c3d06a28,61364a244f077ef677c6d4ba,,,,,,,,
j,1.506,0,23,23,12,1,5f7082bf1eac2964de164d15,OORROOO,OORROOR,21.30250474,22.02786418,series_1,5f7082bf1eac2964de164d15,Kobieta,27,2021-09-06_19h04.56.579,rantool2,2021.1.4,Win32,60.0240096,6135e006383e6ea6c3d06a28,61364a244f077ef677c6d4ba,,,,,,,,
f,1.238,0,24,24,28,1,5f7082bf1eac2964de164d15,ORRROOO,ORRROOR,22.24142883,22.53364006,series_1,5f7082bf1eac2964de164d15,Kobieta,27,2021-09-06_19h04.56.579,rantool2,2021.1.4,Win32,60.0240096,6135e006383e6ea6c3d06a28,61364a244f077ef677c6d4ba,,,,,,,,
j,1.49,0,25,25,50,1,5f7082bf1eac2964de164d15,RROOROO,RROOROR,21.73568164,22.02566557,series_1,5f7082bf1eac2964de164d15,Kobieta,27,2021-09-06_19h04.56.579,rantool2,2021.1.4,Win32,60.0240096,6135e006383e6ea6c3d06a28,61364a244f077ef677c6d4ba,,,,,,,,
j,2.867,0,26,26,9,1,5f7082bf1eac2964de164d15,OOROORO,OOROORR,21.07991943,22.2428857,series_1,5f7082bf1eac2964de164d15,Kobieta,27,2021-09-06_19h04.56.579,rantool2,2021.1.4,Win32,60.0240096,6135e006383e6ea6c3d06a28,61364a244f077ef677c6d4ba,,,,,,,,
f,2.191,0,27,27,47,1,5f7082bf1eac2964de164d15,RORRRRO,RORRRRR,21.81333602,21.02936224,series_0,5f7082bf1eac2964de164d15,Kobieta,27,2021-09-06_19h04.56.579,rantool2,2021.1.4,Win32,60.0240096,6135e006383e6ea6c3d06a28,61364a244f077ef677c6d4ba,,,,,,,,
j,2.087,0,28,28,19,1,5f7082bf1eac2964de164d15,OROORRO,OROORRR,21.73568164,22.11181017,series_1,5f7082bf1eac2964de164d15,Kobieta,27,2021-09-06_19h04.56.579,rantool2,2021.1.4,Win32,60.0240096,6135e006383e6ea6c3d06a28,61364a244f077ef677c6d4ba,,,,,,,,
f,1.872,0,29,29,20,1,5f7082bf1eac2964de164d15,OROROOO,OROROOR,21.31236711,21.90565814,series_1,5f7082bf1eac2964de164d15,Kobieta,27,2021-09-06_19h04.56.579,rantool2,2021.1.4,Win32,60.0240096,6135e006383e6ea6c3d06a28,61364a244f077ef677c6d4ba,,,,,,,,
j,1.881,0,30,30,3,1,5f7082bf1eac2964de164d15,OOOORRO,OOOORRR,20.90986523,21.74922619,series_1,5f7082bf1eac2964de164d15,Kobieta,27,2021-09-06_19h04.56.579,rantool2,2021.1.4,Win32,60.0240096,6135e006383e6ea6c3d06a28,61364a244f077ef677c6d4ba,,,,,,,,
f,1.95,0,31,31,13,1,5f7082bf1eac2964de164d15,OORRORO,OORRORR,21.66733484,22.11181017,series_1,5f7082bf1eac2964de164d15,Kobieta,27,2021-09-06_19h04.56.579,rantool2,2021.1.4,Win32,60.0240096,6135e006383e6ea6c3d06a28,61364a244f077ef677c6d4ba,,,,,,,,
f,2.618,0,32,32,57,1,5f7082bf1eac2964de164d15,RRROORO,RRROORR,21.82425538,22.07102821,series_1,5f7082bf1eac2964de164d15,Kobieta,27,2021-09-06_19h04.56.579,rantool2,2021.1.4,Win32,60.0240096,6135e006383e6ea6c3d06a28,61364a244f077ef677c6d4ba,,,,,,,,
f,2.118,0,33,33,55,1,5f7082bf1eac2964de164d15,RRORRRO,RRORRRR,21.56657303,21.21223021,series_0,5f7082bf1eac2964de164d15,Kobieta,27,2021-09-06_19h04.56.579,rantool2,2021.1.4,Win32,60.0240096,6135e006383e6ea6c3d06a28,61364a244f077ef677c6d4ba,,,,,,,,
j,1.717,0,34,34,6,1,5f7082bf1eac2964de164d15,OOORROO,OOORROR,21.12383932,21.38562617,series_1,5f7082bf1eac2964de164d15,Kobieta,27,2021-09-06_19h04.56.579,rantool2,2021.1.4,Win32,60.0240096,6135e006383e6ea6c3d06a28,61364a244f077ef677c6d4ba,,,,,,,,
j,1.822,0,35,35,14,1,5f7082bf1eac2964de164d15,OORRROO,OORRROR,22.24142883,22.16977179,series_0,5f7082bf1eac2964de164d15,Kobieta,27,2021-09-06_19h04.56.579,rantool2,2021.1.4,Win32,60.0240096,6135e006383e6ea6c3d06a28,61364a244f077ef677c6d4ba,,,,,,,,
f,1.067,0,36,36,46,1,5f7082bf1eac2964de164d15,RORRROO,RORRROR,22.00300695,21.24781509,series_0,5f7082bf1eac2964de164d15,Kobieta,27,2021-09-06_19h04.56.579,rantool2,2021.1.4,Win32,60.0240096,6135e006383e6ea6c3d06a28,61364a244f077ef677c6d4ba,,,,,,,,
j,1.38,0,37,37,60,1,5f7082bf1eac2964de164d15,RRRROOO,RRRROOR,22.10108823,22.15934078,series_1,5f7082bf1eac2964de164d15,Kobieta,27,2021-09-06_19h04.56.579,rantool2,2021.1.4,Win32,60.0240096,6135e006383e6ea6c3d06a28,61364a244f077ef677c6d4ba,,,,,,,,
f,1.222,0,38,38,16,1,5f7082bf1eac2964de164d15,OROOOOO,OROOOOR,20.43051175,21.17347734,series_1,5f7082bf1eac2964de164d15,Kobieta,27,2021-09-06_19h04.56.579,rantool2,2021.1.4,Win32,60.0240096,6135e006383e6ea6c3d06a28,61364a244f077ef677c6d4ba,,,,,,,,
j,3.153,0,39,39,36,1,5f7082bf1eac2964de164d15,ROOROOO,ROOROOR,21.07991943,20.9984461,series_0,5f7082bf1eac2964de164d15,Kobieta,27,2021-09-06_19h04.56.579,rantool2,2021.1.4,Win32,60.0240096,6135e006383e6ea6c3d06a28,61364a244f077ef677c6d4ba,,,,,,,,
j,2.149,0,40,40,1,1,5f7082bf1eac2964de164d15,OOOOORO,OOOOORR,19.92253567,20.74050628,series_1,5f7082bf1eac2964de164d15,Kobieta,27,2021-09-06_19h04.56.579,rantool2,2021.1.4,Win32,60.0240096,6135e006383e6ea6c3d06a28,61364a244f077ef677c6d4ba,,,,,,,,
f,1.256,0,41,41,41,1,5f7082bf1eac2964de164d15,ROROORO,ROROORR,20.42602454,21.71443381,series_1,5f7082bf1eac2964de164d15,Kobieta,27,2021-09-06_19h04.56.579,rantool2,2021.1.4,Win32,60.0240096,6135e006383e6ea6c3d06a28,61364a244f077ef677c6d4ba,,,,,,,,
j,1.651,0,42,42,24,1,5f7082bf1eac2964de164d15,ORROOOO,ORROOOR,21.12383932,22.07102821,series_1,5f7082bf1eac2964de164d15,Kobieta,27,2021-09-06_19h04.56.579,rantool2,2021.1.4,Win32,60.0240096,6135e006383e6ea6c3d06a28,61364a244f077ef677c6d4ba,,,,,,,,
f,1.354,0,43,43,5,1,5f7082bf1eac2964de164d15,OOORORO,OOORORR,20.87963819,21.9921709,series_1,5f7082bf1eac2964de164d15,Kobieta,27,2021-09-06_19h04.56.579,rantool2,2021.1.4,Win32,60.0240096,6135e006383e6ea6c3d06a28,61364a244f077ef677c6d4ba,,,,,,,,
j,1.646,0,44,44,4,1,5f7082bf1eac2964de164d15,OOOROOO,OOOROOR,19.91402015,21.21223021,series_1,5f7082bf1eac2964de164d15,Kobieta,27,2021-09-06_19h04.56.579,rantool2,2021.1.4,Win32,60.0240096,6135e006383e6ea6c3d06a28,61364a244f077ef677c6d4ba,,,,,,,,
f,1.673,0,45,45,0,1,5f7082bf1eac2964de164d15,OOOOOOO,OOOOOOR,18.52739004,19.62521613,series_1,5f7082bf1eac2964de164d15,Kobieta,27,2021-09-06_19h04.56.579,rantool2,2021.1.4,Win32,60.0240096,6135e006383e6ea6c3d06a28,61364a244f077ef677c6d4ba,,,,,,,,
j,2.116,0,46,46,56,1,5f7082bf1eac2964de164d15,RRROOOO,RRROOOR,21.6194508,22.31681875,series_1,5f7082bf1eac2964de164d15,Kobieta,27,2021-09-06_19h04.56.579,rantool2,2021.1.4,Win32,60.0240096,6135e006383e6ea6c3d06a28,61364a244f077ef677c6d4ba,,,,,,,,
f,1.94,0,47,47,2,1,5f7082bf1eac2964de164d15,OOOOROO,OOOOROR,20.43051175,21.02936224,series_1,5f7082bf1eac2964de164d15,Kobieta,27,2021-09-06_19h04.56.579,rantool2,2021.1.4,Win32,60.0240096,6135e006383e6ea6c3d06a28,61364a244f077ef677c6d4ba,,,,,,,,
f,1.364,0,48,48,35,1,5f7082bf1eac2964de164d15,ROOORRO,ROOORRR,21.76276513,22.16977179,series_1,5f7082bf1eac2964de164d15,Kobieta,27,2021-09-06_19h04.56.579,rantool2,2021.1.4,Win32,60.0240096,6135e006383e6ea6c3d06a28,61364a244f077ef677c6d4ba,,,,,,,,
f,1.445,0,49,49,52,1,5f7082bf1eac2964de164d15,RROROOO,RROROOR,22.18365867,22.11097995,series_0,5f7082bf1eac2964de164d15,Kobieta,27,2021-09-06_19h04.56.579,rantool2,2021.1.4,Win32,60.0240096,6135e006383e6ea6c3d06a28,61364a244f077ef677c6d4ba,,,,,,,,
j,1.387,0,50,50,27,1,5f7082bf1eac2964de164d15,ORRORRO,ORRORRR,21.55250791,22.2428857,series_1,5f7082bf1eac2964de164d15,Kobieta,27,2021-09-06_19h04.56.579,rantool2,2021.1.4,Win32,60.0240096,6135e006383e6ea6c3d06a28,61364a244f077ef677c6d4ba,,,,,,,,
f,1.105,0,51,51,17,1,5f7082bf1eac2964de164d15,OROOORO,OROOORR,21.03750787,22.12173012,series_1,5f7082bf1eac2964de164d15,Kobieta,27,2021-09-06_19h04.56.579,rantool2,2021.1.4,Win32,60.0240096,6135e006383e6ea6c3d06a28,61364a244f077ef677c6d4ba,,,,,,,,
j,1.402,0,52,52,45,1,5f7082bf1eac2964de164d15,RORRORO,RORRORR,20.78182524,21.22513037,series_1,5f7082bf1eac2964de164d15,Kobieta,27,2021-09-06_19h04.56.579,rantool2,2021.1.4,Win32,60.0240096,6135e006383e6ea6c3d06a28,61364a244f077ef677c6d4ba,,,,,,,,
f,1.336,0,53,53,61,1,5f7082bf1eac2964de164d15,RRRRORO,RRRRORR,21.81333602,21.17347734,series_0,5f7082bf1eac2964de164d15,Kobieta,27,2021-09-06_19h04.56.579,rantool2,2021.1.4,Win32,60.0240096,6135e006383e6ea6c3d06a28,61364a244f077ef677c6d4ba,,,,,,,,
j,1.499,0,54,54,38,1,5f7082bf1eac2964de164d15,ROORROO,ROORROR,21.79500819,21.36812781,series_0,5f7082bf1eac2964de164d15,Kobieta,27,2021-09-06_19h04.56.579,rantool2,2021.1.4,Win32,60.0240096,6135e006383e6ea6c3d06a28,61364a244f077ef677c6d4ba,,,,,,,,
f,1.018,0,55,55,30,1,5f7082bf1eac2964de164d15,ORRRROO,ORRRROR,22.46748491,22.03072203,series_0,5f7082bf1eac2964de164d15,Kobieta,27,2021-09-06_19h04.56.579,rantool2,2021.1.4,Win32,60.0240096,6135e006383e6ea6c3d06a28,61364a244f077ef677c6d4ba,,,,,,,,
j,1.582,0,56,56,33,1,5f7082bf1eac2964de164d15,ROOOORO,ROOOORR,20.83779602,22.03072203,series_1,5f7082bf1eac2964de164d15,Kobieta,27,2021-09-06_19h04.56.579,rantool2,2021.1.4,Win32,60.0240096,6135e006383e6ea6c3d06a28,61364a244f077ef677c6d4ba,,,,,,,,
f,0.87,0,57,57,59,1,5f7082bf1eac2964de164d15,RRRORRO,RRRORRR,21.56657303,20.89823192,series_0,5f7082bf1eac2964de164d15,Kobieta,27,2021-09-06_19h04.56.579,rantool2,2021.1.4,Win32,60.0240096,6135e006383e6ea6c3d06a28,61364a244f077ef677c6d4ba,,,,,,,,
j,1.216,0,58,58,48,1,5f7082bf1eac2964de164d15,RROOOOO,RROOOOR,20.90986523,22.15934078,series_1,5f7082bf1eac2964de164d15,Kobieta,27,2021-09-06_19h04.56.579,rantool2,2021.1.4,Win32,60.0240096,6135e006383e6ea6c3d06a28,61364a244f077ef677c6d4ba,,,,,,,,
f,0.936,0,59,59,18,1,5f7082bf1eac2964de164d15,OROOROO,OROOROR,20.84860893,21.22513037,series_1,5f7082bf1eac2964de164d15,Kobieta,27,2021-09-06_19h04.56.579,rantool2,2021.1.4,Win32,60.0240096,6135e006383e6ea6c3d06a28,61364a244f077ef677c6d4ba,,,,,,,,
f,1.438,0,60,60,11,1,5f7082bf1eac2964de164d15,OORORRO,OORORRR,22.18365867,22.6797523,series_1,5f7082bf1eac2964de164d15,Kobieta,27,2021-09-06_19h04.56.579,rantool2,2021.1.4,Win32,60.0240096,6135e006383e6ea6c3d06a28,61364a244f077ef677c6d4ba,,,,,,,,
f,2.434,0,61,61,31,1,5f7082bf1eac2964de164d15,ORRRRRO,ORRRRRR,22.16413392,20.74050628,series_0,5f7082bf1eac2964de164d15,Kobieta,27,2021-09-06_19h04.56.579,rantool2,2021.1.4,Win32,60.0240096,6135e006383e6ea6c3d06a28,61364a244f077ef677c6d4ba,,,,,,,,
j,1.768,0,62,62,21,1,5f7082bf1eac2964de164d15,ORORORO,ORORORR,20.39515459,22.06781359,series_1,5f7082bf1eac2964de164d15,Kobieta,27,2021-09-06_19h04.56.579,rantool2,2021.1.4,Win32,60.0240096,6135e006383e6ea6c3d06a28,61364a244f077ef677c6d4ba,,,,,,,,
f,1.709,0,63,63,10,1,5f7082bf1eac2964de164d15,OOROROO,OOROROR,21.31236711,21.07490964,series_0,5f7082bf1eac2964de164d15,Kobieta,27,2021-09-06_19h04.56.579,rantool2,2021.1.4,Win32,60.0240096,6135e006383e6ea6c3d06a28,61364a244f077ef677c6d4ba,,,,,,,,
,,,,,,,5f7082bf1eac2964de164d15,,,,,,5f7082bf1eac2964de164d15,Kobieta,27,2021-09-06_19h04.56.579,rantool2,2021.1.4,Win32,60.0240096,6135e006383e6ea6c3d06a28,61364a244f077ef677c6d4ba,"[""comma""]",0,[1.5010000000000048],0,0,0,0,1
,,,,,,,5f7082bf1eac2964de164d15,,,,,,5f7082bf1eac2964de164d15,Kobieta,27,2021-09-06_19h04.56.579,rantool2,2021.1.4,Win32,60.0240096,6135e006383e6ea6c3d06a28,61364a244f077ef677c6d4ba,"[""comma""]",0,[1.507000000000005],1,0,1,0,1
,,,,,,,5f7082bf1eac2964de164d15,,,,,,5f7082bf1eac2964de164d15,Kobieta,27,2021-09-06_19h04.56.579,rantool2,2021.1.4,Win32,60.0240096,6135e006383e6ea6c3d06a28,61364a244f077ef677c6d4ba,"[""period""]",0,[0.9120000000000061],2,0,2,0,1
,,,,,,,5f7082bf1eac2964de164d15,,,,,,5f7082bf1eac2964de164d15,Kobieta,27,2021-09-06_19h04.56.579,rantool2,2021.1.4,Win32,60.0240096,6135e006383e6ea6c3d06a28,61364a244f077ef677c6d4ba,"[""period""]",0,[0.45599999999998886],3,0,3,0,1
,,,,,,,5f7082bf1eac2964de164d15,,,,,,5f7082bf1eac2964de164d15,Kobieta,27,2021-09-06_19h04.56.579,rantool2,2021.1.4,Win32,60.0240096,6135e006383e6ea6c3d06a28,61364a244f077ef677c6d4ba,"[""comma""]",0,[0.2560000000000002],4,0,4,0,1
,,,,,,,5f7082bf1eac2964de164d15,,,,,,5f7082bf1eac2964de164d15,Kobieta,27,2021-09-06_19h04.56.579,rantool2,2021.1.4,Win32,60.0240096,6135e006383e6ea6c3d06a28,61364a244f077ef677c6d4ba,"[""period""]",0,[0.23600000000001842],5,0,5,0,1
,,,,,,,5f7082bf1eac2964de164d15,,,,,,5f7082bf1eac2964de164d15,Kobieta,27,2021-09-06_19h04.56.579,rantool2,2021.1.4,Win32,60.0240096,6135e006383e6ea6c3d06a28,61364a244f077ef677c6d4ba,"[""period""]",0,[0.27199999999999136],6,0,6,0,1
,,,,,,,5f7082bf1eac2964de164d15,,,,,,5f7082bf1eac2964de164d15,Kobieta,27,2021-09-06_19h04.56.579,rantool2,2021.1.4,Win32,60.0240096,6135e006383e6ea6c3d06a28,61364a244f077ef677c6d4ba,"[""comma""]",0,[0.26300000000000523],7,0,7,0,1
,,,,,,,5f7082bf1eac2964de164d15,,,,,,5f7082bf1eac2964de164d15,Kobieta,27,2021-09-06_19h04.56.579,rantool2,2021.1.4,Win32,60.0240096,6135e006383e6ea6c3d06a28,61364a244f077ef677c6d4ba,"[""period"",""period""]",0,"[0.2539999999999907,1.9170000000000016]",8,0,8,0,1
,,,,,,,5f7082bf1eac2964de164d15,,,,,,5f7082bf1eac2964de164d15,Kobieta,27,2021-09-06_19h04.56.579,rantool2,2021.1.4,Win32,60.0240096,6135e006383e6ea6c3d06a28,61364a244f077ef677c6d4ba,0,0,,9,0,9,0,1
,,,,,,,5f7082bf1eac2964de164d15,,,,,,5f7082bf1eac2964de164d15,Kobieta,27,2021-09-06_19h04.56.579,rantool2,2021.1.4,Win32,60.0240096,6135e006383e6ea6c3d06a28,61364a244f077ef677c6d4ba,"[""comma""]",0,[0.25499999999999545],10,0,10,0,1
,,,,,,,5f7082bf1eac2964de164d15,,,,,,5f7082bf1eac2964de164d15,Kobieta,27,2021-09-06_19h04.56.579,rantool2,2021.1.4,Win32,60.0240096,6135e006383e6ea6c3d06a28,61364a244f077ef677c6d4ba,"[""comma""]",0,[0.2890000000000157],11,0,11,0,1
,,,,,,,5f7082bf1eac2964de164d15,,,,,,5f7082bf1eac2964de164d15,Kobieta,27,2021-09-06_19h04.56.579,rantool2,2021.1.4,Win32,60.0240096,6135e006383e6ea6c3d06a28,61364a244f077ef677c6d4ba,"[""period""]",0,[0.45699999999999363],12,0,12,0,1
,,,,,,,5f7082bf1eac2964de164d15,,,,,,5f7082bf1eac2964de164d15,Kobieta,27,2021-09-06_19h04.56.579,rantool2,2021.1.4,Win32,60.0240096,6135e006383e6ea6c3d06a28,61364a244f077ef677c6d4ba,"[""period""]",0,[0.40100000000001046],13,0,13,0,1
,,,,,,,5f7082bf1eac2964de164d15,,,,,,5f7082bf1eac2964de164d15,Kobieta,27,2021-09-06_19h04.56.579,rantool2,2021.1.4,Win32,60.0240096,6135e006383e6ea6c3d06a28,61364a244f077ef677c6d4ba,"[""period""]",0,[0.25300000000004275],14,0,14,0,1
,,,,,,,5f7082bf1eac2964de164d15,,,,,,5f7082bf1eac2964de164d15,Kobieta,27,2021-09-06_19h04.56.579,rantool2,2021.1.4,Win32,60.0240096,6135e006383e6ea6c3d06a28,61364a244f077ef677c6d4ba,"[""comma""]",0,[0.22100000000000364],15,0,15,0,1
,,,,,,,5f7082bf1eac2964de164d15,,,,,,5f7082bf1eac2964de164d15,Kobieta,27,2021-09-06_19h04.56.579,rantool2,2021.1.4,Win32,60.0240096,6135e006383e6ea6c3d06a28,61364a244f077ef677c6d4ba,"[""comma""]",0,[0.30299999999999727],16,0,16,0,1
,,,,,,,5f7082bf1eac2964de164d15,,,,,,5f7082bf1eac2964de164d15,Kobieta,27,2021-09-06_19h04.56.579,rantool2,2021.1.4,Win32,60.0240096,6135e006383e6ea6c3d06a28,61364a244f077ef677c6d4ba,"[""period""]",0,[0.22100000000000364],17,0,17,0,1
,,,,,,,5f7082bf1eac2964de164d15,,,,,,5f7082bf1eac2964de164d15,Kobieta,27,2021-09-06_19h04.56.579,rantool2,2021.1.4,Win32,60.0240096,6135e006383e6ea6c3d06a28,61364a244f077ef677c6d4ba,"[""comma""]",0,[0.2540000000000191],18,0,18,0,1
,,,,,,,5f7082bf1eac2964de164d15,,,,,,5f7082bf1eac2964de164d15,Kobieta,27,2021-09-06_19h04.56.579,rantool2,2021.1.4,Win32,60.0240096,6135e006383e6ea6c3d06a28,61364a244f077ef677c6d4ba,"[""period""]",0,[0.19200000000000728],19,0,19,0,1
,,,,,,,5f7082bf1eac2964de164d15,,,,,,5f7082bf1eac2964de164d15,Kobieta,27,2021-09-06_19h04.56.579,rantool2,2021.1.4,Win32,60.0240096,6135e006383e6ea6c3d06a28,61364a244f077ef677c6d4ba,"[""period""]",0,[0.35599999999999454],20,0,20,0,1
,,,,,,,5f7082bf1eac2964de164d15,,,,,,5f7082bf1eac2964de164d15,Kobieta,27,2021-09-06_19h04.56.579,rantool2,2021.1.4,Win32,60.0240096,6135e006383e6ea6c3d06a28,61364a244f077ef677c6d4ba,"[""period""]",0,[0.3439999999999941],21,0,21,0,1
,,,,,,,5f7082bf1eac2964de164d15,,,,,,5f7082bf1eac2964de164d15,Kobieta,27,2021-09-06_19h04.56.579,rantool2,2021.1.4,Win32,60.0240096,6135e006383e6ea6c3d06a28,61364a244f077ef677c6d4ba,"[""period""]",0,[0.3020000000000209],22,0,22,0,1
,,,,,,,5f7082bf1eac2964de164d15,,,,,,5f7082bf1eac2964de164d15,Kobieta,27,2021-09-06_19h04.56.579,rantool2,2021.1.4,Win32,60.0240096,6135e006383e6ea6c3d06a28,61364a244f077ef677c6d4ba,"[""comma""]",0,[0.31799999999998363],23,0,23,0,1
,,,,,,,5f7082bf1eac2964de164d15,,,,,,5f7082bf1eac2964de164d15,Kobieta,27,2021-09-06_19h04.56.579,rantool2,2021.1.4,Win32,60.0240096,6135e006383e6ea6c3d06a28,61364a244f077ef677c6d4ba,"[""comma""]",0,[0.35400000000004184],24,0,24,0,1
,,,,,,,5f7082bf1eac2964de164d15,,,,,,5f7082bf1eac2964de164d15,Kobieta,27,2021-09-06_19h04.56.579,rantool2,2021.1.4,Win32,60.0240096,6135e006383e6ea6c3d06a28,61364a244f077ef677c6d4ba,"[""period""]",0,[0.29599999999999227],25,0,25,0,1
,,,,,,,5f7082bf1eac2964de164d15,,,,,,5f7082bf1eac2964de164d15,Kobieta,27,2021-09-06_19h04.56.579,rantool2,2021.1.4,Win32,60.0240096,6135e006383e6ea6c3d06a28,61364a244f077ef677c6d4ba,"[""comma""]",0,[0.3709999999999809],26,0,26,0,1
,,,,,,,5f7082bf1eac2964de164d15,,,,,,5f7082bf1eac2964de164d15,Kobieta,27,2021-09-06_19h04.56.579,rantool2,2021.1.4,Win32,60.0240096,6135e006383e6ea6c3d06a28,61364a244f077ef677c6d4ba,"[""comma""]",0,[0.3059999999999832],27,0,27,0,1
,,,,,,,5f7082bf1eac2964de164d15,,,,,,5f7082bf1eac2964de164d15,Kobieta,27,2021-09-06_19h04.56.579,rantool2,2021.1.4,Win32,60.0240096,6135e006383e6ea6c3d06a28,61364a244f077ef677c6d4ba,"[""period""]",0,[0.28600000000000136],28,0,28,0,1
,,,,,,,5f7082bf1eac2964de164d15,,,,,,5f7082bf1eac2964de164d15,Kobieta,27,2021-09-06_19h04.56.579,rantool2,2021.1.4,Win32,60.0240096,6135e006383e6ea6c3d06a28,61364a244f077ef677c6d4ba,"[""period""]",0,[0.28300000000001546],29,0,29,0,1
,,,,,,,5f7082bf1eac2964de164d15,,,,,,5f7082bf1eac2964de164d15,Kobieta,27,2021-09-06_19h04.56.579,rantool2,2021.1.4,Win32,60.0240096,6135e006383e6ea6c3d06a28,61364a244f077ef677c6d4ba,"[""comma""]",0,[0.24699999999995725],30,0,30,0,1
,,,,,,,5f7082bf1eac2964de164d15,,,,,,5f7082bf1eac2964de164d15,Kobieta,27,2021-09-06_19h04.56.579,rantool2,2021.1.4,Win32,60.0240096,6135e006383e6ea6c3d06a28,61364a244f077ef677c6d4ba,"[""comma""]",0,[0.2540000000000191],31,0,31,0,1
,,,,,,,5f7082bf1eac2964de164d15,,,,,,5f7082bf1eac2964de164d15,Kobieta,27,2021-09-06_19h04.56.579,rantool2,2021.1.4,Win32,60.0240096,6135e006383e6ea6c3d06a28,61364a244f077ef677c6d4ba,"[""period""]",0,[-0.008000000000038199],32,0,32,0,1
,,,,,,,5f7082bf1eac2964de164d15,,,,,,5f7082bf1eac2964de164d15,Kobieta,27,2021-09-06_19h04.56.579,rantool2,2021.1.4,Win32,60.0240096,6135e006383e6ea6c3d06a28,61364a244f077ef677c6d4ba,"[""period""]",0,[0.20499999999998408],33,0,33,0,1
,,,,,,,5f7082bf1eac2964de164d15,,,,,,5f7082bf1eac2964de164d15,Kobieta,27,2021-09-06_19h04.56.579,rantool2,2021.1.4,Win32,60.0240096,6135e006383e6ea6c3d06a28,61364a244f077ef677c6d4ba,"[""comma""]",0,[0.016000000000019554],34,0,34,0,1
,,,,,,,5f7082bf1eac2964de164d15,,,,,,5f7082bf1eac2964de164d15,Kobieta,27,2021-09-06_19h04.56.579,rantool2,2021.1.4,Win32,60.0240096,6135e006383e6ea6c3d06a28,61364a244f077ef677c6d4ba,"[""period""]",0,[0.06900000000001683],35,0,35,0,1
,,,,,,,5f7082bf1eac2964de164d15,,,,,,5f7082bf1eac2964de164d15,Kobieta,27,2021-09-06_19h04.56.579,rantool2,2021.1.4,Win32,60.0240096,6135e006383e6ea6c3d06a28,61364a244f077ef677c6d4ba,"[""comma""]",0,[0.17300000000000182],36,0,36,0,1
,,,,,,,5f7082bf1eac2964de164d15,,,,,,5f7082bf1eac2964de164d15,Kobieta,27,2021-09-06_19h04.56.579,rantool2,2021.1.4,Win32,60.0240096,6135e006383e6ea6c3d06a28,61364a244f077ef677c6d4ba,"[""comma""]",0,[0.242999999999995],37,0,37,0,1
,,,,,,,5f7082bf1eac2964de164d15,,,,,,5f7082bf1eac2964de164d15,Kobieta,27,2021-09-06_19h04.56.579,rantool2,2021.1.4,Win32,60.0240096,6135e006383e6ea6c3d06a28,61364a244f077ef677c6d4ba,"[""comma""]",0,[0.2699999999999818],38,0,38,0,1
,,,,,,,5f7082bf1eac2964de164d15,,,,,,5f7082bf1eac2964de164d15,Kobieta,27,2021-09-06_19h04.56.579,rantool2,2021.1.4,Win32,60.0240096,6135e006383e6ea6c3d06a28,61364a244f077ef677c6d4ba,"[""comma""]",0,[0.21199999999998909],39,0,39,0,1
,,,,,,,5f7082bf1eac2964de164d15,,,,,,5f7082bf1eac2964de164d15,Kobieta,27,2021-09-06_19h04.56.579,rantool2,2021.1.4,Win32,60.0240096,6135e006383e6ea6c3d06a28,61364a244f077ef677c6d4ba,"[""period""]",0,[0.2559999999999718],40,0,40,0,1
,,,,,,,5f7082bf1eac2964de164d15,,,,,,5f7082bf1eac2964de164d15,Kobieta,27,2021-09-06_19h04.56.579,rantool2,2021.1.4,Win32,60.0240096,6135e006383e6ea6c3d06a28,61364a244f077ef677c6d4ba,"[""period""]",0,[0.23599999999999],41,0,41,0,1
,,,,,,,5f7082bf1eac2964de164d15,,,,,,5f7082bf1eac2964de164d15,Kobieta,27,2021-09-06_19h04.56.579,rantool2,2021.1.4,Win32,60.0240096,6135e006383e6ea6c3d06a28,61364a244f077ef677c6d4ba,"[""comma""]",0,[0.10099999999999909],42,0,42,0,1
,,,,,,,5f7082bf1eac2964de164d15,,,,,,5f7082bf1eac2964de164d15,Kobieta,27,2021-09-06_19h04.56.579,rantool2,2021.1.4,Win32,60.0240096,6135e006383e6ea6c3d06a28,61364a244f077ef677c6d4ba,"[""period""]",0,[0.1169999999999618],43,0,43,0,1
,,,,,,,5f7082bf1eac2964de164d15,,,,,,5f7082bf1eac2964de164d15,Kobieta,27,2021-09-06_19h04.56.579,rantool2,2021.1.4,Win32,60.0240096,6135e006383e6ea6c3d06a28,61364a244f077ef677c6d4ba,"[""comma""]",0,[0.22100000000000364],44,0,44,0,1
,,,,,,,5f7082bf1eac2964de164d15,,,,,,5f7082bf1eac2964de164d15,Kobieta,27,2021-09-06_19h04.56.579,rantool2,2021.1.4,Win32,60.0240096,6135e006383e6ea6c3d06a28,61364a244f077ef677c6d4ba,"[""period""]",0,[0.23200000000002774],45,0,45,0,1
,,,,,,,5f7082bf1eac2964de164d15,,,,,,5f7082bf1eac2964de164d15,Kobieta,27,2021-09-06_19h04.56.579,rantool2,2021.1.4,Win32,60.0240096,6135e006383e6ea6c3d06a28,61364a244f077ef677c6d4ba,"[""comma""]",0,[0.26600000000001955],46,0,46,0,1
,,,,,,,5f7082bf1eac2964de164d15,,,,,,5f7082bf1eac2964de164d15,Kobieta,27,2021-09-06_19h04.56.579,rantool2,2021.1.4,Win32,60.0240096,6135e006383e6ea6c3d06a28,61364a244f077ef677c6d4ba,"[""period""]",0,[0.3089999999999691],47,0,47,0,1
,,,,,,,5f7082bf1eac2964de164d15,,,,,,5f7082bf1eac2964de164d15,Kobieta,27,2021-09-06_19h04.56.579,rantool2,2021.1.4,Win32,60.0240096,6135e006383e6ea6c3d06a28,61364a244f077ef677c6d4ba,"[""comma""]",0,[0.23799999999999955],48,0,48,0,1
,,,,,,,5f7082bf1eac2964de164d15,,,,,,5f7082bf1eac2964de164d15,Kobieta,27,2021-09-06_19h04.56.579,rantool2,2021.1.4,Win32,60.0240096,6135e006383e6ea6c3d06a28,61364a244f077ef677c6d4ba,"[""comma""]",0,[0.2669999999999959],49,0,49,0,1
,,,,,,,5f7082bf1eac2964de164d15,,,,,,5f7082bf1eac2964de164d15,Kobieta,27,2021-09-06_19h04.56.579,rantool2,2021.1.4,Win32,60.0240096,6135e006383e6ea6c3d06a28,61364a244f077ef677c6d4ba,"[""period""]",0,[0.17000000000001592],50,0,50,0,1
,,,,,,,5f7082bf1eac2964de164d15,,,,,,5f7082bf1eac2964de164d15,Kobieta,27,2021-09-06_19h04.56.579,rantool2,2021.1.4,Win32,60.0240096,6135e006383e6ea6c3d06a28,61364a244f077ef677c6d4ba,"[""comma"",""comma""]",0,"[0.28799999999995407,0.5709999999999695]",51,0,51,0,1
,,,,,,,5f7082bf1eac2964de164d15,,,,,,5f7082bf1eac2964de164d15,Kobieta,27,2021-09-06_19h04.56.579,rantool2,2021.1.4,Win32,60.0240096,6135e006383e6ea6c3d06a28,61364a244f077ef677c6d4ba,"[""comma""]",0,[0.3190000000000168],52,0,52,0,1
,,,,,,,5f7082bf1eac2964de164d15,,,,,,5f7082bf1eac2964de164d15,Kobieta,27,2021-09-06_19h04.56.579,rantool2,2021.1.4,Win32,60.0240096,6135e006383e6ea6c3d06a28,61364a244f077ef677c6d4ba,"[""period""]",0,[0.2529999999999859],53,0,53,0,1
,,,,,,,5f7082bf1eac2964de164d15,,,,,,5f7082bf1eac2964de164d15,Kobieta,27,2021-09-06_19h04.56.579,rantool2,2021.1.4,Win32,60.0240096,6135e006383e6ea6c3d06a28,61364a244f077ef677c6d4ba,"[""comma""]",0,[0.6200000000000045],54,0,54,0,1
,,,,,,,5f7082bf1eac2964de164d15,,,,,,5f7082bf1eac2964de164d15,Kobieta,27,2021-09-06_19h04.56.579,rantool2,2021.1.4,Win32,60.0240096,6135e006383e6ea6c3d06a28,61364a244f077ef677c6d4ba,"[""period""]",0,[0.3240000000000123],55,0,55,0,1
,,,,,,,5f7082bf1eac2964de164d15,,,,,,5f7082bf1eac2964de164d15,Kobieta,27,2021-09-06_19h04.56.579,rantool2,2021.1.4,Win32,60.0240096,6135e006383e6ea6c3d06a28,61364a244f077ef677c6d4ba,"[""period""]",0,[0.24500000000000455],56,0,56,0,1
,,,,,,,5f7082bf1eac2964de164d15,,,,,,5f7082bf1eac2964de164d15,Kobieta,27,2021-09-06_19h04.56.579,rantool2,2021.1.4,Win32,60.0240096,6135e006383e6ea6c3d06a28,61364a244f077ef677c6d4ba,"[""period"",""comma""]",0,"[0.2669999999999959,1.8219999999999459]",57,0,57,0,1
,,,,,,,5f7082bf1eac2964de164d15,,,,,,5f7082bf1eac2964de164d15,Kobieta,27,2021-09-06_19h04.56.579,rantool2,2021.1.4,Win32,60.0240096,6135e006383e6ea6c3d06a28,61364a244f077ef677c6d4ba,0,0,,58,0,58,0,1
,,,,,,,5f7082bf1eac2964de164d15,,,,,,5f7082bf1eac2964de164d15,Kobieta,27,2021-09-06_19h04.56.579,rantool2,2021.1.4,Win32,60.0240096,6135e006383e6ea6c3d06a28,61364a244f077ef677c6d4ba,"[""comma""]",0,[0.26799999999997226],59,0,59,0,1
,,,,,,,5f7082bf1eac2964de164d15,,,,,,5f7082bf1eac2964de164d15,Kobieta,27,2021-09-06_19h04.56.579,rantool2,2021.1.4,Win32,60.0240096,6135e006383e6ea6c3d06a28,61364a244f077ef677c6d4ba,"[""comma""]",0,[0.30400000000003047],60,0,60,0,1
,,,,,,,5f7082bf1eac2964de164d15,,,,,,5f7082bf1eac2964de164d15,Kobieta,27,2021-09-06_19h04.56.579,rantool2,2021.1.4,Win32,60.0240096,6135e006383e6ea6c3d06a28,61364a244f077ef677c6d4ba,"[""period""]",0,[0.26900000000000546],61,0,61,0,1
,,,,,,,5f7082bf1eac2964de164d15,,,,,,5f7082bf1eac2964de164d15,Kobieta,27,2021-09-06_19h04.56.579,rantool2,2021.1.4,Win32,60.0240096,6135e006383e6ea6c3d06a28,61364a244f077ef677c6d4ba,"[""comma"",""period""]",0,"[0.0020000000000095497,1.0720000000000027]",62,0,62,0,1
,,,,,,,5f7082bf1eac2964de164d15,,,,,,5f7082bf1eac2964de164d15,Kobieta,27,2021-09-06_19h04.56.579,rantool2,2021.1.4,Win32,60.0240096,6135e006383e6ea6c3d06a28,61364a244f077ef677c6d4ba,"[""period""]",0,[1.7350000000000136],63,0,63,0,1
,,,,,,,5f7082bf1eac2964de164d15,,,,,,5f7082bf1eac2964de164d15,Kobieta,27,2021-09-06_19h04.56.579,rantool2,2021.1.4,Win32,60.0240096,6135e006383e6ea6c3d06a28,61364a244f077ef677c6d4ba,0,0,,64,0,64,0,1
,,,,,,,5f7082bf1eac2964de164d15,,,,,,5f7082bf1eac2964de164d15,Kobieta,27,2021-09-06_19h04.56.579,rantool2,2021.1.4,Win32,60.0240096,6135e006383e6ea6c3d06a28,61364a244f077ef677c6d4ba,"[""comma""]",0,[0.25200000000000955],65,0,65,0,1
,,,,,,,5f7082bf1eac2964de164d15,,,,,,5f7082bf1eac2964de164d15,Kobieta,27,2021-09-06_19h04.56.579,rantool2,2021.1.4,Win32,60.0240096,6135e006383e6ea6c3d06a28,61364a244f077ef677c6d4ba,"[""period""]",0,[0.06799999999998363],66,0,66,0,1
,,,,,,,5f7082bf1eac2964de164d15,,,,,,5f7082bf1eac2964de164d15,Kobieta,27,2021-09-06_19h04.56.579,rantool2,2021.1.4,Win32,60.0240096,6135e006383e6ea6c3d06a28,61364a244f077ef677c6d4ba,"[""comma""]",0,[0.25200000000000955],67,0,67,0,1
,,,,,,,5f7082bf1eac2964de164d15,,,,,,5f7082bf1eac2964de164d15,Kobieta,27,2021-09-06_19h04.56.579,rantool2,2021.1.4,Win32,60.0240096,6135e006383e6ea6c3d06a28,61364a244f077ef677c6d4ba,"[""period""]",0,[0.13599999999996726],68,0,68,0,1
,,,,,,,5f7082bf1eac2964de164d15,,,,,,5f7082bf1eac2964de164d15,Kobieta,27,2021-09-06_19h04.56.579,rantool2,2021.1.4,Win32,60.0240096,6135e006383e6ea6c3d06a28,61364a244f077ef677c6d4ba,"[""comma""]",0,[0.24500000000000455],69,0,69,0,1
,,,,,,,5f7082bf1eac2964de164d15,,,,,,5f7082bf1eac2964de164d15,Kobieta,27,2021-09-06_19h04.56.579,rantool2,2021.1.4,Win32,60.0240096,6135e006383e6ea6c3d06a28,61364a244f077ef677c6d4ba,"[""comma""]",0,[0.17599999999998772],70,0,70,0,1
,,,,,,,5f7082bf1eac2964de164d15,,,,,,5f7082bf1eac2964de164d15,Kobieta,27,2021-09-06_19h04.56.579,rantool2,2021.1.4,Win32,60.0240096,6135e006383e6ea6c3d06a28,61364a244f077ef677c6d4ba,"[""period""]",0,[0.11099999999999],71,0,71,0,1
,,,,,,,5f7082bf1eac2964de164d15,,,,,,5f7082bf1eac2964de164d15,Kobieta,27,2021-09-06_19h04.56.579,rantool2,2021.1.4,Win32,60.0240096,6135e006383e6ea6c3d06a28,61364a244f077ef677c6d4ba,"[""comma""]",0,[0.05299999999999727],72,0,72,0,1
,,,,,,,5f7082bf1eac2964de164d15,,,,,,5f7082bf1eac2964de164d15,Kobieta,27,2021-09-06_19h04.56.579,rantool2,2021.1.4,Win32,60.0240096,6135e006383e6ea6c3d06a28,61364a244f077ef677c6d4ba,"[""comma""]",0,[0.28400000000004866],73,0,73,0,1
,,,,,,,5f7082bf1eac2964de164d15,,,,,,5f7082bf1eac2964de164d15,Kobieta,27,2021-09-06_19h04.56.579,rantool2,2021.1.4,Win32,60.0240096,6135e006383e6ea6c3d06a28,61364a244f077ef677c6d4ba,"[""period""]",0,[-0.014999999999986358],74,0,74,0,1
,,,,,,,5f7082bf1eac2964de164d15,,,,,,5f7082bf1eac2964de164d15,Kobieta,27,2021-09-06_19h04.56.579,rantool2,2021.1.4,Win32,60.0240096,6135e006383e6ea6c3d06a28,61364a244f077ef677c6d4ba,"[""comma""]",0,[0.2980000000000018],75,0,75,0,1
,,,,,,,5f7082bf1eac2964de164d15,,,,,,5f7082bf1eac2964de164d15,Kobieta,27,2021-09-06_19h04.56.579,rantool2,2021.1.4,Win32,60.0240096,6135e006383e6ea6c3d06a28,61364a244f077ef677c6d4ba,"[""period""]",0,[1.7860000000000014],76,0,76,0,1
,,,,,,,5f7082bf1eac2964de164d15,,,,,,5f7082bf1eac2964de164d15,Kobieta,27,2021-09-06_19h04.56.579,rantool2,2021.1.4,Win32,60.0240096,6135e006383e6ea6c3d06a28,61364a244f077ef677c6d4ba,0,0,,77,0,77,0,1
,,,,,,,5f7082bf1eac2964de164d15,,,,,,5f7082bf1eac2964de164d15,Kobieta,27,2021-09-06_19h04.56.579,rantool2,2021.1.4,Win32,60.0240096,6135e006383e6ea6c3d06a28,61364a244f077ef677c6d4ba,"[""comma""]",0,[0.23600000000004684],78,0,78,0,1
,,,,,,,5f7082bf1eac2964de164d15,,,,,,5f7082bf1eac2964de164d15,Kobieta,27,2021-09-06_19h04.56.579,rantool2,2021.1.4,Win32,60.0240096,6135e006383e6ea6c3d06a28,61364a244f077ef677c6d4ba,"[""period""]",0,[0.2349999999999568],79,0,79,0,1
,,,,,,,5f7082bf1eac2964de164d15,,,,,,5f7082bf1eac2964de164d15,Kobieta,27,2021-09-06_19h04.56.579,rantool2,2021.1.4,Win32,60.0240096,6135e006383e6ea6c3d06a28,61364a244f077ef677c6d4ba,"[""comma""]",0,[0.353999999999985],80,0,80,0,1
,,,,,,,5f7082bf1eac2964de164d15,,,,,,5f7082bf1eac2964de164d15,Kobieta,27,2021-09-06_19h04.56.579,rantool2,2021.1.4,Win32,60.0240096,6135e006383e6ea6c3d06a28,61364a244f077ef677c6d4ba,"[""comma""]",0,[0.2820000000000391],81,0,81,0,1
,,,,,,,5f7082bf1eac2964de164d15,,,,,,5f7082bf1eac2964de164d15,Kobieta,27,2021-09-06_19h04.56.579,rantool2,2021.1.4,Win32,60.0240096,6135e006383e6ea6c3d06a28,61364a244f077ef677c6d4ba,"[""period"",""period""]",0,"[0.25200000000000955,1.656000000000006]",82,0,82,0,1
,,,,,,,5f7082bf1eac2964de164d15,,,,,,5f7082bf1eac2964de164d15,Kobieta,27,2021-09-06_19h04.56.579,rantool2,2021.1.4,Win32,60.0240096,6135e006383e6ea6c3d06a28,61364a244f077ef677c6d4ba,0,0,,83,0,83,0,1
,,,,,,,5f7082bf1eac2964de164d15,,,,,,5f7082bf1eac2964de164d15,Kobieta,27,2021-09-06_19h04.56.579,rantool2,2021.1.4,Win32,60.0240096,6135e006383e6ea6c3d06a28,61364a244f077ef677c6d4ba,"[""period"",""comma""]",0,"[0.2650000000000432,1.7930000000000064]",84,0,84,0,1
,,,,,,,5f7082bf1eac2964de164d15,,,,,,5f7082bf1eac2964de164d15,Kobieta,27,2021-09-06_19h04.56.579,rantool2,2021.1.4,Win32,60.0240096,6135e006383e6ea6c3d06a28,61364a244f077ef677c6d4ba,"[""comma""]",0,[1.8599999999999568],85,0,85,0,1
,,,,,,,5f7082bf1eac2964de164d15,,,,,,5f7082bf1eac2964de164d15,Kobieta,27,2021-09-06_19h04.56.579,rantool2,2021.1.4,Win32,60.0240096,6135e006383e6ea6c3d06a28,61364a244f077ef677c6d4ba,"[""period""]",0,[1.7649999999999864],86,0,86,0,1
,,,,,,,5f7082bf1eac2964de164d15,,,,,,5f7082bf1eac2964de164d15,Kobieta,27,2021-09-06_19h04.56.579,rantool2,2021.1.4,Win32,60.0240096,6135e006383e6ea6c3d06a28,61364a244f077ef677c6d4ba,"[""period""]",0,[1.3700000000000045],87,0,87,0,1
,,,,,,,5f7082bf1eac2964de164d15,,,,,,5f7082bf1eac2964de164d15,Kobieta,27,2021-09-06_19h04.56.579,rantool2,2021.1.4,Win32,60.0240096,6135e006383e6ea6c3d06a28,61364a244f077ef677c6d4ba,"[""period""]",0,[1.024000000000001],88,0,88,0,1
,,,,,,,5f7082bf1eac2964de164d15,,,,,,5f7082bf1eac2964de164d15,Kobieta,27,2021-09-06_19h04.56.579,rantool2,2021.1.4,Win32,60.0240096,6135e006383e6ea6c3d06a28,61364a244f077ef677c6d4ba,0,0,,89,0,89,0,1
,,,,,,,5f7082bf1eac2964de164d15,,,,,,5f7082bf1eac2964de164d15,Kobieta,27,2021-09-06_19h04.56.579,rantool2,2021.1.4,Win32,60.0240096,6135e006383e6ea6c3d06a28,61364a244f077ef677c6d4ba,"[""comma""]",0,[0.2540000000000191],90,0,90,0,1
,,,,,,,5f7082bf1eac2964de164d15,,,,,,5f7082bf1eac2964de164d15,Kobieta,27,2021-09-06_19h04.56.579,rantool2,2021.1.4,Win32,60.0240096,6135e006383e6ea6c3d06a28,61364a244f077ef677c6d4ba,"[""comma""]",0,[0.28400000000004866],91,0,91,0,1
,,,,,,,5f7082bf1eac2964de164d15,,,,,,5f7082bf1eac2964de164d15,Kobieta,27,2021-09-06_19h04.56.579,rantool2,2021.1.4,Win32,60.0240096,6135e006383e6ea6c3d06a28,61364a244f077ef677c6d4ba,"[""period""]",0,[0.26600000000001955],92,0,92,0,1
,,,,,,,5f7082bf1eac2964de164d15,,,,,,5f7082bf1eac2964de164d15,Kobieta,27,2021-09-06_19h04.56.579,rantool2,2021.1.4,Win32,60.0240096,6135e006383e6ea6c3d06a28,61364a244f077ef677c6d4ba,"[""comma""]",0,[0.004000000000019099],93,0,93,0,1
,,,,,,,5f7082bf1eac2964de164d15,,,,,,5f7082bf1eac2964de164d15,Kobieta,27,2021-09-06_19h04.56.579,rantool2,2021.1.4,Win32,60.0240096,6135e006383e6ea6c3d06a28,61364a244f077ef677c6d4ba,"[""period""]",0,[0.12999999999999545],94,0,94,0,1
,,,,,,,5f7082bf1eac2964de164d15,,,,,,5f7082bf1eac2964de164d15,Kobieta,27,2021-09-06_19h04.56.579,rantool2,2021.1.4,Win32,60.0240096,6135e006383e6ea6c3d06a28,61364a244f077ef677c6d4ba,"[""period""]",0,[0.2540000000000191],95,0,95,0,1
,,,,,,,5f7082bf1eac2964de164d15,,,,,,5f7082bf1eac2964de164d15,Kobieta,27,2021-09-06_19h04.56.579,rantool2,2021.1.4,Win32,60.0240096,6135e006383e6ea6c3d06a28,61364a244f077ef677c6d4ba,"[""comma""]",0,[0.2529999999999859],96,0,96,0,1
,,,,,,,5f7082bf1eac2964de164d15,,,,,,5f7082bf1eac2964de164d15,Kobieta,27,2021-09-06_19h04.56.579,rantool2,2021.1.4,Win32,60.0240096,6135e006383e6ea6c3d06a28,61364a244f077ef677c6d4ba,"[""period"",""period""]",0,"[0.25799999999998136,1.7889999999999873]",97,0,97,0,1
,,,,,,,5f7082bf1eac2964de164d15,,,,,,5f7082bf1eac2964de164d15,Kobieta,27,2021-09-06_19h04.56.579,rantool2,2021.1.4,Win32,60.0240096,6135e006383e6ea6c3d06a28,61364a244f077ef677c6d4ba,"[""comma""]",0,[1.8059999999999832],98,0,98,0,1
,,,,,,,5f7082bf1eac2964de164d15,,,,,,5f7082bf1eac2964de164d15,Kobieta,27,2021-09-06_19h04.56.579,rantool2,2021.1.4,Win32,60.0240096,6135e006383e6ea6c3d06a28,61364a244f077ef677c6d4ba,"[""period""]",0,[1.7210000000000036],99,0,99,0,1
,,,,,,,5f7082bf1eac2964de164d15,,,,,,5f7082bf1eac2964de164d15,Kobieta,27,2021-09-06_19h04.56.579,rantool2,2021.1.4,Win32,60.0240096,6135e006383e6ea6c3d06a28,61364a244f077ef677c6d4ba,"[""comma""]",0,[1.867999999999995],100,0,100,0,1
,,,,,,,5f7082bf1eac2964de164d15,,,,,,5f7082bf1eac2964de164d15,Kobieta,27,2021-09-06_19h04.56.579,rantool2,2021.1.4,Win32,60.0240096,6135e006383e6ea6c3d06a28,61364a244f077ef677c6d4ba,0,0,,101,0,101,0,1
,,,,,,,5f7082bf1eac2964de164d15,,,,,,5f7082bf1eac2964de164d15,Kobieta,27,2021-09-06_19h04.56.579,rantool2,2021.1.4,Win32,60.0240096,6135e006383e6ea6c3d06a28,61364a244f077ef677c6d4ba,"[""comma"",""period""]",0,"[0.33600000000001273,1.9669999999999845]",102,0,102,0,1
,,,,,,,5f7082bf1eac2964de164d15,,,,,,5f7082bf1eac2964de164d15,Kobieta,27,2021-09-06_19h04.56.579,rantool2,2021.1.4,Win32,60.0240096,6135e006383e6ea6c3d06a28,61364a244f077ef677c6d4ba,0,0,,103,0,103,0,1
,,,,,,,5f7082bf1eac2964de164d15,,,,,,5f7082bf1eac2964de164d15,Kobieta,27,2021-09-06_19h04.56.579,rantool2,2021.1.4,Win32,60.0240096,6135e006383e6ea6c3d06a28,61364a244f077ef677c6d4ba,"[""comma""]",0,[0.34799999999995634],104,0,104,0,1
,,,,,,,5f7082bf1eac2964de164d15,,,,,,5f7082bf1eac2964de164d15,Kobieta,27,2021-09-06_19h04.56.579,rantool2,2021.1.4,Win32,60.0240096,6135e006383e6ea6c3d06a28,61364a244f077ef677c6d4ba,"[""period""]",0,[0.003999999999962256],105,0,105,0,1
,,,,,,,5f7082bf1eac2964de164d15,,,,,,5f7082bf1eac2964de164d15,Kobieta,27,2021-09-06_19h04.56.579,rantool2,2021.1.4,Win32,60.0240096,6135e006383e6ea6c3d06a28,61364a244f077ef677c6d4ba,"[""comma"",""comma""]",0,"[0.04099999999999682,1.6809999999999832]",106,0,106,0,1
,,,,,,,5f7082bf1eac2964de164d15,,,,,,5f7082bf1eac2964de164d15,Kobieta,27,2021-09-06_19h04.56.579,rantool2,2021.1.4,Win32,60.0240096,6135e006383e6ea6c3d06a28,61364a244f077ef677c6d4ba,0,0,,107,0,107,0,1
,,,,,,,5f7082bf1eac2964de164d15,,,,,,5f7082bf1eac2964de164d15,Kobieta,27,2021-09-06_19h04.56.579,rantool2,2021.1.4,Win32,60.0240096,6135e006383e6ea6c3d06a28,61364a244f077ef677c6d4ba,"[""comma""]",0,[0.4900000000000091],108,0,108,0,1
,,,,,,,5f7082bf1eac2964de164d15,,,,,,5f7082bf1eac2964de164d15,Kobieta,27,2021-09-06_19h04.56.579,rantool2,2021.1.4,Win32,60.0240096,6135e006383e6ea6c3d06a28,61364a244f077ef677c6d4ba,"[""comma""]",0,[0.22800000000000864],109,0,109,0,1
,,,,,,,5f7082bf1eac2964de164d15,,,,,,5f7082bf1eac2964de164d15,Kobieta,27,2021-09-06_19h04.56.579,rantool2,2021.1.4,Win32,60.0240096,6135e006383e6ea6c3d06a28,61364a244f077ef677c6d4ba,"[""period"",""period""]",0,"[0.125,1.8400000000000318]",110,0,110,0,1
,,,,,,,5f7082bf1eac2964de164d15,,,,,,5f7082bf1eac2964de164d15,Kobieta,27,2021-09-06_19h04.56.579,rantool2,2021.1.4,Win32,60.0240096,6135e006383e6ea6c3d06a28,61364a244f077ef677c6d4ba,"[""comma""]",0,[1.9139999999999873],111,0,111,0,1
,,,,,,,5f7082bf1eac2964de164d15,,,,,,5f7082bf1eac2964de164d15,Kobieta,27,2021-09-06_19h04.56.579,rantool2,2021.1.4,Win32,60.0240096,6135e006383e6ea6c3d06a28,61364a244f077ef677c6d4ba,"[""comma"",""comma""]",0,"[1.6709999999999923,1.7339999999999804]",112,0,112,0,1
,,,,,,,5f7082bf1eac2964de164d15,,,,,,5f7082bf1eac2964de164d15,Kobieta,27,2021-09-06_19h04.56.579,rantool2,2021.1.4,Win32,60.0240096,6135e006383e6ea6c3d06a28,61364a244f077ef677c6d4ba,"[""period""]",0,[1.5360000000000014],113,0,113,0,1
,,,,,,,5f7082bf1eac2964de164d15,,,,,,5f7082bf1eac2964de164d15,Kobieta,27,2021-09-06_19h04.56.579,rantool2,2021.1.4,Win32,60.0240096,6135e006383e6ea6c3d06a28,61364a244f077ef677c6d4ba,0,0,,114,0,114,0,1
,,,,,,,5f7082bf1eac2964de164d15,,,,,,5f7082bf1eac2964de164d15,Kobieta,27,2021-09-06_19h04.56.579,rantool2,2021.1.4,Win32,60.0240096,6135e006383e6ea6c3d06a28,61364a244f077ef677c6d4ba,"[""comma""]",0,[0.19400000000001683],115,0,115,0,1
,,,,,,,5f7082bf1eac2964de164d15,,,,,,5f7082bf1eac2964de164d15,Kobieta,27,2021-09-06_19h04.56.579,rantool2,2021.1.4,Win32,60.0240096,6135e006383e6ea6c3d06a28,61364a244f077ef677c6d4ba,"[""period""]",0,[0.13999999999998636],116,0,116,0,1
,,,,,,,5f7082bf1eac2964de164d15,,,,,,5f7082bf1eac2964de164d15,Kobieta,27,2021-09-06_19h04.56.579,rantool2,2021.1.4,Win32,60.0240096,6135e006383e6ea6c3d06a28,61364a244f077ef677c6d4ba,"[""comma""]",0,[0.07300000000003593],117,0,117,0,1
,,,,,,,5f7082bf1eac2964de164d15,,,,,,5f7082bf1eac2964de164d15,Kobieta,27,2021-09-06_19h04.56.579,rantool2,2021.1.4,Win32,60.0240096,6135e006383e6ea6c3d06a28,61364a244f077ef677c6d4ba,"[""period""]",0,[0.055999999999983174],118,0,118,0,1
,,,,,,,5f7082bf1eac2964de164d15,,,,,,5f7082bf1eac2964de164d15,Kobieta,27,2021-09-06_19h04.56.579,rantool2,2021.1.4,Win32,60.0240096,6135e006383e6ea6c3d06a28,61364a244f077ef677c6d4ba,"[""period""]",0,[-0.016000000000019554],119,0,119,0,1
