key_resp_5.keys,key_resp_5.corr,key_resp_5.rt,trials.thisRepN,trials.thisTrialN,trials.thisN,trials.thisIndex,trials.ran,id*,Płeć*,Wiek*,date,expName,psychopyVersion,OS,frameRate,id,STUDY_ID,SESSION_ID,key_resp_7.keys,key_resp_7.rt,trials_2.thisRepN,trials_2.thisTrialN,trials_2.thisN,trials_2.thisIndex,trials_2.ran,series_0,series_1,acss_0,acss_1,comparison
"[""comma""]",0,[0.49570000008679926],0,0,0,0,1,60e46849a6a53ab857bae26f,Mężczyzna,22,2021-07-13_22h17.48.929,rantool2,2021.1.4,Win32,59.87665409,60e46849a6a53ab857bae26f,60d9d14f4a8a35a482e0d9bf,60edf413f7d73cfac4b82df3,,,,,,,,,,,,
"[""period""]",0,[0.3343700000550598],1,0,1,0,1,60e46849a6a53ab857bae26f,Mężczyzna,22,2021-07-13_22h17.48.929,rantool2,2021.1.4,Win32,59.87665409,60e46849a6a53ab857bae26f,60d9d14f4a8a35a482e0d9bf,60edf413f7d73cfac4b82df3,,,,,,,,,,,,
"[""period""]",0,[0.30068000010214746],2,0,2,0,1,60e46849a6a53ab857bae26f,Mężczyzna,22,2021-07-13_22h17.48.929,rantool2,2021.1.4,Win32,59.87665409,60e46849a6a53ab857bae26f,60d9d14f4a8a35a482e0d9bf,60edf413f7d73cfac4b82df3,,,,,,,,,,,,
"[""comma""]",0,[0.23666499997489154],3,0,3,0,1,60e46849a6a53ab857bae26f,Mężczyzna,22,2021-07-13_22h17.48.929,rantool2,2021.1.4,Win32,59.87665409,60e46849a6a53ab857bae26f,60d9d14f4a8a35a482e0d9bf,60edf413f7d73cfac4b82df3,,,,,,,,,,,,
"[""period""]",0,[0.2341400000732392],4,0,4,0,1,60e46849a6a53ab857bae26f,Mężczyzna,22,2021-07-13_22h17.48.929,rantool2,2021.1.4,Win32,59.87665409,60e46849a6a53ab857bae26f,60d9d14f4a8a35a482e0d9bf,60edf413f7d73cfac4b82df3,,,,,,,,,,,,
"[""period""]",0,[0.11714500002563],5,0,5,0,1,60e46849a6a53ab857bae26f,Mężczyzna,22,2021-07-13_22h17.48.929,rantool2,2021.1.4,Win32,59.87665409,60e46849a6a53ab857bae26f,60d9d14f4a8a35a482e0d9bf,60edf413f7d73cfac4b82df3,,,,,,,,,,,,
"[""comma""]",0,[0.25063999998383224],6,0,6,0,1,60e46849a6a53ab857bae26f,Mężczyzna,22,2021-07-13_22h17.48.929,rantool2,2021.1.4,Win32,59.87665409,60e46849a6a53ab857bae26f,60d9d14f4a8a35a482e0d9bf,60edf413f7d73cfac4b82df3,,,,,,,,,,,,
"[""period""]",0,[0.1753849999513477],7,0,7,0,1,60e46849a6a53ab857bae26f,Mężczyzna,22,2021-07-13_22h17.48.929,rantool2,2021.1.4,Win32,59.87665409,60e46849a6a53ab857bae26f,60d9d14f4a8a35a482e0d9bf,60edf413f7d73cfac4b82df3,,,,,,,,,,,,
"[""comma""]",0,[0.21741500007919967],8,0,8,0,1,60e46849a6a53ab857bae26f,Mężczyzna,22,2021-07-13_22h17.48.929,rantool2,2021.1.4,Win32,59.87665409,60e46849a6a53ab857bae26f,60d9d14f4a8a35a482e0d9bf,60edf413f7d73cfac4b82df3,,,,,,,,,,,,
"[""period""]",0,[0.3002400000113994],9,0,9,0,1,60e46849a6a53ab857bae26f,Mężczyzna,22,2021-07-13_22h17.48.929,rantool2,2021.1.4,Win32,59.87665409,60e46849a6a53ab857bae26f,60d9d14f4a8a35a482e0d9bf,60edf413f7d73cfac4b82df3,,,,,,,,,,,,
"[""period""]",0,[0.6509500001557171],10,0,10,0,1,60e46849a6a53ab857bae26f,Mężczyzna,22,2021-07-13_22h17.48.929,rantool2,2021.1.4,Win32,59.87665409,60e46849a6a53ab857bae26f,60d9d14f4a8a35a482e0d9bf,60edf413f7d73cfac4b82df3,,,,,,,,,,,,
"[""period""]",0,[0.5249199999962002],11,0,11,0,1,60e46849a6a53ab857bae26f,Mężczyzna,22,2021-07-13_22h17.48.929,rantool2,2021.1.4,Win32,59.87665409,60e46849a6a53ab857bae26f,60d9d14f4a8a35a482e0d9bf,60edf413f7d73cfac4b82df3,,,,,,,,,,,,
"[""comma""]",0,[0.3705949999857694],12,0,12,0,1,60e46849a6a53ab857bae26f,Mężczyzna,22,2021-07-13_22h17.48.929,rantool2,2021.1.4,Win32,59.87665409,60e46849a6a53ab857bae26f,60d9d14f4a8a35a482e0d9bf,60edf413f7d73cfac4b82df3,,,,,,,,,,,,
"[""period""]",0,[0.23453499982133508],13,0,13,0,1,60e46849a6a53ab857bae26f,Mężczyzna,22,2021-07-13_22h17.48.929,rantool2,2021.1.4,Win32,59.87665409,60e46849a6a53ab857bae26f,60d9d14f4a8a35a482e0d9bf,60edf413f7d73cfac4b82df3,,,,,,,,,,,,
"[""comma""]",0,[0.15586000005714595],14,0,14,0,1,60e46849a6a53ab857bae26f,Mężczyzna,22,2021-07-13_22h17.48.929,rantool2,2021.1.4,Win32,59.87665409,60e46849a6a53ab857bae26f,60d9d14f4a8a35a482e0d9bf,60edf413f7d73cfac4b82df3,,,,,,,,,,,,
"[""period""]",0,[0.21599500020965934],15,0,15,0,1,60e46849a6a53ab857bae26f,Mężczyzna,22,2021-07-13_22h17.48.929,rantool2,2021.1.4,Win32,59.87665409,60e46849a6a53ab857bae26f,60d9d14f4a8a35a482e0d9bf,60edf413f7d73cfac4b82df3,,,,,,,,,,,,
0,0,,16,0,16,0,1,60e46849a6a53ab857bae26f,Mężczyzna,22,2021-07-13_22h17.48.929,rantool2,2021.1.4,Win32,59.87665409,60e46849a6a53ab857bae26f,60d9d14f4a8a35a482e0d9bf,60edf413f7d73cfac4b82df3,,,,,,,,,,,,
"[""period""]",0,[0.22024499997496605],17,0,17,0,1,60e46849a6a53ab857bae26f,Mężczyzna,22,2021-07-13_22h17.48.929,rantool2,2021.1.4,Win32,59.87665409,60e46849a6a53ab857bae26f,60d9d14f4a8a35a482e0d9bf,60edf413f7d73cfac4b82df3,,,,,,,,,,,,
"[""comma""]",0,[0.19644999993033707],18,0,18,0,1,60e46849a6a53ab857bae26f,Mężczyzna,22,2021-07-13_22h17.48.929,rantool2,2021.1.4,Win32,59.87665409,60e46849a6a53ab857bae26f,60d9d14f4a8a35a482e0d9bf,60edf413f7d73cfac4b82df3,,,,,,,,,,,,
"[""comma""]",0,[0.1932600000873208],19,0,19,0,1,60e46849a6a53ab857bae26f,Mężczyzna,22,2021-07-13_22h17.48.929,rantool2,2021.1.4,Win32,59.87665409,60e46849a6a53ab857bae26f,60d9d14f4a8a35a482e0d9bf,60edf413f7d73cfac4b82df3,,,,,,,,,,,,
"[""comma""]",0,[0.20107999979518354],20,0,20,0,1,60e46849a6a53ab857bae26f,Mężczyzna,22,2021-07-13_22h17.48.929,rantool2,2021.1.4,Win32,59.87665409,60e46849a6a53ab857bae26f,60d9d14f4a8a35a482e0d9bf,60edf413f7d73cfac4b82df3,,,,,,,,,,,,
"[""period""]",0,[0.2341499999165535],21,0,21,0,1,60e46849a6a53ab857bae26f,Mężczyzna,22,2021-07-13_22h17.48.929,rantool2,2021.1.4,Win32,59.87665409,60e46849a6a53ab857bae26f,60d9d14f4a8a35a482e0d9bf,60edf413f7d73cfac4b82df3,,,,,,,,,,,,
"[""period""]",0,[0.19555999990552664],22,0,22,0,1,60e46849a6a53ab857bae26f,Mężczyzna,22,2021-07-13_22h17.48.929,rantool2,2021.1.4,Win32,59.87665409,60e46849a6a53ab857bae26f,60d9d14f4a8a35a482e0d9bf,60edf413f7d73cfac4b82df3,,,,,,,,,,,,
"[""period""]",0,[0.22081000008620322],23,0,23,0,1,60e46849a6a53ab857bae26f,Mężczyzna,22,2021-07-13_22h17.48.929,rantool2,2021.1.4,Win32,59.87665409,60e46849a6a53ab857bae26f,60d9d14f4a8a35a482e0d9bf,60edf413f7d73cfac4b82df3,,,,,,,,,,,,
"[""comma""]",0,[0.14412000006996095],24,0,24,0,1,60e46849a6a53ab857bae26f,Mężczyzna,22,2021-07-13_22h17.48.929,rantool2,2021.1.4,Win32,59.87665409,60e46849a6a53ab857bae26f,60d9d14f4a8a35a482e0d9bf,60edf413f7d73cfac4b82df3,,,,,,,,,,,,
"[""comma""]",0,[0.2342099999077618],25,0,25,0,1,60e46849a6a53ab857bae26f,Mężczyzna,22,2021-07-13_22h17.48.929,rantool2,2021.1.4,Win32,59.87665409,60e46849a6a53ab857bae26f,60d9d14f4a8a35a482e0d9bf,60edf413f7d73cfac4b82df3,,,,,,,,,,,,
"[""comma""]",0,[0.2072899998165667],26,0,26,0,1,60e46849a6a53ab857bae26f,Mężczyzna,22,2021-07-13_22h17.48.929,rantool2,2021.1.4,Win32,59.87665409,60e46849a6a53ab857bae26f,60d9d14f4a8a35a482e0d9bf,60edf413f7d73cfac4b82df3,,,,,,,,,,,,
"[""comma""]",0,[0.18732000002637506],27,0,27,0,1,60e46849a6a53ab857bae26f,Mężczyzna,22,2021-07-13_22h17.48.929,rantool2,2021.1.4,Win32,59.87665409,60e46849a6a53ab857bae26f,60d9d14f4a8a35a482e0d9bf,60edf413f7d73cfac4b82df3,,,,,,,,,,,,
"[""period""]",0,[0.0832249999511987],28,0,28,0,1,60e46849a6a53ab857bae26f,Mężczyzna,22,2021-07-13_22h17.48.929,rantool2,2021.1.4,Win32,59.87665409,60e46849a6a53ab857bae26f,60d9d14f4a8a35a482e0d9bf,60edf413f7d73cfac4b82df3,,,,,,,,,,,,
"[""period""]",0,[0.16743999999016523],29,0,29,0,1,60e46849a6a53ab857bae26f,Mężczyzna,22,2021-07-13_22h17.48.929,rantool2,2021.1.4,Win32,59.87665409,60e46849a6a53ab857bae26f,60d9d14f4a8a35a482e0d9bf,60edf413f7d73cfac4b82df3,,,,,,,,,,,,
"[""comma""]",0,[0.19374000001698732],30,0,30,0,1,60e46849a6a53ab857bae26f,Mężczyzna,22,2021-07-13_22h17.48.929,rantool2,2021.1.4,Win32,59.87665409,60e46849a6a53ab857bae26f,60d9d14f4a8a35a482e0d9bf,60edf413f7d73cfac4b82df3,,,,,,,,,,,,
"[""period""]",0,[0.2010399999562651],31,0,31,0,1,60e46849a6a53ab857bae26f,Mężczyzna,22,2021-07-13_22h17.48.929,rantool2,2021.1.4,Win32,59.87665409,60e46849a6a53ab857bae26f,60d9d14f4a8a35a482e0d9bf,60edf413f7d73cfac4b82df3,,,,,,,,,,,,
"[""period""]",0,[0.17405500006861985],32,0,32,0,1,60e46849a6a53ab857bae26f,Mężczyzna,22,2021-07-13_22h17.48.929,rantool2,2021.1.4,Win32,59.87665409,60e46849a6a53ab857bae26f,60d9d14f4a8a35a482e0d9bf,60edf413f7d73cfac4b82df3,,,,,,,,,,,,
"[""period""]",0,[0.08370999991893768],33,0,33,0,1,60e46849a6a53ab857bae26f,Mężczyzna,22,2021-07-13_22h17.48.929,rantool2,2021.1.4,Win32,59.87665409,60e46849a6a53ab857bae26f,60d9d14f4a8a35a482e0d9bf,60edf413f7d73cfac4b82df3,,,,,,,,,,,,
"[""comma""]",0,[0.08339499984867871],34,0,34,0,1,60e46849a6a53ab857bae26f,Mężczyzna,22,2021-07-13_22h17.48.929,rantool2,2021.1.4,Win32,59.87665409,60e46849a6a53ab857bae26f,60d9d14f4a8a35a482e0d9bf,60edf413f7d73cfac4b82df3,,,,,,,,,,,,
"[""comma""]",0,[0.16168999997898936],35,0,35,0,1,60e46849a6a53ab857bae26f,Mężczyzna,22,2021-07-13_22h17.48.929,rantool2,2021.1.4,Win32,59.87665409,60e46849a6a53ab857bae26f,60d9d14f4a8a35a482e0d9bf,60edf413f7d73cfac4b82df3,,,,,,,,,,,,
"[""comma""]",0,[0.19577500014565885],36,0,36,0,1,60e46849a6a53ab857bae26f,Mężczyzna,22,2021-07-13_22h17.48.929,rantool2,2021.1.4,Win32,59.87665409,60e46849a6a53ab857bae26f,60d9d14f4a8a35a482e0d9bf,60edf413f7d73cfac4b82df3,,,,,,,,,,,,
"[""comma""]",0,[0.22332499991171062],37,0,37,0,1,60e46849a6a53ab857bae26f,Mężczyzna,22,2021-07-13_22h17.48.929,rantool2,2021.1.4,Win32,59.87665409,60e46849a6a53ab857bae26f,60d9d14f4a8a35a482e0d9bf,60edf413f7d73cfac4b82df3,,,,,,,,,,,,
"[""period""]",0,[0.07500499999150634],38,0,38,0,1,60e46849a6a53ab857bae26f,Mężczyzna,22,2021-07-13_22h17.48.929,rantool2,2021.1.4,Win32,59.87665409,60e46849a6a53ab857bae26f,60d9d14f4a8a35a482e0d9bf,60edf413f7d73cfac4b82df3,,,,,,,,,,,,
"[""period""]",0,[0.18389500002376735],39,0,39,0,1,60e46849a6a53ab857bae26f,Mężczyzna,22,2021-07-13_22h17.48.929,rantool2,2021.1.4,Win32,59.87665409,60e46849a6a53ab857bae26f,60d9d14f4a8a35a482e0d9bf,60edf413f7d73cfac4b82df3,,,,,,,,,,,,
"[""period""]",0,[0.21642499999143183],40,0,40,0,1,60e46849a6a53ab857bae26f,Mężczyzna,22,2021-07-13_22h17.48.929,rantool2,2021.1.4,Win32,59.87665409,60e46849a6a53ab857bae26f,60d9d14f4a8a35a482e0d9bf,60edf413f7d73cfac4b82df3,,,,,,,,,,,,
"[""comma""]",0,[0.23630500002764165],41,0,41,0,1,60e46849a6a53ab857bae26f,Mężczyzna,22,2021-07-13_22h17.48.929,rantool2,2021.1.4,Win32,59.87665409,60e46849a6a53ab857bae26f,60d9d14f4a8a35a482e0d9bf,60edf413f7d73cfac4b82df3,,,,,,,,,,,,
"[""comma""]",0,[0.3838449998293072],42,0,42,0,1,60e46849a6a53ab857bae26f,Mężczyzna,22,2021-07-13_22h17.48.929,rantool2,2021.1.4,Win32,59.87665409,60e46849a6a53ab857bae26f,60d9d14f4a8a35a482e0d9bf,60edf413f7d73cfac4b82df3,,,,,,,,,,,,
"[""comma""]",0,[0.33429000014439225],43,0,43,0,1,60e46849a6a53ab857bae26f,Mężczyzna,22,2021-07-13_22h17.48.929,rantool2,2021.1.4,Win32,59.87665409,60e46849a6a53ab857bae26f,60d9d14f4a8a35a482e0d9bf,60edf413f7d73cfac4b82df3,,,,,,,,,,,,
0,0,,44,0,44,0,1,60e46849a6a53ab857bae26f,Mężczyzna,22,2021-07-13_22h17.48.929,rantool2,2021.1.4,Win32,59.87665409,60e46849a6a53ab857bae26f,60d9d14f4a8a35a482e0d9bf,60edf413f7d73cfac4b82df3,,,,,,,,,,,,
"[""period""]",0,[0.21692500007338822],45,0,45,0,1,60e46849a6a53ab857bae26f,Mężczyzna,22,2021-07-13_22h17.48.929,rantool2,2021.1.4,Win32,59.87665409,60e46849a6a53ab857bae26f,60d9d14f4a8a35a482e0d9bf,60edf413f7d73cfac4b82df3,,,,,,,,,,,,
"[""period""]",0,[0.27633000002242625],46,0,46,0,1,60e46849a6a53ab857bae26f,Mężczyzna,22,2021-07-13_22h17.48.929,rantool2,2021.1.4,Win32,59.87665409,60e46849a6a53ab857bae26f,60d9d14f4a8a35a482e0d9bf,60edf413f7d73cfac4b82df3,,,,,,,,,,,,
"[""period""]",0,[0.21319500007666647],47,0,47,0,1,60e46849a6a53ab857bae26f,Mężczyzna,22,2021-07-13_22h17.48.929,rantool2,2021.1.4,Win32,59.87665409,60e46849a6a53ab857bae26f,60d9d14f4a8a35a482e0d9bf,60edf413f7d73cfac4b82df3,,,,,,,,,,,,
"[""comma""]",0,[0.20429500006139278],48,0,48,0,1,60e46849a6a53ab857bae26f,Mężczyzna,22,2021-07-13_22h17.48.929,rantool2,2021.1.4,Win32,59.87665409,60e46849a6a53ab857bae26f,60d9d14f4a8a35a482e0d9bf,60edf413f7d73cfac4b82df3,,,,,,,,,,,,
"[""comma""]",0,[0.21823500003665686],49,0,49,0,1,60e46849a6a53ab857bae26f,Mężczyzna,22,2021-07-13_22h17.48.929,rantool2,2021.1.4,Win32,59.87665409,60e46849a6a53ab857bae26f,60d9d14f4a8a35a482e0d9bf,60edf413f7d73cfac4b82df3,,,,,,,,,,,,
"[""comma""]",0,[0.2670650000218302],50,0,50,0,1,60e46849a6a53ab857bae26f,Mężczyzna,22,2021-07-13_22h17.48.929,rantool2,2021.1.4,Win32,59.87665409,60e46849a6a53ab857bae26f,60d9d14f4a8a35a482e0d9bf,60edf413f7d73cfac4b82df3,,,,,,,,,,,,
"[""period"",""comma""]",0,"[0.2168900000397116,0.2500899999868125]",51,0,51,0,1,60e46849a6a53ab857bae26f,Mężczyzna,22,2021-07-13_22h17.48.929,rantool2,2021.1.4,Win32,59.87665409,60e46849a6a53ab857bae26f,60d9d14f4a8a35a482e0d9bf,60edf413f7d73cfac4b82df3,,,,,,,,,,,,
"[""period""]",0,[0.25609499984420836],52,0,52,0,1,60e46849a6a53ab857bae26f,Mężczyzna,22,2021-07-13_22h17.48.929,rantool2,2021.1.4,Win32,59.87665409,60e46849a6a53ab857bae26f,60d9d14f4a8a35a482e0d9bf,60edf413f7d73cfac4b82df3,,,,,,,,,,,,
"[""period""]",0,[0.2201650000642985],53,0,53,0,1,60e46849a6a53ab857bae26f,Mężczyzna,22,2021-07-13_22h17.48.929,rantool2,2021.1.4,Win32,59.87665409,60e46849a6a53ab857bae26f,60d9d14f4a8a35a482e0d9bf,60edf413f7d73cfac4b82df3,,,,,,,,,,,,
"[""period""]",0,[0.22335500014014542],54,0,54,0,1,60e46849a6a53ab857bae26f,Mężczyzna,22,2021-07-13_22h17.48.929,rantool2,2021.1.4,Win32,59.87665409,60e46849a6a53ab857bae26f,60d9d14f4a8a35a482e0d9bf,60edf413f7d73cfac4b82df3,,,,,,,,,,,,
"[""period""]",0,[0.25047000008635223],55,0,55,0,1,60e46849a6a53ab857bae26f,Mężczyzna,22,2021-07-13_22h17.48.929,rantool2,2021.1.4,Win32,59.87665409,60e46849a6a53ab857bae26f,60d9d14f4a8a35a482e0d9bf,60edf413f7d73cfac4b82df3,,,,,,,,,,,,
"[""comma""]",0,[0.17140499991364777],56,0,56,0,1,60e46849a6a53ab857bae26f,Mężczyzna,22,2021-07-13_22h17.48.929,rantool2,2021.1.4,Win32,59.87665409,60e46849a6a53ab857bae26f,60d9d14f4a8a35a482e0d9bf,60edf413f7d73cfac4b82df3,,,,,,,,,,,,
"[""period""]",0,[0.03397500002756715],57,0,57,0,1,60e46849a6a53ab857bae26f,Mężczyzna,22,2021-07-13_22h17.48.929,rantool2,2021.1.4,Win32,59.87665409,60e46849a6a53ab857bae26f,60d9d14f4a8a35a482e0d9bf,60edf413f7d73cfac4b82df3,,,,,,,,,,,,
"[""period""]",0,[0.22173499991185963],58,0,58,0,1,60e46849a6a53ab857bae26f,Mężczyzna,22,2021-07-13_22h17.48.929,rantool2,2021.1.4,Win32,59.87665409,60e46849a6a53ab857bae26f,60d9d14f4a8a35a482e0d9bf,60edf413f7d73cfac4b82df3,,,,,,,,,,,,
"[""comma""]",0,[0.09687500004656613],59,0,59,0,1,60e46849a6a53ab857bae26f,Mężczyzna,22,2021-07-13_22h17.48.929,rantool2,2021.1.4,Win32,59.87665409,60e46849a6a53ab857bae26f,60d9d14f4a8a35a482e0d9bf,60edf413f7d73cfac4b82df3,,,,,,,,,,,,
"[""comma""]",0,[0.23573499987833202],60,0,60,0,1,60e46849a6a53ab857bae26f,Mężczyzna,22,2021-07-13_22h17.48.929,rantool2,2021.1.4,Win32,59.87665409,60e46849a6a53ab857bae26f,60d9d14f4a8a35a482e0d9bf,60edf413f7d73cfac4b82df3,,,,,,,,,,,,
"[""comma""]",0,[0.24622999993152916],61,0,61,0,1,60e46849a6a53ab857bae26f,Mężczyzna,22,2021-07-13_22h17.48.929,rantool2,2021.1.4,Win32,59.87665409,60e46849a6a53ab857bae26f,60d9d14f4a8a35a482e0d9bf,60edf413f7d73cfac4b82df3,,,,,,,,,,,,
"[""period""]",0,[0.206559999845922],62,0,62,0,1,60e46849a6a53ab857bae26f,Mężczyzna,22,2021-07-13_22h17.48.929,rantool2,2021.1.4,Win32,59.87665409,60e46849a6a53ab857bae26f,60d9d14f4a8a35a482e0d9bf,60edf413f7d73cfac4b82df3,,,,,,,,,,,,
"[""period""]",0,[0.25018999981693923],63,0,63,0,1,60e46849a6a53ab857bae26f,Mężczyzna,22,2021-07-13_22h17.48.929,rantool2,2021.1.4,Win32,59.87665409,60e46849a6a53ab857bae26f,60d9d14f4a8a35a482e0d9bf,60edf413f7d73cfac4b82df3,,,,,,,,,,,,
"[""period""]",0,[0.2541799999307841],64,0,64,0,1,60e46849a6a53ab857bae26f,Mężczyzna,22,2021-07-13_22h17.48.929,rantool2,2021.1.4,Win32,59.87665409,60e46849a6a53ab857bae26f,60d9d14f4a8a35a482e0d9bf,60edf413f7d73cfac4b82df3,,,,,,,,,,,,
"[""comma""]",0,[0.24675000016577542],65,0,65,0,1,60e46849a6a53ab857bae26f,Mężczyzna,22,2021-07-13_22h17.48.929,rantool2,2021.1.4,Win32,59.87665409,60e46849a6a53ab857bae26f,60d9d14f4a8a35a482e0d9bf,60edf413f7d73cfac4b82df3,,,,,,,,,,,,
"[""comma""]",0,[0.17812500009313226],66,0,66,0,1,60e46849a6a53ab857bae26f,Mężczyzna,22,2021-07-13_22h17.48.929,rantool2,2021.1.4,Win32,59.87665409,60e46849a6a53ab857bae26f,60d9d14f4a8a35a482e0d9bf,60edf413f7d73cfac4b82df3,,,,,,,,,,,,
"[""comma""]",0,[0.2838550000451505],67,0,67,0,1,60e46849a6a53ab857bae26f,Mężczyzna,22,2021-07-13_22h17.48.929,rantool2,2021.1.4,Win32,59.87665409,60e46849a6a53ab857bae26f,60d9d14f4a8a35a482e0d9bf,60edf413f7d73cfac4b82df3,,,,,,,,,,,,
"[""comma""]",0,[0.32253500004298985],68,0,68,0,1,60e46849a6a53ab857bae26f,Mężczyzna,22,2021-07-13_22h17.48.929,rantool2,2021.1.4,Win32,59.87665409,60e46849a6a53ab857bae26f,60d9d14f4a8a35a482e0d9bf,60edf413f7d73cfac4b82df3,,,,,,,,,,,,
"[""period""]",0,[0.2919299998320639],69,0,69,0,1,60e46849a6a53ab857bae26f,Mężczyzna,22,2021-07-13_22h17.48.929,rantool2,2021.1.4,Win32,59.87665409,60e46849a6a53ab857bae26f,60d9d14f4a8a35a482e0d9bf,60edf413f7d73cfac4b82df3,,,,,,,,,,,,
"[""comma""]",0,[0.267299999948591],70,0,70,0,1,60e46849a6a53ab857bae26f,Mężczyzna,22,2021-07-13_22h17.48.929,rantool2,2021.1.4,Win32,59.87665409,60e46849a6a53ab857bae26f,60d9d14f4a8a35a482e0d9bf,60edf413f7d73cfac4b82df3,,,,,,,,,,,,
"[""period""]",0,[0.3111150001641363],71,0,71,0,1,60e46849a6a53ab857bae26f,Mężczyzna,22,2021-07-13_22h17.48.929,rantool2,2021.1.4,Win32,59.87665409,60e46849a6a53ab857bae26f,60d9d14f4a8a35a482e0d9bf,60edf413f7d73cfac4b82df3,,,,,,,,,,,,
"[""comma""]",0,[0.34155000001192093],72,0,72,0,1,60e46849a6a53ab857bae26f,Mężczyzna,22,2021-07-13_22h17.48.929,rantool2,2021.1.4,Win32,59.87665409,60e46849a6a53ab857bae26f,60d9d14f4a8a35a482e0d9bf,60edf413f7d73cfac4b82df3,,,,,,,,,,,,
"[""period""]",0,[0.26653499994426966],73,0,73,0,1,60e46849a6a53ab857bae26f,Mężczyzna,22,2021-07-13_22h17.48.929,rantool2,2021.1.4,Win32,59.87665409,60e46849a6a53ab857bae26f,60d9d14f4a8a35a482e0d9bf,60edf413f7d73cfac4b82df3,,,,,,,,,,,,
"[""period""]",0,[0.24222999997437],74,0,74,0,1,60e46849a6a53ab857bae26f,Mężczyzna,22,2021-07-13_22h17.48.929,rantool2,2021.1.4,Win32,59.87665409,60e46849a6a53ab857bae26f,60d9d14f4a8a35a482e0d9bf,60edf413f7d73cfac4b82df3,,,,,,,,,,,,
"[""period""]",0,[0.26739499997347593],75,0,75,0,1,60e46849a6a53ab857bae26f,Mężczyzna,22,2021-07-13_22h17.48.929,rantool2,2021.1.4,Win32,59.87665409,60e46849a6a53ab857bae26f,60d9d14f4a8a35a482e0d9bf,60edf413f7d73cfac4b82df3,,,,,,,,,,,,
"[""comma""]",0,[0.3004949998576194],76,0,76,0,1,60e46849a6a53ab857bae26f,Mężczyzna,22,2021-07-13_22h17.48.929,rantool2,2021.1.4,Win32,59.87665409,60e46849a6a53ab857bae26f,60d9d14f4a8a35a482e0d9bf,60edf413f7d73cfac4b82df3,,,,,,,,,,,,
"[""comma""]",0,[0.2833699998445809],77,0,77,0,1,60e46849a6a53ab857bae26f,Mężczyzna,22,2021-07-13_22h17.48.929,rantool2,2021.1.4,Win32,59.87665409,60e46849a6a53ab857bae26f,60d9d14f4a8a35a482e0d9bf,60edf413f7d73cfac4b82df3,,,,,,,,,,,,
"[""period""]",0,[0.2839699999894947],78,0,78,0,1,60e46849a6a53ab857bae26f,Mężczyzna,22,2021-07-13_22h17.48.929,rantool2,2021.1.4,Win32,59.87665409,60e46849a6a53ab857bae26f,60d9d14f4a8a35a482e0d9bf,60edf413f7d73cfac4b82df3,,,,,,,,,,,,
"[""comma""]",0,[0.308214999968186],79,0,79,0,1,60e46849a6a53ab857bae26f,Mężczyzna,22,2021-07-13_22h17.48.929,rantool2,2021.1.4,Win32,59.87665409,60e46849a6a53ab857bae26f,60d9d14f4a8a35a482e0d9bf,60edf413f7d73cfac4b82df3,,,,,,,,,,,,
"[""period""]",0,[0.2074049999937415],80,0,80,0,1,60e46849a6a53ab857bae26f,Mężczyzna,22,2021-07-13_22h17.48.929,rantool2,2021.1.4,Win32,59.87665409,60e46849a6a53ab857bae26f,60d9d14f4a8a35a482e0d9bf,60edf413f7d73cfac4b82df3,,,,,,,,,,,,
"[""period""]",0,[0.2437950000166893],81,0,81,0,1,60e46849a6a53ab857bae26f,Mężczyzna,22,2021-07-13_22h17.48.929,rantool2,2021.1.4,Win32,59.87665409,60e46849a6a53ab857bae26f,60d9d14f4a8a35a482e0d9bf,60edf413f7d73cfac4b82df3,,,,,,,,,,,,
"[""comma""]",0,[0.19058499997481704],82,0,82,0,1,60e46849a6a53ab857bae26f,Mężczyzna,22,2021-07-13_22h17.48.929,rantool2,2021.1.4,Win32,59.87665409,60e46849a6a53ab857bae26f,60d9d14f4a8a35a482e0d9bf,60edf413f7d73cfac4b82df3,,,,,,,,,,,,
"[""comma""]",0,[0.26776000019162893],83,0,83,0,1,60e46849a6a53ab857bae26f,Mężczyzna,22,2021-07-13_22h17.48.929,rantool2,2021.1.4,Win32,59.87665409,60e46849a6a53ab857bae26f,60d9d14f4a8a35a482e0d9bf,60edf413f7d73cfac4b82df3,,,,,,,,,,,,
"[""comma""]",0,[0.2742399999406189],84,0,84,0,1,60e46849a6a53ab857bae26f,Mężczyzna,22,2021-07-13_22h17.48.929,rantool2,2021.1.4,Win32,59.87665409,60e46849a6a53ab857bae26f,60d9d14f4a8a35a482e0d9bf,60edf413f7d73cfac4b82df3,,,,,,,,,,,,
"[""period""]",0,[0.216624999884516],85,0,85,0,1,60e46849a6a53ab857bae26f,Mężczyzna,22,2021-07-13_22h17.48.929,rantool2,2021.1.4,Win32,59.87665409,60e46849a6a53ab857bae26f,60d9d14f4a8a35a482e0d9bf,60edf413f7d73cfac4b82df3,,,,,,,,,,,,
"[""period""]",0,[0.3107600000221282],86,0,86,0,1,60e46849a6a53ab857bae26f,Mężczyzna,22,2021-07-13_22h17.48.929,rantool2,2021.1.4,Win32,59.87665409,60e46849a6a53ab857bae26f,60d9d14f4a8a35a482e0d9bf,60edf413f7d73cfac4b82df3,,,,,,,,,,,,
"[""period""]",0,[0.2834850000217557],87,0,87,0,1,60e46849a6a53ab857bae26f,Mężczyzna,22,2021-07-13_22h17.48.929,rantool2,2021.1.4,Win32,59.87665409,60e46849a6a53ab857bae26f,60d9d14f4a8a35a482e0d9bf,60edf413f7d73cfac4b82df3,,,,,,,,,,,,
"[""period""]",0,[0.26749500003643334],88,0,88,0,1,60e46849a6a53ab857bae26f,Mężczyzna,22,2021-07-13_22h17.48.929,rantool2,2021.1.4,Win32,59.87665409,60e46849a6a53ab857bae26f,60d9d14f4a8a35a482e0d9bf,60edf413f7d73cfac4b82df3,,,,,,,,,,,,
"[""comma""]",0,[0.1502799999434501],89,0,89,0,1,60e46849a6a53ab857bae26f,Mężczyzna,22,2021-07-13_22h17.48.929,rantool2,2021.1.4,Win32,59.87665409,60e46849a6a53ab857bae26f,60d9d14f4a8a35a482e0d9bf,60edf413f7d73cfac4b82df3,,,,,,,,,,,,
"[""comma""]",0,[0.18402499984949827],90,0,90,0,1,60e46849a6a53ab857bae26f,Mężczyzna,22,2021-07-13_22h17.48.929,rantool2,2021.1.4,Win32,59.87665409,60e46849a6a53ab857bae26f,60d9d14f4a8a35a482e0d9bf,60edf413f7d73cfac4b82df3,,,,,,,,,,,,
"[""period""]",0,[0.20079499995335937],91,0,91,0,1,60e46849a6a53ab857bae26f,Mężczyzna,22,2021-07-13_22h17.48.929,rantool2,2021.1.4,Win32,59.87665409,60e46849a6a53ab857bae26f,60d9d14f4a8a35a482e0d9bf,60edf413f7d73cfac4b82df3,,,,,,,,,,,,
"[""comma""]",0,[0.21709499997086823],92,0,92,0,1,60e46849a6a53ab857bae26f,Mężczyzna,22,2021-07-13_22h17.48.929,rantool2,2021.1.4,Win32,59.87665409,60e46849a6a53ab857bae26f,60d9d14f4a8a35a482e0d9bf,60edf413f7d73cfac4b82df3,,,,,,,,,,,,
"[""period""]",0,[0.21671500010415912],93,0,93,0,1,60e46849a6a53ab857bae26f,Mężczyzna,22,2021-07-13_22h17.48.929,rantool2,2021.1.4,Win32,59.87665409,60e46849a6a53ab857bae26f,60d9d14f4a8a35a482e0d9bf,60edf413f7d73cfac4b82df3,,,,,,,,,,,,
"[""period""]",0,[0.2531349998898804],94,0,94,0,1,60e46849a6a53ab857bae26f,Mężczyzna,22,2021-07-13_22h17.48.929,rantool2,2021.1.4,Win32,59.87665409,60e46849a6a53ab857bae26f,60d9d14f4a8a35a482e0d9bf,60edf413f7d73cfac4b82df3,,,,,,,,,,,,
"[""period""]",0,[0.2579999999143183],95,0,95,0,1,60e46849a6a53ab857bae26f,Mężczyzna,22,2021-07-13_22h17.48.929,rantool2,2021.1.4,Win32,59.87665409,60e46849a6a53ab857bae26f,60d9d14f4a8a35a482e0d9bf,60edf413f7d73cfac4b82df3,,,,,,,,,,,,
"[""comma""]",0,[0.20033999998122454],96,0,96,0,1,60e46849a6a53ab857bae26f,Mężczyzna,22,2021-07-13_22h17.48.929,rantool2,2021.1.4,Win32,59.87665409,60e46849a6a53ab857bae26f,60d9d14f4a8a35a482e0d9bf,60edf413f7d73cfac4b82df3,,,,,,,,,,,,
"[""period""]",0,[0.24332499993033707],97,0,97,0,1,60e46849a6a53ab857bae26f,Mężczyzna,22,2021-07-13_22h17.48.929,rantool2,2021.1.4,Win32,59.87665409,60e46849a6a53ab857bae26f,60d9d14f4a8a35a482e0d9bf,60edf413f7d73cfac4b82df3,,,,,,,,,,,,
"[""comma""]",0,[0.3004000000655651],98,0,98,0,1,60e46849a6a53ab857bae26f,Mężczyzna,22,2021-07-13_22h17.48.929,rantool2,2021.1.4,Win32,59.87665409,60e46849a6a53ab857bae26f,60d9d14f4a8a35a482e0d9bf,60edf413f7d73cfac4b82df3,,,,,,,,,,,,
"[""period""]",0,[0.2669049999676645],99,0,99,0,1,60e46849a6a53ab857bae26f,Mężczyzna,22,2021-07-13_22h17.48.929,rantool2,2021.1.4,Win32,59.87665409,60e46849a6a53ab857bae26f,60d9d14f4a8a35a482e0d9bf,60edf413f7d73cfac4b82df3,,,,,,,,,,,,
"[""comma""]",0,[0.16067500016652048],100,0,100,0,1,60e46849a6a53ab857bae26f,Mężczyzna,22,2021-07-13_22h17.48.929,rantool2,2021.1.4,Win32,59.87665409,60e46849a6a53ab857bae26f,60d9d14f4a8a35a482e0d9bf,60edf413f7d73cfac4b82df3,,,,,,,,,,,,
"[""period""]",0,[0.2770700000692159],101,0,101,0,1,60e46849a6a53ab857bae26f,Mężczyzna,22,2021-07-13_22h17.48.929,rantool2,2021.1.4,Win32,59.87665409,60e46849a6a53ab857bae26f,60d9d14f4a8a35a482e0d9bf,60edf413f7d73cfac4b82df3,,,,,,,,,,,,
"[""period""]",0,[0.2340150000527501],102,0,102,0,1,60e46849a6a53ab857bae26f,Mężczyzna,22,2021-07-13_22h17.48.929,rantool2,2021.1.4,Win32,59.87665409,60e46849a6a53ab857bae26f,60d9d14f4a8a35a482e0d9bf,60edf413f7d73cfac4b82df3,,,,,,,,,,,,
"[""period""]",0,[0.2085750000551343],103,0,103,0,1,60e46849a6a53ab857bae26f,Mężczyzna,22,2021-07-13_22h17.48.929,rantool2,2021.1.4,Win32,59.87665409,60e46849a6a53ab857bae26f,60d9d14f4a8a35a482e0d9bf,60edf413f7d73cfac4b82df3,,,,,,,,,,,,
"[""period""]",0,[0.267130000051111],104,0,104,0,1,60e46849a6a53ab857bae26f,Mężczyzna,22,2021-07-13_22h17.48.929,rantool2,2021.1.4,Win32,59.87665409,60e46849a6a53ab857bae26f,60d9d14f4a8a35a482e0d9bf,60edf413f7d73cfac4b82df3,,,,,,,,,,,,
"[""comma""]",0,[0.2706400000024587],105,0,105,0,1,60e46849a6a53ab857bae26f,Mężczyzna,22,2021-07-13_22h17.48.929,rantool2,2021.1.4,Win32,59.87665409,60e46849a6a53ab857bae26f,60d9d14f4a8a35a482e0d9bf,60edf413f7d73cfac4b82df3,,,,,,,,,,,,
"[""comma""]",0,[0.31714499997906387],106,0,106,0,1,60e46849a6a53ab857bae26f,Mężczyzna,22,2021-07-13_22h17.48.929,rantool2,2021.1.4,Win32,59.87665409,60e46849a6a53ab857bae26f,60d9d14f4a8a35a482e0d9bf,60edf413f7d73cfac4b82df3,,,,,,,,,,,,
"[""period""]",0,[0.23338999995030463],107,0,107,0,1,60e46849a6a53ab857bae26f,Mężczyzna,22,2021-07-13_22h17.48.929,rantool2,2021.1.4,Win32,59.87665409,60e46849a6a53ab857bae26f,60d9d14f4a8a35a482e0d9bf,60edf413f7d73cfac4b82df3,,,,,,,,,,,,
"[""period""]",0,[0.28848000010475516],108,0,108,0,1,60e46849a6a53ab857bae26f,Mężczyzna,22,2021-07-13_22h17.48.929,rantool2,2021.1.4,Win32,59.87665409,60e46849a6a53ab857bae26f,60d9d14f4a8a35a482e0d9bf,60edf413f7d73cfac4b82df3,,,,,,,,,,,,
"[""period""]",0,[0.21790000004693866],109,0,109,0,1,60e46849a6a53ab857bae26f,Mężczyzna,22,2021-07-13_22h17.48.929,rantool2,2021.1.4,Win32,59.87665409,60e46849a6a53ab857bae26f,60d9d14f4a8a35a482e0d9bf,60edf413f7d73cfac4b82df3,,,,,,,,,,,,
"[""comma""]",0,[0.20280499989166856],110,0,110,0,1,60e46849a6a53ab857bae26f,Mężczyzna,22,2021-07-13_22h17.48.929,rantool2,2021.1.4,Win32,59.87665409,60e46849a6a53ab857bae26f,60d9d14f4a8a35a482e0d9bf,60edf413f7d73cfac4b82df3,,,,,,,,,,,,
"[""comma""]",0,[0.28398499987088144],111,0,111,0,1,60e46849a6a53ab857bae26f,Mężczyzna,22,2021-07-13_22h17.48.929,rantool2,2021.1.4,Win32,59.87665409,60e46849a6a53ab857bae26f,60d9d14f4a8a35a482e0d9bf,60edf413f7d73cfac4b82df3,,,,,,,,,,,,
"[""period""]",0,[0.33364999992772937],112,0,112,0,1,60e46849a6a53ab857bae26f,Mężczyzna,22,2021-07-13_22h17.48.929,rantool2,2021.1.4,Win32,59.87665409,60e46849a6a53ab857bae26f,60d9d14f4a8a35a482e0d9bf,60edf413f7d73cfac4b82df3,,,,,,,,,,,,
"[""period""]",0,[0.38739999989047647],113,0,113,0,1,60e46849a6a53ab857bae26f,Mężczyzna,22,2021-07-13_22h17.48.929,rantool2,2021.1.4,Win32,59.87665409,60e46849a6a53ab857bae26f,60d9d14f4a8a35a482e0d9bf,60edf413f7d73cfac4b82df3,,,,,,,,,,,,
"[""period""]",0,[0.3502899999730289],114,0,114,0,1,60e46849a6a53ab857bae26f,Mężczyzna,22,2021-07-13_22h17.48.929,rantool2,2021.1.4,Win32,59.87665409,60e46849a6a53ab857bae26f,60d9d14f4a8a35a482e0d9bf,60edf413f7d73cfac4b82df3,,,,,,,,,,,,
"[""comma""]",0,[0.350984999909997],115,0,115,0,1,60e46849a6a53ab857bae26f,Mężczyzna,22,2021-07-13_22h17.48.929,rantool2,2021.1.4,Win32,59.87665409,60e46849a6a53ab857bae26f,60d9d14f4a8a35a482e0d9bf,60edf413f7d73cfac4b82df3,,,,,,,,,,,,
"[""comma""]",0,[0.3288199999369681],116,0,116,0,1,60e46849a6a53ab857bae26f,Mężczyzna,22,2021-07-13_22h17.48.929,rantool2,2021.1.4,Win32,59.87665409,60e46849a6a53ab857bae26f,60d9d14f4a8a35a482e0d9bf,60edf413f7d73cfac4b82df3,,,,,,,,,,,,
"[""comma""]",0,[0.3672650000080466],117,0,117,0,1,60e46849a6a53ab857bae26f,Mężczyzna,22,2021-07-13_22h17.48.929,rantool2,2021.1.4,Win32,59.87665409,60e46849a6a53ab857bae26f,60d9d14f4a8a35a482e0d9bf,60edf413f7d73cfac4b82df3,,,,,,,,,,,,
"[""comma""]",0,[0.31704999995417893],118,0,118,0,1,60e46849a6a53ab857bae26f,Mężczyzna,22,2021-07-13_22h17.48.929,rantool2,2021.1.4,Win32,59.87665409,60e46849a6a53ab857bae26f,60d9d14f4a8a35a482e0d9bf,60edf413f7d73cfac4b82df3,,,,,,,,,,,,
"[""period""]",0,[0.2597350000869483],119,0,119,0,1,60e46849a6a53ab857bae26f,Mężczyzna,22,2021-07-13_22h17.48.929,rantool2,2021.1.4,Win32,59.87665409,60e46849a6a53ab857bae26f,60d9d14f4a8a35a482e0d9bf,60edf413f7d73cfac4b82df3,,,,,,,,,,,,
,,,,,,,,60e46849a6a53ab857bae26f,Mężczyzna,22,2021-07-13_22h17.48.929,rantool2,2021.1.4,Win32,59.87665409,60e46849a6a53ab857bae26f,60d9d14f4a8a35a482e0d9bf,60edf413f7d73cfac4b82df3,j,0.59374,0,0,0,27,1,ORRORRO,ORRORRR,21.55250791,22.2428857,series_1
,,,,,,,,60e46849a6a53ab857bae26f,Mężczyzna,22,2021-07-13_22h17.48.929,rantool2,2021.1.4,Win32,59.87665409,60e46849a6a53ab857bae26f,60d9d14f4a8a35a482e0d9bf,60edf413f7d73cfac4b82df3,j,2.09989,0,1,1,42,1,ROROROO,ROROROR,20.39515459,19.8361834,series_0
,,,,,,,,60e46849a6a53ab857bae26f,Mężczyzna,22,2021-07-13_22h17.48.929,rantool2,2021.1.4,Win32,59.87665409,60e46849a6a53ab857bae26f,60d9d14f4a8a35a482e0d9bf,60edf413f7d73cfac4b82df3,j,1.83304,0,2,2,39,1,ROORRRO,ROORRRR,21.82425538,21.38562617,series_0
,,,,,,,,60e46849a6a53ab857bae26f,Mężczyzna,22,2021-07-13_22h17.48.929,rantool2,2021.1.4,Win32,59.87665409,60e46849a6a53ab857bae26f,60d9d14f4a8a35a482e0d9bf,60edf413f7d73cfac4b82df3,j,1.993355,0,3,3,1,1,OOOOORO,OOOOORR,19.92253567,20.74050628,series_1
,,,,,,,,60e46849a6a53ab857bae26f,Mężczyzna,22,2021-07-13_22h17.48.929,rantool2,2021.1.4,Win32,59.87665409,60e46849a6a53ab857bae26f,60d9d14f4a8a35a482e0d9bf,60edf413f7d73cfac4b82df3,f,1.58363,0,4,4,50,1,RROOROO,RROOROR,21.73568164,22.02566557,series_1
,,,,,,,,60e46849a6a53ab857bae26f,Mężczyzna,22,2021-07-13_22h17.48.929,rantool2,2021.1.4,Win32,59.87665409,60e46849a6a53ab857bae26f,60d9d14f4a8a35a482e0d9bf,60edf413f7d73cfac4b82df3,f,1.777725,0,5,5,6,1,OOORROO,OOORROR,21.12383932,21.38562617,series_1
,,,,,,,,60e46849a6a53ab857bae26f,Mężczyzna,22,2021-07-13_22h17.48.929,rantool2,2021.1.4,Win32,59.87665409,60e46849a6a53ab857bae26f,60d9d14f4a8a35a482e0d9bf,60edf413f7d73cfac4b82df3,j,1.75268,0,6,6,47,1,RORRRRO,RORRRRR,21.81333602,21.02936224,series_0
,,,,,,,,60e46849a6a53ab857bae26f,Mężczyzna,22,2021-07-13_22h17.48.929,rantool2,2021.1.4,Win32,59.87665409,60e46849a6a53ab857bae26f,60d9d14f4a8a35a482e0d9bf,60edf413f7d73cfac4b82df3,f,1.817015,0,7,7,40,1,ROROOOO,ROROOOR,20.87963819,21.37121559,series_1
,,,,,,,,60e46849a6a53ab857bae26f,Mężczyzna,22,2021-07-13_22h17.48.929,rantool2,2021.1.4,Win32,59.87665409,60e46849a6a53ab857bae26f,60d9d14f4a8a35a482e0d9bf,60edf413f7d73cfac4b82df3,j,1.34115,0,8,8,59,1,RRRORRO,RRRORRR,21.56657303,20.89823192,series_0
,,,,,,,,60e46849a6a53ab857bae26f,Mężczyzna,22,2021-07-13_22h17.48.929,rantool2,2021.1.4,Win32,59.87665409,60e46849a6a53ab857bae26f,60d9d14f4a8a35a482e0d9bf,60edf413f7d73cfac4b82df3,f,1.667435,0,9,9,22,1,ORORROO,ORORROR,22.02732763,21.57657071,series_0
,,,,,,,,60e46849a6a53ab857bae26f,Mężczyzna,22,2021-07-13_22h17.48.929,rantool2,2021.1.4,Win32,59.87665409,60e46849a6a53ab857bae26f,60d9d14f4a8a35a482e0d9bf,60edf413f7d73cfac4b82df3,j,1.109315,0,10,10,16,1,OROOOOO,OROOOOR,20.43051175,21.17347734,series_1
,,,,,,,,60e46849a6a53ab857bae26f,Mężczyzna,22,2021-07-13_22h17.48.929,rantool2,2021.1.4,Win32,59.87665409,60e46849a6a53ab857bae26f,60d9d14f4a8a35a482e0d9bf,60edf413f7d73cfac4b82df3,f,1.183915,0,11,11,2,1,OOOOROO,OOOOROR,20.43051175,21.02936224,series_1
,,,,,,,,60e46849a6a53ab857bae26f,Mężczyzna,22,2021-07-13_22h17.48.929,rantool2,2021.1.4,Win32,59.87665409,60e46849a6a53ab857bae26f,60d9d14f4a8a35a482e0d9bf,60edf413f7d73cfac4b82df3,f,1.966555,0,12,12,3,1,OOOORRO,OOOORRR,20.90986523,21.74922619,series_1
,,,,,,,,60e46849a6a53ab857bae26f,Mężczyzna,22,2021-07-13_22h17.48.929,rantool2,2021.1.4,Win32,59.87665409,60e46849a6a53ab857bae26f,60d9d14f4a8a35a482e0d9bf,60edf413f7d73cfac4b82df3,f,2.099615,0,13,13,46,1,RORRROO,RORRROR,22.00300695,21.24781509,series_0
,,,,,,,,60e46849a6a53ab857bae26f,Mężczyzna,22,2021-07-13_22h17.48.929,rantool2,2021.1.4,Win32,59.87665409,60e46849a6a53ab857bae26f,60d9d14f4a8a35a482e0d9bf,60edf413f7d73cfac4b82df3,j,1.665225,0,14,14,55,1,RRORRRO,RRORRRR,21.56657303,21.21223021,series_0
,,,,,,,,60e46849a6a53ab857bae26f,Mężczyzna,22,2021-07-13_22h17.48.929,rantool2,2021.1.4,Win32,59.87665409,60e46849a6a53ab857bae26f,60d9d14f4a8a35a482e0d9bf,60edf413f7d73cfac4b82df3,f,1.66544,0,15,15,34,1,ROOOROO,ROOOROR,21.03750787,21.24781509,series_1
,,,,,,,,60e46849a6a53ab857bae26f,Mężczyzna,22,2021-07-13_22h17.48.929,rantool2,2021.1.4,Win32,59.87665409,60e46849a6a53ab857bae26f,60d9d14f4a8a35a482e0d9bf,60edf413f7d73cfac4b82df3,j,1.71047,0,16,16,25,1,ORROORO,ORROORR,21.79500819,22.61624387,series_1
,,,,,,,,60e46849a6a53ab857bae26f,Mężczyzna,22,2021-07-13_22h17.48.929,rantool2,2021.1.4,Win32,59.87665409,60e46849a6a53ab857bae26f,60d9d14f4a8a35a482e0d9bf,60edf413f7d73cfac4b82df3,f,1.489565,0,17,17,18,1,OROOROO,OROOROR,20.84860893,21.22513037,series_1
,,,,,,,,60e46849a6a53ab857bae26f,Mężczyzna,22,2021-07-13_22h17.48.929,rantool2,2021.1.4,Win32,59.87665409,60e46849a6a53ab857bae26f,60d9d14f4a8a35a482e0d9bf,60edf413f7d73cfac4b82df3,j,1.83197,0,18,18,44,1,RORROOO,RORROOR,21.66733484,22.02566557,series_1
,,,,,,,,60e46849a6a53ab857bae26f,Mężczyzna,22,2021-07-13_22h17.48.929,rantool2,2021.1.4,Win32,59.87665409,60e46849a6a53ab857bae26f,60d9d14f4a8a35a482e0d9bf,60edf413f7d73cfac4b82df3,f,1.678945,0,19,19,10,1,OOROROO,OOROROR,21.31236711,21.07490964,series_0
,,,,,,,,60e46849a6a53ab857bae26f,Mężczyzna,22,2021-07-13_22h17.48.929,rantool2,2021.1.4,Win32,59.87665409,60e46849a6a53ab857bae26f,60d9d14f4a8a35a482e0d9bf,60edf413f7d73cfac4b82df3,j,1.351725,0,20,20,26,1,ORROROO,ORROROR,22.02732763,21.71443381,series_0
,,,,,,,,60e46849a6a53ab857bae26f,Mężczyzna,22,2021-07-13_22h17.48.929,rantool2,2021.1.4,Win32,59.87665409,60e46849a6a53ab857bae26f,60d9d14f4a8a35a482e0d9bf,60edf413f7d73cfac4b82df3,j,1.499055,0,21,21,9,1,OOROORO,OOROORR,21.07991943,22.2428857,series_1
,,,,,,,,60e46849a6a53ab857bae26f,Mężczyzna,22,2021-07-13_22h17.48.929,rantool2,2021.1.4,Win32,59.87665409,60e46849a6a53ab857bae26f,60d9d14f4a8a35a482e0d9bf,60edf413f7d73cfac4b82df3,f,1.800435,0,22,22,30,1,ORRRROO,ORRRROR,22.46748491,22.03072203,series_0
,,,,,,,,60e46849a6a53ab857bae26f,Mężczyzna,22,2021-07-13_22h17.48.929,rantool2,2021.1.4,Win32,59.87665409,60e46849a6a53ab857bae26f,60d9d14f4a8a35a482e0d9bf,60edf413f7d73cfac4b82df3,f,1.424245,0,23,23,0,1,OOOOOOO,OOOOOOR,18.52739004,19.62521613,series_1
,,,,,,,,60e46849a6a53ab857bae26f,Mężczyzna,22,2021-07-13_22h17.48.929,rantool2,2021.1.4,Win32,59.87665409,60e46849a6a53ab857bae26f,60d9d14f4a8a35a482e0d9bf,60edf413f7d73cfac4b82df3,f,1.906805,0,24,24,33,1,ROOOORO,ROOOORR,20.83779602,22.03072203,series_1
,,,,,,,,60e46849a6a53ab857bae26f,Mężczyzna,22,2021-07-13_22h17.48.929,rantool2,2021.1.4,Win32,59.87665409,60e46849a6a53ab857bae26f,60d9d14f4a8a35a482e0d9bf,60edf413f7d73cfac4b82df3,j,1.839925,0,25,25,52,1,RROROOO,RROROOR,22.18365867,22.11097995,series_0
,,,,,,,,60e46849a6a53ab857bae26f,Mężczyzna,22,2021-07-13_22h17.48.929,rantool2,2021.1.4,Win32,59.87665409,60e46849a6a53ab857bae26f,60d9d14f4a8a35a482e0d9bf,60edf413f7d73cfac4b82df3,f,1.76689,0,26,26,5,1,OOORORO,OOORORR,20.87963819,21.9921709,series_1
,,,,,,,,60e46849a6a53ab857bae26f,Mężczyzna,22,2021-07-13_22h17.48.929,rantool2,2021.1.4,Win32,59.87665409,60e46849a6a53ab857bae26f,60d9d14f4a8a35a482e0d9bf,60edf413f7d73cfac4b82df3,f,1.144,0,27,27,36,1,ROOROOO,ROOROOR,21.07991943,20.9984461,series_0
,,,,,,,,60e46849a6a53ab857bae26f,Mężczyzna,22,2021-07-13_22h17.48.929,rantool2,2021.1.4,Win32,59.87665409,60e46849a6a53ab857bae26f,60d9d14f4a8a35a482e0d9bf,60edf413f7d73cfac4b82df3,j,1.388335,0,28,28,56,1,RRROOOO,RRROOOR,21.6194508,22.31681875,series_1
,,,,,,,,60e46849a6a53ab857bae26f,Mężczyzna,22,2021-07-13_22h17.48.929,rantool2,2021.1.4,Win32,59.87665409,60e46849a6a53ab857bae26f,60d9d14f4a8a35a482e0d9bf,60edf413f7d73cfac4b82df3,j,1.983845,0,29,29,11,1,OORORRO,OORORRR,22.18365867,22.6797523,series_1
,,,,,,,,60e46849a6a53ab857bae26f,Mężczyzna,22,2021-07-13_22h17.48.929,rantool2,2021.1.4,Win32,59.87665409,60e46849a6a53ab857bae26f,60d9d14f4a8a35a482e0d9bf,60edf413f7d73cfac4b82df3,f,0.98547,0,30,30,43,1,RORORRO,RORORRR,20.71309134,21.07490964,series_1
,,,,,,,,60e46849a6a53ab857bae26f,Mężczyzna,22,2021-07-13_22h17.48.929,rantool2,2021.1.4,Win32,59.87665409,60e46849a6a53ab857bae26f,60d9d14f4a8a35a482e0d9bf,60edf413f7d73cfac4b82df3,j,1.12173,0,31,31,29,1,ORRRORO,ORRRORR,22.00300695,22.12173012,series_1
,,,,,,,,60e46849a6a53ab857bae26f,Mężczyzna,22,2021-07-13_22h17.48.929,rantool2,2021.1.4,Win32,59.87665409,60e46849a6a53ab857bae26f,60d9d14f4a8a35a482e0d9bf,60edf413f7d73cfac4b82df3,j,1.13332,0,32,32,20,1,OROROOO,OROROOR,21.31236711,21.90565814,series_1
,,,,,,,,60e46849a6a53ab857bae26f,Mężczyzna,22,2021-07-13_22h17.48.929,rantool2,2021.1.4,Win32,59.87665409,60e46849a6a53ab857bae26f,60d9d14f4a8a35a482e0d9bf,60edf413f7d73cfac4b82df3,f,1.25454,0,33,33,32,1,ROOOOOO,ROOOOOR,19.92253567,21.27974287,series_1
,,,,,,,,60e46849a6a53ab857bae26f,Mężczyzna,22,2021-07-13_22h17.48.929,rantool2,2021.1.4,Win32,59.87665409,60e46849a6a53ab857bae26f,60d9d14f4a8a35a482e0d9bf,60edf413f7d73cfac4b82df3,j,1.150375,0,34,34,14,1,OORRROO,OORRROR,22.24142883,22.16977179,series_0
,,,,,,,,60e46849a6a53ab857bae26f,Mężczyzna,22,2021-07-13_22h17.48.929,rantool2,2021.1.4,Win32,59.87665409,60e46849a6a53ab857bae26f,60d9d14f4a8a35a482e0d9bf,60edf413f7d73cfac4b82df3,f,1.20454,0,35,35,8,1,OOROOOO,OOROOOR,19.91402015,20.89823192,series_1
,,,,,,,,60e46849a6a53ab857bae26f,Mężczyzna,22,2021-07-13_22h17.48.929,rantool2,2021.1.4,Win32,59.87665409,60e46849a6a53ab857bae26f,60d9d14f4a8a35a482e0d9bf,60edf413f7d73cfac4b82df3,j,1.433345,0,36,36,48,1,RROOOOO,RROOOOR,20.90986523,22.15934078,series_1
,,,,,,,,60e46849a6a53ab857bae26f,Mężczyzna,22,2021-07-13_22h17.48.929,rantool2,2021.1.4,Win32,59.87665409,60e46849a6a53ab857bae26f,60d9d14f4a8a35a482e0d9bf,60edf413f7d73cfac4b82df3,j,1.594555,0,37,37,13,1,OORRORO,OORRORR,21.66733484,22.11181017,series_1
,,,,,,,,60e46849a6a53ab857bae26f,Mężczyzna,22,2021-07-13_22h17.48.929,rantool2,2021.1.4,Win32,59.87665409,60e46849a6a53ab857bae26f,60d9d14f4a8a35a482e0d9bf,60edf413f7d73cfac4b82df3,j,1.27098,0,38,38,15,1,OORRRRO,OORRRRR,22.10108823,21.74922619,series_0
,,,,,,,,60e46849a6a53ab857bae26f,Mężczyzna,22,2021-07-13_22h17.48.929,rantool2,2021.1.4,Win32,59.87665409,60e46849a6a53ab857bae26f,60d9d14f4a8a35a482e0d9bf,60edf413f7d73cfac4b82df3,f,1.91555,0,39,39,53,1,RRORORO,RRORORR,20.71309134,21.90565814,series_1
,,,,,,,,60e46849a6a53ab857bae26f,Mężczyzna,22,2021-07-13_22h17.48.929,rantool2,2021.1.4,Win32,59.87665409,60e46849a6a53ab857bae26f,60d9d14f4a8a35a482e0d9bf,60edf413f7d73cfac4b82df3,j,1.16202,0,40,40,4,1,OOOROOO,OOOROOR,19.91402015,21.21223021,series_1
,,,,,,,,60e46849a6a53ab857bae26f,Mężczyzna,22,2021-07-13_22h17.48.929,rantool2,2021.1.4,Win32,59.87665409,60e46849a6a53ab857bae26f,60d9d14f4a8a35a482e0d9bf,60edf413f7d73cfac4b82df3,f,1.435925,0,41,41,28,1,ORRROOO,ORRROOR,22.24142883,22.53364006,series_1
,,,,,,,,60e46849a6a53ab857bae26f,Mężczyzna,22,2021-07-13_22h17.48.929,rantool2,2021.1.4,Win32,59.87665409,60e46849a6a53ab857bae26f,60d9d14f4a8a35a482e0d9bf,60edf413f7d73cfac4b82df3,j,2.142715,0,42,42,51,1,RROORRO,RROORRR,21.89852628,22.02786418,series_1
,,,,,,,,60e46849a6a53ab857bae26f,Mężczyzna,22,2021-07-13_22h17.48.929,rantool2,2021.1.4,Win32,59.87665409,60e46849a6a53ab857bae26f,60d9d14f4a8a35a482e0d9bf,60edf413f7d73cfac4b82df3,f,1.24365,0,43,43,58,1,RRROROO,RRROROR,22.1285618,21.37121559,series_0
,,,,,,,,60e46849a6a53ab857bae26f,Mężczyzna,22,2021-07-13_22h17.48.929,rantool2,2021.1.4,Win32,59.87665409,60e46849a6a53ab857bae26f,60d9d14f4a8a35a482e0d9bf,60edf413f7d73cfac4b82df3,j,1.628535,0,44,44,12,1,OORROOO,OORROOR,21.30250474,22.02786418,series_1
,,,,,,,,60e46849a6a53ab857bae26f,Mężczyzna,22,2021-07-13_22h17.48.929,rantool2,2021.1.4,Win32,59.87665409,60e46849a6a53ab857bae26f,60d9d14f4a8a35a482e0d9bf,60edf413f7d73cfac4b82df3,j,1.08894,0,45,45,45,1,RORRORO,RORRORR,20.78182524,21.22513037,series_1
,,,,,,,,60e46849a6a53ab857bae26f,Mężczyzna,22,2021-07-13_22h17.48.929,rantool2,2021.1.4,Win32,59.87665409,60e46849a6a53ab857bae26f,60d9d14f4a8a35a482e0d9bf,60edf413f7d73cfac4b82df3,f,1.28446,0,46,46,37,1,ROORORO,ROORORR,20.42602454,21.57657071,series_1
,,,,,,,,60e46849a6a53ab857bae26f,Mężczyzna,22,2021-07-13_22h17.48.929,rantool2,2021.1.4,Win32,59.87665409,60e46849a6a53ab857bae26f,60d9d14f4a8a35a482e0d9bf,60edf413f7d73cfac4b82df3,f,1.606155,0,47,47,38,1,ROORROO,ROORROR,21.79500819,21.36812781,series_0
,,,,,,,,60e46849a6a53ab857bae26f,Mężczyzna,22,2021-07-13_22h17.48.929,rantool2,2021.1.4,Win32,59.87665409,60e46849a6a53ab857bae26f,60d9d14f4a8a35a482e0d9bf,60edf413f7d73cfac4b82df3,j,1.24024,0,48,48,23,1,ORORRRO,ORORRRR,22.1285618,21.9921709,series_0
,,,,,,,,60e46849a6a53ab857bae26f,Mężczyzna,22,2021-07-13_22h17.48.929,rantool2,2021.1.4,Win32,59.87665409,60e46849a6a53ab857bae26f,60d9d14f4a8a35a482e0d9bf,60edf413f7d73cfac4b82df3,f,1.132215,0,49,49,62,1,RRRRROO,RRRRROR,22.16413392,21.27974287,series_0
,,,,,,,,60e46849a6a53ab857bae26f,Mężczyzna,22,2021-07-13_22h17.48.929,rantool2,2021.1.4,Win32,59.87665409,60e46849a6a53ab857bae26f,60d9d14f4a8a35a482e0d9bf,60edf413f7d73cfac4b82df3,j,1.60318,0,50,50,41,1,ROROORO,ROROORR,20.42602454,21.71443381,series_1
,,,,,,,,60e46849a6a53ab857bae26f,Mężczyzna,22,2021-07-13_22h17.48.929,rantool2,2021.1.4,Win32,59.87665409,60e46849a6a53ab857bae26f,60d9d14f4a8a35a482e0d9bf,60edf413f7d73cfac4b82df3,f,1.651925,0,51,51,17,1,OROOORO,OROOORR,21.03750787,22.12173012,series_1
,,,,,,,,60e46849a6a53ab857bae26f,Mężczyzna,22,2021-07-13_22h17.48.929,rantool2,2021.1.4,Win32,59.87665409,60e46849a6a53ab857bae26f,60d9d14f4a8a35a482e0d9bf,60edf413f7d73cfac4b82df3,j,1.383615,0,52,52,31,1,ORRRRRO,ORRRRRR,22.16413392,20.74050628,series_0
,,,,,,,,60e46849a6a53ab857bae26f,Mężczyzna,22,2021-07-13_22h17.48.929,rantool2,2021.1.4,Win32,59.87665409,60e46849a6a53ab857bae26f,60d9d14f4a8a35a482e0d9bf,60edf413f7d73cfac4b82df3,j,1.33194,0,53,53,19,1,OROORRO,OROORRR,21.73568164,22.11181017,series_1
,,,,,,,,60e46849a6a53ab857bae26f,Mężczyzna,22,2021-07-13_22h17.48.929,rantool2,2021.1.4,Win32,59.87665409,60e46849a6a53ab857bae26f,60d9d14f4a8a35a482e0d9bf,60edf413f7d73cfac4b82df3,j,1.093665,0,54,54,24,1,ORROOOO,ORROOOR,21.12383932,22.07102821,series_1
,,,,,,,,60e46849a6a53ab857bae26f,Mężczyzna,22,2021-07-13_22h17.48.929,rantool2,2021.1.4,Win32,59.87665409,60e46849a6a53ab857bae26f,60d9d14f4a8a35a482e0d9bf,60edf413f7d73cfac4b82df3,f,1.00028,0,55,55,21,1,ORORORO,ORORORR,20.39515459,22.06781359,series_1
,,,,,,,,60e46849a6a53ab857bae26f,Mężczyzna,22,2021-07-13_22h17.48.929,rantool2,2021.1.4,Win32,59.87665409,60e46849a6a53ab857bae26f,60d9d14f4a8a35a482e0d9bf,60edf413f7d73cfac4b82df3,j,1.03408,0,56,56,57,1,RRROORO,RRROORR,21.82425538,22.07102821,series_1
,,,,,,,,60e46849a6a53ab857bae26f,Mężczyzna,22,2021-07-13_22h17.48.929,rantool2,2021.1.4,Win32,59.87665409,60e46849a6a53ab857bae26f,60d9d14f4a8a35a482e0d9bf,60edf413f7d73cfac4b82df3,j,0.98674,0,57,57,49,1,RROOORO,RROOORR,21.76276513,22.53364006,series_1
,,,,,,,,60e46849a6a53ab857bae26f,Mężczyzna,22,2021-07-13_22h17.48.929,rantool2,2021.1.4,Win32,59.87665409,60e46849a6a53ab857bae26f,60d9d14f4a8a35a482e0d9bf,60edf413f7d73cfac4b82df3,j,1.103545,0,58,58,35,1,ROOORRO,ROOORRR,21.76276513,22.16977179,series_1
,,,,,,,,60e46849a6a53ab857bae26f,Mężczyzna,22,2021-07-13_22h17.48.929,rantool2,2021.1.4,Win32,59.87665409,60e46849a6a53ab857bae26f,60d9d14f4a8a35a482e0d9bf,60edf413f7d73cfac4b82df3,f,1.233165,0,59,59,54,1,RRORROO,RRORROR,21.55250791,20.9984461,series_0
,,,,,,,,60e46849a6a53ab857bae26f,Mężczyzna,22,2021-07-13_22h17.48.929,rantool2,2021.1.4,Win32,59.87665409,60e46849a6a53ab857bae26f,60d9d14f4a8a35a482e0d9bf,60edf413f7d73cfac4b82df3,j,2.64253,0,60,60,60,1,RRRROOO,RRRROOR,22.10108823,22.15934078,series_1
,,,,,,,,60e46849a6a53ab857bae26f,Mężczyzna,22,2021-07-13_22h17.48.929,rantool2,2021.1.4,Win32,59.87665409,60e46849a6a53ab857bae26f,60d9d14f4a8a35a482e0d9bf,60edf413f7d73cfac4b82df3,f,1.785315,0,61,61,63,1,RRRRRRO,RRRRRRR,21.35278725,19.62521613,series_0
,,,,,,,,60e46849a6a53ab857bae26f,Mężczyzna,22,2021-07-13_22h17.48.929,rantool2,2021.1.4,Win32,59.87665409,60e46849a6a53ab857bae26f,60d9d14f4a8a35a482e0d9bf,60edf413f7d73cfac4b82df3,j,1.48434,0,62,62,61,1,RRRRORO,RRRRORR,21.81333602,21.17347734,series_0
,,,,,,,,60e46849a6a53ab857bae26f,Mężczyzna,22,2021-07-13_22h17.48.929,rantool2,2021.1.4,Win32,59.87665409,60e46849a6a53ab857bae26f,60d9d14f4a8a35a482e0d9bf,60edf413f7d73cfac4b82df3,j,2.35929,0,63,63,7,1,OOORRRO,OOORRRR,21.6194508,21.899017,series_1
