key_resp_7.keys,trials_2.thisRepN,trials_2.thisTrialN,trials_2.thisN,trials_2.thisIndex,trials_2.ran,id,series_0,series_1,acss_0,acss_1,comparison,id*,Płeć*,Wiek*,date,expName,psychopyVersion,OS,frameRate,STUDY_ID,SESSION_ID,key_resp_7.rt,key_resp_5.keys,key_resp_5.corr,key_resp_5.rt,trials.thisRepN,trials.thisTrialN,trials.thisN,trials.thisIndex,trials.ran
,0,0,0,16,1,6019d1d736aef018625bb433,OROOOOO,OROOOOR,20.43051175,21.17347734,series_1,6019d1d736aef018625bb433,Mężczyzna,19,2021-09-06_19h19.31.179,rantool2,2021.1.4,Win32,75.27286413,6135e006383e6ea6c3d06a28,61364d3af038004ca3de417e,,,,,,,,,
j,0,1,1,10,1,6019d1d736aef018625bb433,OOROROO,OOROROR,21.31236711,21.07490964,series_0,6019d1d736aef018625bb433,Mężczyzna,19,2021-09-06_19h19.31.179,rantool2,2021.1.4,Win32,75.27286413,6135e006383e6ea6c3d06a28,61364d3af038004ca3de417e,3.1088,,,,,,,,
f,0,2,2,39,1,6019d1d736aef018625bb433,ROORRRO,ROORRRR,21.82425538,21.38562617,series_0,6019d1d736aef018625bb433,Mężczyzna,19,2021-09-06_19h19.31.179,rantool2,2021.1.4,Win32,75.27286413,6135e006383e6ea6c3d06a28,61364d3af038004ca3de417e,2.0149,,,,,,,,
j,0,3,3,18,1,6019d1d736aef018625bb433,OROOROO,OROOROR,20.84860893,21.22513037,series_1,6019d1d736aef018625bb433,Mężczyzna,19,2021-09-06_19h19.31.179,rantool2,2021.1.4,Win32,75.27286413,6135e006383e6ea6c3d06a28,61364d3af038004ca3de417e,1.3217,,,,,,,,
f,0,4,4,59,1,6019d1d736aef018625bb433,RRRORRO,RRRORRR,21.56657303,20.89823192,series_0,6019d1d736aef018625bb433,Mężczyzna,19,2021-09-06_19h19.31.179,rantool2,2021.1.4,Win32,75.27286413,6135e006383e6ea6c3d06a28,61364d3af038004ca3de417e,1.7556,,,,,,,,
j,0,5,5,53,1,6019d1d736aef018625bb433,RRORORO,RRORORR,20.71309134,21.90565814,series_1,6019d1d736aef018625bb433,Mężczyzna,19,2021-09-06_19h19.31.179,rantool2,2021.1.4,Win32,75.27286413,6135e006383e6ea6c3d06a28,61364d3af038004ca3de417e,2.0547,,,,,,,,
f,0,6,6,55,1,6019d1d736aef018625bb433,RRORRRO,RRORRRR,21.56657303,21.21223021,series_0,6019d1d736aef018625bb433,Mężczyzna,19,2021-09-06_19h19.31.179,rantool2,2021.1.4,Win32,75.27286413,6135e006383e6ea6c3d06a28,61364d3af038004ca3de417e,0.9274,,,,,,,,
j,0,7,7,25,1,6019d1d736aef018625bb433,ORROORO,ORROORR,21.79500819,22.61624387,series_1,6019d1d736aef018625bb433,Mężczyzna,19,2021-09-06_19h19.31.179,rantool2,2021.1.4,Win32,75.27286413,6135e006383e6ea6c3d06a28,61364d3af038004ca3de417e,1.7264,,,,,,,,
f,0,8,8,45,1,6019d1d736aef018625bb433,RORRORO,RORRORR,20.78182524,21.22513037,series_1,6019d1d736aef018625bb433,Mężczyzna,19,2021-09-06_19h19.31.179,rantool2,2021.1.4,Win32,75.27286413,6135e006383e6ea6c3d06a28,61364d3af038004ca3de417e,1.6081,,,,,,,,
j,0,9,9,7,1,6019d1d736aef018625bb433,OOORRRO,OOORRRR,21.6194508,21.899017,series_1,6019d1d736aef018625bb433,Mężczyzna,19,2021-09-06_19h19.31.179,rantool2,2021.1.4,Win32,75.27286413,6135e006383e6ea6c3d06a28,61364d3af038004ca3de417e,3.2119,,,,,,,,
f,0,10,10,33,1,6019d1d736aef018625bb433,ROOOORO,ROOOORR,20.83779602,22.03072203,series_1,6019d1d736aef018625bb433,Mężczyzna,19,2021-09-06_19h19.31.179,rantool2,2021.1.4,Win32,75.27286413,6135e006383e6ea6c3d06a28,61364d3af038004ca3de417e,1.6327,,,,,,,,
j,0,11,11,29,1,6019d1d736aef018625bb433,ORRRORO,ORRRORR,22.00300695,22.12173012,series_1,6019d1d736aef018625bb433,Mężczyzna,19,2021-09-06_19h19.31.179,rantool2,2021.1.4,Win32,75.27286413,6135e006383e6ea6c3d06a28,61364d3af038004ca3de417e,0.7833,,,,,,,,
j,0,12,12,6,1,6019d1d736aef018625bb433,OOORROO,OOORROR,21.12383932,21.38562617,series_1,6019d1d736aef018625bb433,Mężczyzna,19,2021-09-06_19h19.31.179,rantool2,2021.1.4,Win32,75.27286413,6135e006383e6ea6c3d06a28,61364d3af038004ca3de417e,0.8609,,,,,,,,
j,0,13,13,11,1,6019d1d736aef018625bb433,OORORRO,OORORRR,22.18365867,22.6797523,series_1,6019d1d736aef018625bb433,Mężczyzna,19,2021-09-06_19h19.31.179,rantool2,2021.1.4,Win32,75.27286413,6135e006383e6ea6c3d06a28,61364d3af038004ca3de417e,1.3876,,,,,,,,
f,0,14,14,49,1,6019d1d736aef018625bb433,RROOORO,RROOORR,21.76276513,22.53364006,series_1,6019d1d736aef018625bb433,Mężczyzna,19,2021-09-06_19h19.31.179,rantool2,2021.1.4,Win32,75.27286413,6135e006383e6ea6c3d06a28,61364d3af038004ca3de417e,0.3204,,,,,,,,
f,0,15,15,58,1,6019d1d736aef018625bb433,RRROROO,RRROROR,22.1285618,21.37121559,series_0,6019d1d736aef018625bb433,Mężczyzna,19,2021-09-06_19h19.31.179,rantool2,2021.1.4,Win32,75.27286413,6135e006383e6ea6c3d06a28,61364d3af038004ca3de417e,0.7085,,,,,,,,
f,0,16,16,52,1,6019d1d736aef018625bb433,RROROOO,RROROOR,22.18365867,22.11097995,series_0,6019d1d736aef018625bb433,Mężczyzna,19,2021-09-06_19h19.31.179,rantool2,2021.1.4,Win32,75.27286413,6135e006383e6ea6c3d06a28,61364d3af038004ca3de417e,0.7688,,,,,,,,
f,0,17,17,5,1,6019d1d736aef018625bb433,OOORORO,OOORORR,20.87963819,21.9921709,series_1,6019d1d736aef018625bb433,Mężczyzna,19,2021-09-06_19h19.31.179,rantool2,2021.1.4,Win32,75.27286413,6135e006383e6ea6c3d06a28,61364d3af038004ca3de417e,1.5663,,,,,,,,
j,0,18,18,60,1,6019d1d736aef018625bb433,RRRROOO,RRRROOR,22.10108823,22.15934078,series_1,6019d1d736aef018625bb433,Mężczyzna,19,2021-09-06_19h19.31.179,rantool2,2021.1.4,Win32,75.27286413,6135e006383e6ea6c3d06a28,61364d3af038004ca3de417e,2.1114,,,,,,,,
f,0,19,19,34,1,6019d1d736aef018625bb433,ROOOROO,ROOOROR,21.03750787,21.24781509,series_1,6019d1d736aef018625bb433,Mężczyzna,19,2021-09-06_19h19.31.179,rantool2,2021.1.4,Win32,75.27286413,6135e006383e6ea6c3d06a28,61364d3af038004ca3de417e,1.0738,,,,,,,,
j,0,20,20,9,1,6019d1d736aef018625bb433,OOROORO,OOROORR,21.07991943,22.2428857,series_1,6019d1d736aef018625bb433,Mężczyzna,19,2021-09-06_19h19.31.179,rantool2,2021.1.4,Win32,75.27286413,6135e006383e6ea6c3d06a28,61364d3af038004ca3de417e,1.6077,,,,,,,,
j,0,21,21,13,1,6019d1d736aef018625bb433,OORRORO,OORRORR,21.66733484,22.11181017,series_1,6019d1d736aef018625bb433,Mężczyzna,19,2021-09-06_19h19.31.179,rantool2,2021.1.4,Win32,75.27286413,6135e006383e6ea6c3d06a28,61364d3af038004ca3de417e,0.5238,,,,,,,,
f,0,22,22,26,1,6019d1d736aef018625bb433,ORROROO,ORROROR,22.02732763,21.71443381,series_0,6019d1d736aef018625bb433,Mężczyzna,19,2021-09-06_19h19.31.179,rantool2,2021.1.4,Win32,75.27286413,6135e006383e6ea6c3d06a28,61364d3af038004ca3de417e,1.9191,,,,,,,,
f,0,23,23,17,1,6019d1d736aef018625bb433,OROOORO,OROOORR,21.03750787,22.12173012,series_1,6019d1d736aef018625bb433,Mężczyzna,19,2021-09-06_19h19.31.179,rantool2,2021.1.4,Win32,75.27286413,6135e006383e6ea6c3d06a28,61364d3af038004ca3de417e,0.245,,,,,,,,
f,0,24,24,38,1,6019d1d736aef018625bb433,ROORROO,ROORROR,21.79500819,21.36812781,series_0,6019d1d736aef018625bb433,Mężczyzna,19,2021-09-06_19h19.31.179,rantool2,2021.1.4,Win32,75.27286413,6135e006383e6ea6c3d06a28,61364d3af038004ca3de417e,0.9886,,,,,,,,
f,0,25,25,24,1,6019d1d736aef018625bb433,ORROOOO,ORROOOR,21.12383932,22.07102821,series_1,6019d1d736aef018625bb433,Mężczyzna,19,2021-09-06_19h19.31.179,rantool2,2021.1.4,Win32,75.27286413,6135e006383e6ea6c3d06a28,61364d3af038004ca3de417e,0.6015,,,,,,,,
j,0,26,26,27,1,6019d1d736aef018625bb433,ORRORRO,ORRORRR,21.55250791,22.2428857,series_1,6019d1d736aef018625bb433,Mężczyzna,19,2021-09-06_19h19.31.179,rantool2,2021.1.4,Win32,75.27286413,6135e006383e6ea6c3d06a28,61364d3af038004ca3de417e,0.5025,,,,,,,,
j,0,27,27,31,1,6019d1d736aef018625bb433,ORRRRRO,ORRRRRR,22.16413392,20.74050628,series_0,6019d1d736aef018625bb433,Mężczyzna,19,2021-09-06_19h19.31.179,rantool2,2021.1.4,Win32,75.27286413,6135e006383e6ea6c3d06a28,61364d3af038004ca3de417e,0.9882,,,,,,,,
f,0,28,28,50,1,6019d1d736aef018625bb433,RROOROO,RROOROR,21.73568164,22.02566557,series_1,6019d1d736aef018625bb433,Mężczyzna,19,2021-09-06_19h19.31.179,rantool2,2021.1.4,Win32,75.27286413,6135e006383e6ea6c3d06a28,61364d3af038004ca3de417e,0.2899,,,,,,,,
f,0,29,29,12,1,6019d1d736aef018625bb433,OORROOO,OORROOR,21.30250474,22.02786418,series_1,6019d1d736aef018625bb433,Mężczyzna,19,2021-09-06_19h19.31.179,rantool2,2021.1.4,Win32,75.27286413,6135e006383e6ea6c3d06a28,61364d3af038004ca3de417e,1.1228,,,,,,,,
j,0,30,30,61,1,6019d1d736aef018625bb433,RRRRORO,RRRRORR,21.81333602,21.17347734,series_0,6019d1d736aef018625bb433,Mężczyzna,19,2021-09-06_19h19.31.179,rantool2,2021.1.4,Win32,75.27286413,6135e006383e6ea6c3d06a28,61364d3af038004ca3de417e,1.7364,,,,,,,,
j,0,31,31,40,1,6019d1d736aef018625bb433,ROROOOO,ROROOOR,20.87963819,21.37121559,series_1,6019d1d736aef018625bb433,Mężczyzna,19,2021-09-06_19h19.31.179,rantool2,2021.1.4,Win32,75.27286413,6135e006383e6ea6c3d06a28,61364d3af038004ca3de417e,0.4135,,,,,,,,
j,0,32,32,35,1,6019d1d736aef018625bb433,ROOORRO,ROOORRR,21.76276513,22.16977179,series_1,6019d1d736aef018625bb433,Mężczyzna,19,2021-09-06_19h19.31.179,rantool2,2021.1.4,Win32,75.27286413,6135e006383e6ea6c3d06a28,61364d3af038004ca3de417e,0.3972,,,,,,,,
f,0,33,33,32,1,6019d1d736aef018625bb433,ROOOOOO,ROOOOOR,19.92253567,21.27974287,series_1,6019d1d736aef018625bb433,Mężczyzna,19,2021-09-06_19h19.31.179,rantool2,2021.1.4,Win32,75.27286413,6135e006383e6ea6c3d06a28,61364d3af038004ca3de417e,0.3875,,,,,,,,
f,0,34,34,14,1,6019d1d736aef018625bb433,OORRROO,OORRROR,22.24142883,22.16977179,series_0,6019d1d736aef018625bb433,Mężczyzna,19,2021-09-06_19h19.31.179,rantool2,2021.1.4,Win32,75.27286413,6135e006383e6ea6c3d06a28,61364d3af038004ca3de417e,0.6191,,,,,,,,
f,0,35,35,21,1,6019d1d736aef018625bb433,ORORORO,ORORORR,20.39515459,22.06781359,series_1,6019d1d736aef018625bb433,Mężczyzna,19,2021-09-06_19h19.31.179,rantool2,2021.1.4,Win32,75.27286413,6135e006383e6ea6c3d06a28,61364d3af038004ca3de417e,0.2614,,,,,,,,
j,0,36,36,4,1,6019d1d736aef018625bb433,OOOROOO,OOOROOR,19.91402015,21.21223021,series_1,6019d1d736aef018625bb433,Mężczyzna,19,2021-09-06_19h19.31.179,rantool2,2021.1.4,Win32,75.27286413,6135e006383e6ea6c3d06a28,61364d3af038004ca3de417e,0.2985,,,,,,,,
f,0,37,37,63,1,6019d1d736aef018625bb433,RRRRRRO,RRRRRRR,21.35278725,19.62521613,series_0,6019d1d736aef018625bb433,Mężczyzna,19,2021-09-06_19h19.31.179,rantool2,2021.1.4,Win32,75.27286413,6135e006383e6ea6c3d06a28,61364d3af038004ca3de417e,1.614,,,,,,,,
j,0,38,38,1,1,6019d1d736aef018625bb433,OOOOORO,OOOOORR,19.92253567,20.74050628,series_1,6019d1d736aef018625bb433,Mężczyzna,19,2021-09-06_19h19.31.179,rantool2,2021.1.4,Win32,75.27286413,6135e006383e6ea6c3d06a28,61364d3af038004ca3de417e,0.5531,,,,,,,,
j,0,39,39,3,1,6019d1d736aef018625bb433,OOOORRO,OOOORRR,20.90986523,21.74922619,series_1,6019d1d736aef018625bb433,Mężczyzna,19,2021-09-06_19h19.31.179,rantool2,2021.1.4,Win32,75.27286413,6135e006383e6ea6c3d06a28,61364d3af038004ca3de417e,1.6723,,,,,,,,
f,0,40,40,42,1,6019d1d736aef018625bb433,ROROROO,ROROROR,20.39515459,19.8361834,series_0,6019d1d736aef018625bb433,Mężczyzna,19,2021-09-06_19h19.31.179,rantool2,2021.1.4,Win32,75.27286413,6135e006383e6ea6c3d06a28,61364d3af038004ca3de417e,0.8345,,,,,,,,
f,0,41,41,51,1,6019d1d736aef018625bb433,RROORRO,RROORRR,21.89852628,22.02786418,series_1,6019d1d736aef018625bb433,Mężczyzna,19,2021-09-06_19h19.31.179,rantool2,2021.1.4,Win32,75.27286413,6135e006383e6ea6c3d06a28,61364d3af038004ca3de417e,1.0863,,,,,,,,
j,0,42,42,28,1,6019d1d736aef018625bb433,ORRROOO,ORRROOR,22.24142883,22.53364006,series_1,6019d1d736aef018625bb433,Mężczyzna,19,2021-09-06_19h19.31.179,rantool2,2021.1.4,Win32,75.27286413,6135e006383e6ea6c3d06a28,61364d3af038004ca3de417e,0.734,,,,,,,,
j,0,43,43,30,1,6019d1d736aef018625bb433,ORRRROO,ORRRROR,22.46748491,22.03072203,series_0,6019d1d736aef018625bb433,Mężczyzna,19,2021-09-06_19h19.31.179,rantool2,2021.1.4,Win32,75.27286413,6135e006383e6ea6c3d06a28,61364d3af038004ca3de417e,1.2808,,,,,,,,
f,0,44,44,20,1,6019d1d736aef018625bb433,OROROOO,OROROOR,21.31236711,21.90565814,series_1,6019d1d736aef018625bb433,Mężczyzna,19,2021-09-06_19h19.31.179,rantool2,2021.1.4,Win32,75.27286413,6135e006383e6ea6c3d06a28,61364d3af038004ca3de417e,1.4069,,,,,,,,
j,0,45,45,2,1,6019d1d736aef018625bb433,OOOOROO,OOOOROR,20.43051175,21.02936224,series_1,6019d1d736aef018625bb433,Mężczyzna,19,2021-09-06_19h19.31.179,rantool2,2021.1.4,Win32,75.27286413,6135e006383e6ea6c3d06a28,61364d3af038004ca3de417e,1.4317,,,,,,,,
j,0,46,46,22,1,6019d1d736aef018625bb433,ORORROO,ORORROR,22.02732763,21.57657071,series_0,6019d1d736aef018625bb433,Mężczyzna,19,2021-09-06_19h19.31.179,rantool2,2021.1.4,Win32,75.27286413,6135e006383e6ea6c3d06a28,61364d3af038004ca3de417e,1.9674,,,,,,,,
j,0,47,47,54,1,6019d1d736aef018625bb433,RRORROO,RRORROR,21.55250791,20.9984461,series_0,6019d1d736aef018625bb433,Mężczyzna,19,2021-09-06_19h19.31.179,rantool2,2021.1.4,Win32,75.27286413,6135e006383e6ea6c3d06a28,61364d3af038004ca3de417e,1.3738,,,,,,,,
f,0,48,48,19,1,6019d1d736aef018625bb433,OROORRO,OROORRR,21.73568164,22.11181017,series_1,6019d1d736aef018625bb433,Mężczyzna,19,2021-09-06_19h19.31.179,rantool2,2021.1.4,Win32,75.27286413,6135e006383e6ea6c3d06a28,61364d3af038004ca3de417e,0.8415,,,,,,,,
f,0,49,49,36,1,6019d1d736aef018625bb433,ROOROOO,ROOROOR,21.07991943,20.9984461,series_0,6019d1d736aef018625bb433,Mężczyzna,19,2021-09-06_19h19.31.179,rantool2,2021.1.4,Win32,75.27286413,6135e006383e6ea6c3d06a28,61364d3af038004ca3de417e,0.7961,,,,,,,,
f,0,50,50,15,1,6019d1d736aef018625bb433,OORRRRO,OORRRRR,22.10108823,21.74922619,series_0,6019d1d736aef018625bb433,Mężczyzna,19,2021-09-06_19h19.31.179,rantool2,2021.1.4,Win32,75.27286413,6135e006383e6ea6c3d06a28,61364d3af038004ca3de417e,0.9365,,,,,,,,
j,0,51,51,37,1,6019d1d736aef018625bb433,ROORORO,ROORORR,20.42602454,21.57657071,series_1,6019d1d736aef018625bb433,Mężczyzna,19,2021-09-06_19h19.31.179,rantool2,2021.1.4,Win32,75.27286413,6135e006383e6ea6c3d06a28,61364d3af038004ca3de417e,0.4835,,,,,,,,
j,0,52,52,41,1,6019d1d736aef018625bb433,ROROORO,ROROORR,20.42602454,21.71443381,series_1,6019d1d736aef018625bb433,Mężczyzna,19,2021-09-06_19h19.31.179,rantool2,2021.1.4,Win32,75.27286413,6135e006383e6ea6c3d06a28,61364d3af038004ca3de417e,0.9016,,,,,,,,
f,0,53,53,43,1,6019d1d736aef018625bb433,RORORRO,RORORRR,20.71309134,21.07490964,series_1,6019d1d736aef018625bb433,Mężczyzna,19,2021-09-06_19h19.31.179,rantool2,2021.1.4,Win32,75.27286413,6135e006383e6ea6c3d06a28,61364d3af038004ca3de417e,1.04,,,,,,,,
j,0,54,54,23,1,6019d1d736aef018625bb433,ORORRRO,ORORRRR,22.1285618,21.9921709,series_0,6019d1d736aef018625bb433,Mężczyzna,19,2021-09-06_19h19.31.179,rantool2,2021.1.4,Win32,75.27286413,6135e006383e6ea6c3d06a28,61364d3af038004ca3de417e,1.0278,,,,,,,,
f,0,55,55,48,1,6019d1d736aef018625bb433,RROOOOO,RROOOOR,20.90986523,22.15934078,series_1,6019d1d736aef018625bb433,Mężczyzna,19,2021-09-06_19h19.31.179,rantool2,2021.1.4,Win32,75.27286413,6135e006383e6ea6c3d06a28,61364d3af038004ca3de417e,0.6122,,,,,,,,
j,0,56,56,0,1,6019d1d736aef018625bb433,OOOOOOO,OOOOOOR,18.52739004,19.62521613,series_1,6019d1d736aef018625bb433,Mężczyzna,19,2021-09-06_19h19.31.179,rantool2,2021.1.4,Win32,75.27286413,6135e006383e6ea6c3d06a28,61364d3af038004ca3de417e,1.4723,,,,,,,,
j,0,57,57,57,1,6019d1d736aef018625bb433,RRROORO,RRROORR,21.82425538,22.07102821,series_1,6019d1d736aef018625bb433,Mężczyzna,19,2021-09-06_19h19.31.179,rantool2,2021.1.4,Win32,75.27286413,6135e006383e6ea6c3d06a28,61364d3af038004ca3de417e,0.8023,,,,,,,,
f,0,58,58,47,1,6019d1d736aef018625bb433,RORRRRO,RORRRRR,21.81333602,21.02936224,series_0,6019d1d736aef018625bb433,Mężczyzna,19,2021-09-06_19h19.31.179,rantool2,2021.1.4,Win32,75.27286413,6135e006383e6ea6c3d06a28,61364d3af038004ca3de417e,0.5238,,,,,,,,
f,0,59,59,8,1,6019d1d736aef018625bb433,OOROOOO,OOROOOR,19.91402015,20.89823192,series_1,6019d1d736aef018625bb433,Mężczyzna,19,2021-09-06_19h19.31.179,rantool2,2021.1.4,Win32,75.27286413,6135e006383e6ea6c3d06a28,61364d3af038004ca3de417e,0.9146,,,,,,,,
j,0,60,60,46,1,6019d1d736aef018625bb433,RORRROO,RORRROR,22.00300695,21.24781509,series_0,6019d1d736aef018625bb433,Mężczyzna,19,2021-09-06_19h19.31.179,rantool2,2021.1.4,Win32,75.27286413,6135e006383e6ea6c3d06a28,61364d3af038004ca3de417e,0.4716,,,,,,,,
j,0,61,61,62,1,6019d1d736aef018625bb433,RRRRROO,RRRRROR,22.16413392,21.27974287,series_0,6019d1d736aef018625bb433,Mężczyzna,19,2021-09-06_19h19.31.179,rantool2,2021.1.4,Win32,75.27286413,6135e006383e6ea6c3d06a28,61364d3af038004ca3de417e,1.4168,,,,,,,,
f,0,62,62,44,1,6019d1d736aef018625bb433,RORROOO,RORROOR,21.66733484,22.02566557,series_1,6019d1d736aef018625bb433,Mężczyzna,19,2021-09-06_19h19.31.179,rantool2,2021.1.4,Win32,75.27286413,6135e006383e6ea6c3d06a28,61364d3af038004ca3de417e,3.0252,,,,,,,,
j,0,63,63,56,1,6019d1d736aef018625bb433,RRROOOO,RRROOOR,21.6194508,22.31681875,series_1,6019d1d736aef018625bb433,Mężczyzna,19,2021-09-06_19h19.31.179,rantool2,2021.1.4,Win32,75.27286413,6135e006383e6ea6c3d06a28,61364d3af038004ca3de417e,1.0141,,,,,,,,
,,,,,,6019d1d736aef018625bb433,,,,,,6019d1d736aef018625bb433,Mężczyzna,19,2021-09-06_19h19.31.179,rantool2,2021.1.4,Win32,75.27286413,6135e006383e6ea6c3d06a28,61364d3af038004ca3de417e,,"[""comma""]",0,[0.8457999999523338],0,0,0,0,1
,,,,,,6019d1d736aef018625bb433,,,,,,6019d1d736aef018625bb433,Mężczyzna,19,2021-09-06_19h19.31.179,rantool2,2021.1.4,Win32,75.27286413,6135e006383e6ea6c3d06a28,61364d3af038004ca3de417e,,"[""period""]",0,[0.297199999988095],1,0,1,0,1
,,,,,,6019d1d736aef018625bb433,,,,,,6019d1d736aef018625bb433,Mężczyzna,19,2021-09-06_19h19.31.179,rantool2,2021.1.4,Win32,75.27286413,6135e006383e6ea6c3d06a28,61364d3af038004ca3de417e,,"[""comma""]",0,[0.36060000002385095],2,0,2,0,1
,,,,,,6019d1d736aef018625bb433,,,,,,6019d1d736aef018625bb433,Mężczyzna,19,2021-09-06_19h19.31.179,rantool2,2021.1.4,Win32,75.27286413,6135e006383e6ea6c3d06a28,61364d3af038004ca3de417e,,"[""period""]",0,[0.33789999997617315],3,0,3,0,1
,,,,,,6019d1d736aef018625bb433,,,,,,6019d1d736aef018625bb433,Mężczyzna,19,2021-09-06_19h19.31.179,rantool2,2021.1.4,Win32,75.27286413,6135e006383e6ea6c3d06a28,61364d3af038004ca3de417e,,"[""period""]",0,[0.2919000000357812],4,0,4,0,1
,,,,,,6019d1d736aef018625bb433,,,,,,6019d1d736aef018625bb433,Mężczyzna,19,2021-09-06_19h19.31.179,rantool2,2021.1.4,Win32,75.27286413,6135e006383e6ea6c3d06a28,61364d3af038004ca3de417e,,"[""period""]",0,[0.42730000001191115],5,0,5,0,1
,,,,,,6019d1d736aef018625bb433,,,,,,6019d1d736aef018625bb433,Mężczyzna,19,2021-09-06_19h19.31.179,rantool2,2021.1.4,Win32,75.27286413,6135e006383e6ea6c3d06a28,61364d3af038004ca3de417e,,"[""comma""]",0,[0.36070000004767167],6,0,6,0,1
,,,,,,6019d1d736aef018625bb433,,,,,,6019d1d736aef018625bb433,Mężczyzna,19,2021-09-06_19h19.31.179,rantool2,2021.1.4,Win32,75.27286413,6135e006383e6ea6c3d06a28,61364d3af038004ca3de417e,,"[""comma""]",0,[0.36110000002383913],7,0,7,0,1
,,,,,,6019d1d736aef018625bb433,,,,,,6019d1d736aef018625bb433,Mężczyzna,19,2021-09-06_19h19.31.179,rantool2,2021.1.4,Win32,75.27286413,6135e006383e6ea6c3d06a28,61364d3af038004ca3de417e,,"[""comma""]",0,[0.27420000004767076],8,0,8,0,1
,,,,,,6019d1d736aef018625bb433,,,,,,6019d1d736aef018625bb433,Mężczyzna,19,2021-09-06_19h19.31.179,rantool2,2021.1.4,Win32,75.27286413,6135e006383e6ea6c3d06a28,61364d3af038004ca3de417e,,"[""comma""]",0,[0.19989999997616792],9,0,9,0,1
,,,,,,6019d1d736aef018625bb433,,,,,,6019d1d736aef018625bb433,Mężczyzna,19,2021-09-06_19h19.31.179,rantool2,2021.1.4,Win32,75.27286413,6135e006383e6ea6c3d06a28,61364d3af038004ca3de417e,,"[""period""]",0,[0.3135000000000048],10,0,10,0,1
,,,,,,6019d1d736aef018625bb433,,,,,,6019d1d736aef018625bb433,Mężczyzna,19,2021-09-06_19h19.31.179,rantool2,2021.1.4,Win32,75.27286413,6135e006383e6ea6c3d06a28,61364d3af038004ca3de417e,,"[""period""]",0,[0.4743999999761854],11,0,11,0,1
,,,,,,6019d1d736aef018625bb433,,,,,,6019d1d736aef018625bb433,Mężczyzna,19,2021-09-06_19h19.31.179,rantool2,2021.1.4,Win32,75.27286413,6135e006383e6ea6c3d06a28,61364d3af038004ca3de417e,,"[""comma""]",0,[0.25269999998806725],12,0,12,0,1
,,,,,,6019d1d736aef018625bb433,,,,,,6019d1d736aef018625bb433,Mężczyzna,19,2021-09-06_19h19.31.179,rantool2,2021.1.4,Win32,75.27286413,6135e006383e6ea6c3d06a28,61364d3af038004ca3de417e,,"[""comma""]",0,[0.6240000000000236],13,0,13,0,1
,,,,,,6019d1d736aef018625bb433,,,,,,6019d1d736aef018625bb433,Mężczyzna,19,2021-09-06_19h19.31.179,rantool2,2021.1.4,Win32,75.27286413,6135e006383e6ea6c3d06a28,61364d3af038004ca3de417e,,"[""period""]",0,[0.4936999999880527],14,0,14,0,1
,,,,,,6019d1d736aef018625bb433,,,,,,6019d1d736aef018625bb433,Mężczyzna,19,2021-09-06_19h19.31.179,rantool2,2021.1.4,Win32,75.27286413,6135e006383e6ea6c3d06a28,61364d3af038004ca3de417e,,"[""comma""]",0,[0.5478000000119323],15,0,15,0,1
,,,,,,6019d1d736aef018625bb433,,,,,,6019d1d736aef018625bb433,Mężczyzna,19,2021-09-06_19h19.31.179,rantool2,2021.1.4,Win32,75.27286413,6135e006383e6ea6c3d06a28,61364d3af038004ca3de417e,,"[""comma""]",0,[0.40090000003579007],16,0,16,0,1
,,,,,,6019d1d736aef018625bb433,,,,,,6019d1d736aef018625bb433,Mężczyzna,19,2021-09-06_19h19.31.179,rantool2,2021.1.4,Win32,75.27286413,6135e006383e6ea6c3d06a28,61364d3af038004ca3de417e,,"[""period""]",0,[0.4399999999999977],17,0,17,0,1
,,,,,,6019d1d736aef018625bb433,,,,,,6019d1d736aef018625bb433,Mężczyzna,19,2021-09-06_19h19.31.179,rantool2,2021.1.4,Win32,75.27286413,6135e006383e6ea6c3d06a28,61364d3af038004ca3de417e,,"[""period""]",0,[0.5069000000357278],18,0,18,0,1
,,,,,,6019d1d736aef018625bb433,,,,,,6019d1d736aef018625bb433,Mężczyzna,19,2021-09-06_19h19.31.179,rantool2,2021.1.4,Win32,75.27286413,6135e006383e6ea6c3d06a28,61364d3af038004ca3de417e,,"[""period""]",0,[0.2773000000119623],19,0,19,0,1
,,,,,,6019d1d736aef018625bb433,,,,,,6019d1d736aef018625bb433,Mężczyzna,19,2021-09-06_19h19.31.179,rantool2,2021.1.4,Win32,75.27286413,6135e006383e6ea6c3d06a28,61364d3af038004ca3de417e,,"[""comma""]",0,[0.9414999999999623],20,0,20,0,1
,,,,,,6019d1d736aef018625bb433,,,,,,6019d1d736aef018625bb433,Mężczyzna,19,2021-09-06_19h19.31.179,rantool2,2021.1.4,Win32,75.27286413,6135e006383e6ea6c3d06a28,61364d3af038004ca3de417e,,"[""comma""]",0,[0.27880000001192684],21,0,21,0,1
,,,,,,6019d1d736aef018625bb433,,,,,,6019d1d736aef018625bb433,Mężczyzna,19,2021-09-06_19h19.31.179,rantool2,2021.1.4,Win32,75.27286413,6135e006383e6ea6c3d06a28,61364d3af038004ca3de417e,,"[""comma""]",0,[0.4294000000357414],22,0,22,0,1
,,,,,,6019d1d736aef018625bb433,,,,,,6019d1d736aef018625bb433,Mężczyzna,19,2021-09-06_19h19.31.179,rantool2,2021.1.4,Win32,75.27286413,6135e006383e6ea6c3d06a28,61364d3af038004ca3de417e,,"[""period""]",0,[0.2657000000476728],23,0,23,0,1
,,,,,,6019d1d736aef018625bb433,,,,,,6019d1d736aef018625bb433,Mężczyzna,19,2021-09-06_19h19.31.179,rantool2,2021.1.4,Win32,75.27286413,6135e006383e6ea6c3d06a28,61364d3af038004ca3de417e,,"[""period""]",0,[0.2968000000118991],24,0,24,0,1
,,,,,,6019d1d736aef018625bb433,,,,,,6019d1d736aef018625bb433,Mężczyzna,19,2021-09-06_19h19.31.179,rantool2,2021.1.4,Win32,75.27286413,6135e006383e6ea6c3d06a28,61364d3af038004ca3de417e,,"[""period""]",0,[0.41700000000003],25,0,25,0,1
,,,,,,6019d1d736aef018625bb433,,,,,,6019d1d736aef018625bb433,Mężczyzna,19,2021-09-06_19h19.31.179,rantool2,2021.1.4,Win32,75.27286413,6135e006383e6ea6c3d06a28,61364d3af038004ca3de417e,,"[""period""]",0,[0.2713000000118768],26,0,26,0,1
,,,,,,6019d1d736aef018625bb433,,,,,,6019d1d736aef018625bb433,Mężczyzna,19,2021-09-06_19h19.31.179,rantool2,2021.1.4,Win32,75.27286413,6135e006383e6ea6c3d06a28,61364d3af038004ca3de417e,,"[""comma""]",0,[0.22580000001192957],27,0,27,0,1
,,,,,,6019d1d736aef018625bb433,,,,,,6019d1d736aef018625bb433,Mężczyzna,19,2021-09-06_19h19.31.179,rantool2,2021.1.4,Win32,75.27286413,6135e006383e6ea6c3d06a28,61364d3af038004ca3de417e,,"[""comma""]",0,[0.3312000000476587],28,0,28,0,1
,,,,,,6019d1d736aef018625bb433,,,,,,6019d1d736aef018625bb433,Mężczyzna,19,2021-09-06_19h19.31.179,rantool2,2021.1.4,Win32,75.27286413,6135e006383e6ea6c3d06a28,61364d3af038004ca3de417e,,"[""comma""]",0,[0.5061000000238209],29,0,29,0,1
,,,,,,6019d1d736aef018625bb433,,,,,,6019d1d736aef018625bb433,Mężczyzna,19,2021-09-06_19h19.31.179,rantool2,2021.1.4,Win32,75.27286413,6135e006383e6ea6c3d06a28,61364d3af038004ca3de417e,,"[""period""]",0,[0.2923999999761122],30,0,30,0,1
,,,,,,6019d1d736aef018625bb433,,,,,,6019d1d736aef018625bb433,Mężczyzna,19,2021-09-06_19h19.31.179,rantool2,2021.1.4,Win32,75.27286413,6135e006383e6ea6c3d06a28,61364d3af038004ca3de417e,,"[""period""]",0,[0.28449999999998],31,0,31,0,1
,,,,,,6019d1d736aef018625bb433,,,,,,6019d1d736aef018625bb433,Mężczyzna,19,2021-09-06_19h19.31.179,rantool2,2021.1.4,Win32,75.27286413,6135e006383e6ea6c3d06a28,61364d3af038004ca3de417e,,"[""comma""]",0,[0.3148000000119282],32,0,32,0,1
,,,,,,6019d1d736aef018625bb433,,,,,,6019d1d736aef018625bb433,Mężczyzna,19,2021-09-06_19h19.31.179,rantool2,2021.1.4,Win32,75.27286413,6135e006383e6ea6c3d06a28,61364d3af038004ca3de417e,,"[""comma""]",0,[0.24080000001191593],33,0,33,0,1
,,,,,,6019d1d736aef018625bb433,,,,,,6019d1d736aef018625bb433,Mężczyzna,19,2021-09-06_19h19.31.179,rantool2,2021.1.4,Win32,75.27286413,6135e006383e6ea6c3d06a28,61364d3af038004ca3de417e,,"[""period""]",0,[0.2008000000119523],34,0,34,0,1
,,,,,,6019d1d736aef018625bb433,,,,,,6019d1d736aef018625bb433,Mężczyzna,19,2021-09-06_19h19.31.179,rantool2,2021.1.4,Win32,75.27286413,6135e006383e6ea6c3d06a28,61364d3af038004ca3de417e,,"[""period""]",0,[0.3781999999880554],35,0,35,0,1
,,,,,,6019d1d736aef018625bb433,,,,,,6019d1d736aef018625bb433,Mężczyzna,19,2021-09-06_19h19.31.179,rantool2,2021.1.4,Win32,75.27286413,6135e006383e6ea6c3d06a28,61364d3af038004ca3de417e,,"[""comma""]",0,[0.41449999999997544],36,0,36,0,1
,,,,,,6019d1d736aef018625bb433,,,,,,6019d1d736aef018625bb433,Mężczyzna,19,2021-09-06_19h19.31.179,rantool2,2021.1.4,Win32,75.27286413,6135e006383e6ea6c3d06a28,61364d3af038004ca3de417e,,"[""comma""]",0,[0.42719999998809044],37,0,37,0,1
,,,,,,6019d1d736aef018625bb433,,,,,,6019d1d736aef018625bb433,Mężczyzna,19,2021-09-06_19h19.31.179,rantool2,2021.1.4,Win32,75.27286413,6135e006383e6ea6c3d06a28,61364d3af038004ca3de417e,,"[""period""]",0,[0.5373999999761736],38,0,38,0,1
,,,,,,6019d1d736aef018625bb433,,,,,,6019d1d736aef018625bb433,Mężczyzna,19,2021-09-06_19h19.31.179,rantool2,2021.1.4,Win32,75.27286413,6135e006383e6ea6c3d06a28,61364d3af038004ca3de417e,,"[""comma""]",0,[0.56069999998806],39,0,39,0,1
,,,,,,6019d1d736aef018625bb433,,,,,,6019d1d736aef018625bb433,Mężczyzna,19,2021-09-06_19h19.31.179,rantool2,2021.1.4,Win32,75.27286413,6135e006383e6ea6c3d06a28,61364d3af038004ca3de417e,,"[""comma""]",0,[0.49600000000003774],40,0,40,0,1
,,,,,,6019d1d736aef018625bb433,,,,,,6019d1d736aef018625bb433,Mężczyzna,19,2021-09-06_19h19.31.179,rantool2,2021.1.4,Win32,75.27286413,6135e006383e6ea6c3d06a28,61364d3af038004ca3de417e,,0,0,,41,0,41,0,1
,,,,,,6019d1d736aef018625bb433,,,,,,6019d1d736aef018625bb433,Mężczyzna,19,2021-09-06_19h19.31.179,rantool2,2021.1.4,Win32,75.27286413,6135e006383e6ea6c3d06a28,61364d3af038004ca3de417e,,"[""period""]",0,[0.1681000000238555],42,0,42,0,1
,,,,,,6019d1d736aef018625bb433,,,,,,6019d1d736aef018625bb433,Mężczyzna,19,2021-09-06_19h19.31.179,rantool2,2021.1.4,Win32,75.27286413,6135e006383e6ea6c3d06a28,61364d3af038004ca3de417e,,"[""period""]",0,[0.2954000000357837],43,0,43,0,1
,,,,,,6019d1d736aef018625bb433,,,,,,6019d1d736aef018625bb433,Mężczyzna,19,2021-09-06_19h19.31.179,rantool2,2021.1.4,Win32,75.27286413,6135e006383e6ea6c3d06a28,61364d3af038004ca3de417e,,"[""comma""]",0,[0.08850000000001046],44,0,44,0,1
,,,,,,6019d1d736aef018625bb433,,,,,,6019d1d736aef018625bb433,Mężczyzna,19,2021-09-06_19h19.31.179,rantool2,2021.1.4,Win32,75.27286413,6135e006383e6ea6c3d06a28,61364d3af038004ca3de417e,,"[""comma""]",0,[0.24049999999999727],45,0,45,0,1
,,,,,,6019d1d736aef018625bb433,,,,,,6019d1d736aef018625bb433,Mężczyzna,19,2021-09-06_19h19.31.179,rantool2,2021.1.4,Win32,75.27286413,6135e006383e6ea6c3d06a28,61364d3af038004ca3de417e,,"[""comma"",""comma""]",0,"[0.3894999999999982,1.5623999999761509]",46,0,46,0,1
,,,,,,6019d1d736aef018625bb433,,,,,,6019d1d736aef018625bb433,Mężczyzna,19,2021-09-06_19h19.31.179,rantool2,2021.1.4,Win32,75.27286413,6135e006383e6ea6c3d06a28,61364d3af038004ca3de417e,,"[""comma""]",0,[0.9113999999761404],47,0,47,0,1
,,,,,,6019d1d736aef018625bb433,,,,,,6019d1d736aef018625bb433,Mężczyzna,19,2021-09-06_19h19.31.179,rantool2,2021.1.4,Win32,75.27286413,6135e006383e6ea6c3d06a28,61364d3af038004ca3de417e,,"[""comma"",""period""]",0,"[0.28109999996428314,1.9611999999880823]",48,0,48,0,1
,,,,,,6019d1d736aef018625bb433,,,,,,6019d1d736aef018625bb433,Mężczyzna,19,2021-09-06_19h19.31.179,rantool2,2021.1.4,Win32,75.27286413,6135e006383e6ea6c3d06a28,61364d3af038004ca3de417e,,0,0,,49,0,49,0,1
,,,,,,6019d1d736aef018625bb433,,,,,,6019d1d736aef018625bb433,Mężczyzna,19,2021-09-06_19h19.31.179,rantool2,2021.1.4,Win32,75.27286413,6135e006383e6ea6c3d06a28,61364d3af038004ca3de417e,,"[""comma""]",0,[0.297199999988095],50,0,50,0,1
,,,,,,6019d1d736aef018625bb433,,,,,,6019d1d736aef018625bb433,Mężczyzna,19,2021-09-06_19h19.31.179,rantool2,2021.1.4,Win32,75.27286413,6135e006383e6ea6c3d06a28,61364d3af038004ca3de417e,,"[""comma""]",0,[0.25390000003574187],51,0,51,0,1
,,,,,,6019d1d736aef018625bb433,,,,,,6019d1d736aef018625bb433,Mężczyzna,19,2021-09-06_19h19.31.179,rantool2,2021.1.4,Win32,75.27286413,6135e006383e6ea6c3d06a28,61364d3af038004ca3de417e,,"[""comma""]",0,[0.38659999996423267],52,0,52,0,1
,,,,,,6019d1d736aef018625bb433,,,,,,6019d1d736aef018625bb433,Mężczyzna,19,2021-09-06_19h19.31.179,rantool2,2021.1.4,Win32,75.27286413,6135e006383e6ea6c3d06a28,61364d3af038004ca3de417e,,"[""period""]",0,[0.21359999996423085],53,0,53,0,1
,,,,,,6019d1d736aef018625bb433,,,,,,6019d1d736aef018625bb433,Mężczyzna,19,2021-09-06_19h19.31.179,rantool2,2021.1.4,Win32,75.27286413,6135e006383e6ea6c3d06a28,61364d3af038004ca3de417e,,"[""period""]",0,[0.20019999998805815],54,0,54,0,1
,,,,,,6019d1d736aef018625bb433,,,,,,6019d1d736aef018625bb433,Mężczyzna,19,2021-09-06_19h19.31.179,rantool2,2021.1.4,Win32,75.27286413,6135e006383e6ea6c3d06a28,61364d3af038004ca3de417e,,"[""period""]",0,[0.2545000000000073],55,0,55,0,1
,,,,,,6019d1d736aef018625bb433,,,,,,6019d1d736aef018625bb433,Mężczyzna,19,2021-09-06_19h19.31.179,rantool2,2021.1.4,Win32,75.27286413,6135e006383e6ea6c3d06a28,61364d3af038004ca3de417e,,"[""comma""]",0,[0.22030000001194594],56,0,56,0,1
,,,,,,6019d1d736aef018625bb433,,,,,,6019d1d736aef018625bb433,Mężczyzna,19,2021-09-06_19h19.31.179,rantool2,2021.1.4,Win32,75.27286413,6135e006383e6ea6c3d06a28,61364d3af038004ca3de417e,,"[""comma""]",0,[0.24030000001192775],57,0,57,0,1
,,,,,,6019d1d736aef018625bb433,,,,,,6019d1d736aef018625bb433,Mężczyzna,19,2021-09-06_19h19.31.179,rantool2,2021.1.4,Win32,75.27286413,6135e006383e6ea6c3d06a28,61364d3af038004ca3de417e,,"[""comma""]",0,[0.3125],58,0,58,0,1
,,,,,,6019d1d736aef018625bb433,,,,,,6019d1d736aef018625bb433,Mężczyzna,19,2021-09-06_19h19.31.179,rantool2,2021.1.4,Win32,75.27286413,6135e006383e6ea6c3d06a28,61364d3af038004ca3de417e,,"[""period""]",0,[0.2939999999999827],59,0,59,0,1
,,,,,,6019d1d736aef018625bb433,,,,,,6019d1d736aef018625bb433,Mężczyzna,19,2021-09-06_19h19.31.179,rantool2,2021.1.4,Win32,75.27286413,6135e006383e6ea6c3d06a28,61364d3af038004ca3de417e,,"[""period""]",0,[0.08040000003575187],60,0,60,0,1
,,,,,,6019d1d736aef018625bb433,,,,,,6019d1d736aef018625bb433,Mężczyzna,19,2021-09-06_19h19.31.179,rantool2,2021.1.4,Win32,75.27286413,6135e006383e6ea6c3d06a28,61364d3af038004ca3de417e,,"[""comma""]",0,[0.21380000001192911],61,0,61,0,1
,,,,,,6019d1d736aef018625bb433,,,,,,6019d1d736aef018625bb433,Mężczyzna,19,2021-09-06_19h19.31.179,rantool2,2021.1.4,Win32,75.27286413,6135e006383e6ea6c3d06a28,61364d3af038004ca3de417e,,"[""comma""]",0,[0.8953999999761777],62,0,62,0,1
,,,,,,6019d1d736aef018625bb433,,,,,,6019d1d736aef018625bb433,Mężczyzna,19,2021-09-06_19h19.31.179,rantool2,2021.1.4,Win32,75.27286413,6135e006383e6ea6c3d06a28,61364d3af038004ca3de417e,,"[""comma""]",0,[0.7869999999999777],63,0,63,0,1
,,,,,,6019d1d736aef018625bb433,,,,,,6019d1d736aef018625bb433,Mężczyzna,19,2021-09-06_19h19.31.179,rantool2,2021.1.4,Win32,75.27286413,6135e006383e6ea6c3d06a28,61364d3af038004ca3de417e,,"[""comma""]",0,[0.3151999999881241],64,0,64,0,1
,,,,,,6019d1d736aef018625bb433,,,,,,6019d1d736aef018625bb433,Mężczyzna,19,2021-09-06_19h19.31.179,rantool2,2021.1.4,Win32,75.27286413,6135e006383e6ea6c3d06a28,61364d3af038004ca3de417e,,"[""period""]",0,[0.42389999997612904],65,0,65,0,1
,,,,,,6019d1d736aef018625bb433,,,,,,6019d1d736aef018625bb433,Mężczyzna,19,2021-09-06_19h19.31.179,rantool2,2021.1.4,Win32,75.27286413,6135e006383e6ea6c3d06a28,61364d3af038004ca3de417e,,"[""comma""]",0,[0.24059999996421766],66,0,66,0,1
,,,,,,6019d1d736aef018625bb433,,,,,,6019d1d736aef018625bb433,Mężczyzna,19,2021-09-06_19h19.31.179,rantool2,2021.1.4,Win32,75.27286413,6135e006383e6ea6c3d06a28,61364d3af038004ca3de417e,,"[""period"",""comma""]",0,"[0.22730000001195094,1.8678999999761459]",67,0,67,0,1
,,,,,,6019d1d736aef018625bb433,,,,,,6019d1d736aef018625bb433,Mężczyzna,19,2021-09-06_19h19.31.179,rantool2,2021.1.4,Win32,75.27286413,6135e006383e6ea6c3d06a28,61364d3af038004ca3de417e,,0,0,,68,0,68,0,1
,,,,,,6019d1d736aef018625bb433,,,,,,6019d1d736aef018625bb433,Mężczyzna,19,2021-09-06_19h19.31.179,rantool2,2021.1.4,Win32,75.27286413,6135e006383e6ea6c3d06a28,61364d3af038004ca3de417e,,"[""comma""]",0,[0.3131999999880577],69,0,69,0,1
,,,,,,6019d1d736aef018625bb433,,,,,,6019d1d736aef018625bb433,Mężczyzna,19,2021-09-06_19h19.31.179,rantool2,2021.1.4,Win32,75.27286413,6135e006383e6ea6c3d06a28,61364d3af038004ca3de417e,,"[""period""]",0,[0.2162999999522981],70,0,70,0,1
,,,,,,6019d1d736aef018625bb433,,,,,,6019d1d736aef018625bb433,Mężczyzna,19,2021-09-06_19h19.31.179,rantool2,2021.1.4,Win32,75.27286413,6135e006383e6ea6c3d06a28,61364d3af038004ca3de417e,,"[""period""]",0,[0.33389999997615405],71,0,71,0,1
,,,,,,6019d1d736aef018625bb433,,,,,,6019d1d736aef018625bb433,Mężczyzna,19,2021-09-06_19h19.31.179,rantool2,2021.1.4,Win32,75.27286413,6135e006383e6ea6c3d06a28,61364d3af038004ca3de417e,,"[""period"",""comma""]",0,"[0.31469999998807907,1.7710999999642354]",72,0,72,0,1
,,,,,,6019d1d736aef018625bb433,,,,,,6019d1d736aef018625bb433,Mężczyzna,19,2021-09-06_19h19.31.179,rantool2,2021.1.4,Win32,75.27286413,6135e006383e6ea6c3d06a28,61364d3af038004ca3de417e,,"[""comma""]",0,[0.34729999995232674],73,0,73,0,1
,,,,,,6019d1d736aef018625bb433,,,,,,6019d1d736aef018625bb433,Mężczyzna,19,2021-09-06_19h19.31.179,rantool2,2021.1.4,Win32,75.27286413,6135e006383e6ea6c3d06a28,61364d3af038004ca3de417e,,"[""period""]",0,[0.4139000000357669],74,0,74,0,1
,,,,,,6019d1d736aef018625bb433,,,,,,6019d1d736aef018625bb433,Mężczyzna,19,2021-09-06_19h19.31.179,rantool2,2021.1.4,Win32,75.27286413,6135e006383e6ea6c3d06a28,61364d3af038004ca3de417e,,"[""period""]",0,[0.2898000000118941],75,0,75,0,1
,,,,,,6019d1d736aef018625bb433,,,,,,6019d1d736aef018625bb433,Mężczyzna,19,2021-09-06_19h19.31.179,rantool2,2021.1.4,Win32,75.27286413,6135e006383e6ea6c3d06a28,61364d3af038004ca3de417e,,"[""comma""]",0,[0.26710000002384504],76,0,76,0,1
,,,,,,6019d1d736aef018625bb433,,,,,,6019d1d736aef018625bb433,Mężczyzna,19,2021-09-06_19h19.31.179,rantool2,2021.1.4,Win32,75.27286413,6135e006383e6ea6c3d06a28,61364d3af038004ca3de417e,,"[""comma""]",0,[0.42709999996418446],77,0,77,0,1
,,,,,,6019d1d736aef018625bb433,,,,,,6019d1d736aef018625bb433,Mężczyzna,19,2021-09-06_19h19.31.179,rantool2,2021.1.4,Win32,75.27286413,6135e006383e6ea6c3d06a28,61364d3af038004ca3de417e,,"[""comma""]",0,[0.4668999999761354],78,0,78,0,1
,,,,,,6019d1d736aef018625bb433,,,,,,6019d1d736aef018625bb433,Mężczyzna,19,2021-09-06_19h19.31.179,rantool2,2021.1.4,Win32,75.27286413,6135e006383e6ea6c3d06a28,61364d3af038004ca3de417e,,"[""period""]",0,[0.7473999999761531],79,0,79,0,1
,,,,,,6019d1d736aef018625bb433,,,,,,6019d1d736aef018625bb433,Mężczyzna,19,2021-09-06_19h19.31.179,rantool2,2021.1.4,Win32,75.27286413,6135e006383e6ea6c3d06a28,61364d3af038004ca3de417e,,"[""comma""]",0,[0.3603000000119323],80,0,80,0,1
,,,,,,6019d1d736aef018625bb433,,,,,,6019d1d736aef018625bb433,Mężczyzna,19,2021-09-06_19h19.31.179,rantool2,2021.1.4,Win32,75.27286413,6135e006383e6ea6c3d06a28,61364d3af038004ca3de417e,,"[""comma""]",0,[0.26719999998806543],81,0,81,0,1
,,,,,,6019d1d736aef018625bb433,,,,,,6019d1d736aef018625bb433,Mężczyzna,19,2021-09-06_19h19.31.179,rantool2,2021.1.4,Win32,75.27286413,6135e006383e6ea6c3d06a28,61364d3af038004ca3de417e,,"[""period""]",0,[0.30689999997616724],82,0,82,0,1
,,,,,,6019d1d736aef018625bb433,,,,,,6019d1d736aef018625bb433,Mężczyzna,19,2021-09-06_19h19.31.179,rantool2,2021.1.4,Win32,75.27286413,6135e006383e6ea6c3d06a28,61364d3af038004ca3de417e,,"[""period""]",0,[0.3036000000238346],83,0,83,0,1
,,,,,,6019d1d736aef018625bb433,,,,,,6019d1d736aef018625bb433,Mężczyzna,19,2021-09-06_19h19.31.179,rantool2,2021.1.4,Win32,75.27286413,6135e006383e6ea6c3d06a28,61364d3af038004ca3de417e,,"[""comma""]",0,[0.2955000000000041],84,0,84,0,1
,,,,,,6019d1d736aef018625bb433,,,,,,6019d1d736aef018625bb433,Mężczyzna,19,2021-09-06_19h19.31.179,rantool2,2021.1.4,Win32,75.27286413,6135e006383e6ea6c3d06a28,61364d3af038004ca3de417e,,"[""comma""]",0,[0.339999999999975],85,0,85,0,1
,,,,,,6019d1d736aef018625bb433,,,,,,6019d1d736aef018625bb433,Mężczyzna,19,2021-09-06_19h19.31.179,rantool2,2021.1.4,Win32,75.27286413,6135e006383e6ea6c3d06a28,61364d3af038004ca3de417e,,"[""comma""]",0,[0.32740000003576597],86,0,86,0,1
,,,,,,6019d1d736aef018625bb433,,,,,,6019d1d736aef018625bb433,Mężczyzna,19,2021-09-06_19h19.31.179,rantool2,2021.1.4,Win32,75.27286413,6135e006383e6ea6c3d06a28,61364d3af038004ca3de417e,,"[""period""]",0,[0.28069999998808726],87,0,87,0,1
,,,,,,6019d1d736aef018625bb433,,,,,,6019d1d736aef018625bb433,Mężczyzna,19,2021-09-06_19h19.31.179,rantool2,2021.1.4,Win32,75.27286413,6135e006383e6ea6c3d06a28,61364d3af038004ca3de417e,,"[""period""]",0,[0.08069999998804178],88,0,88,0,1
,,,,,,6019d1d736aef018625bb433,,,,,,6019d1d736aef018625bb433,Mężczyzna,19,2021-09-06_19h19.31.179,rantool2,2021.1.4,Win32,75.27286413,6135e006383e6ea6c3d06a28,61364d3af038004ca3de417e,,"[""period""]",0,[0.32680000001192866],89,0,89,0,1
,,,,,,6019d1d736aef018625bb433,,,,,,6019d1d736aef018625bb433,Mężczyzna,19,2021-09-06_19h19.31.179,rantool2,2021.1.4,Win32,75.27286413,6135e006383e6ea6c3d06a28,61364d3af038004ca3de417e,,"[""period""]",0,[0.3428999999761686],90,0,90,0,1
,,,,,,6019d1d736aef018625bb433,,,,,,6019d1d736aef018625bb433,Mężczyzna,19,2021-09-06_19h19.31.179,rantool2,2021.1.4,Win32,75.27286413,6135e006383e6ea6c3d06a28,61364d3af038004ca3de417e,,"[""comma""]",0,[0.28769999998809226],91,0,91,0,1
,,,,,,6019d1d736aef018625bb433,,,,,,6019d1d736aef018625bb433,Mężczyzna,19,2021-09-06_19h19.31.179,rantool2,2021.1.4,Win32,75.27286413,6135e006383e6ea6c3d06a28,61364d3af038004ca3de417e,,"[""comma""]",0,[0.8743999999761627],92,0,92,0,1
,,,,,,6019d1d736aef018625bb433,,,,,,6019d1d736aef018625bb433,Mężczyzna,19,2021-09-06_19h19.31.179,rantool2,2021.1.4,Win32,75.27286413,6135e006383e6ea6c3d06a28,61364d3af038004ca3de417e,,"[""comma""]",0,[0.1471000000238405],93,0,93,0,1
,,,,,,6019d1d736aef018625bb433,,,,,,6019d1d736aef018625bb433,Mężczyzna,19,2021-09-06_19h19.31.179,rantool2,2021.1.4,Win32,75.27286413,6135e006383e6ea6c3d06a28,61364d3af038004ca3de417e,,"[""period""]",0,[0.2259999999999991],94,0,94,0,1
,,,,,,6019d1d736aef018625bb433,,,,,,6019d1d736aef018625bb433,Mężczyzna,19,2021-09-06_19h19.31.179,rantool2,2021.1.4,Win32,75.27286413,6135e006383e6ea6c3d06a28,61364d3af038004ca3de417e,,"[""period""]",0,[0.3030999999642745],95,0,95,0,1
,,,,,,6019d1d736aef018625bb433,,,,,,6019d1d736aef018625bb433,Mężczyzna,19,2021-09-06_19h19.31.179,rantool2,2021.1.4,Win32,75.27286413,6135e006383e6ea6c3d06a28,61364d3af038004ca3de417e,,"[""comma"",""comma""]",0,"[0.2626000000238946,1.5037000000477292]",96,0,96,0,1
,,,,,,6019d1d736aef018625bb433,,,,,,6019d1d736aef018625bb433,Mężczyzna,19,2021-09-06_19h19.31.179,rantool2,2021.1.4,Win32,75.27286413,6135e006383e6ea6c3d06a28,61364d3af038004ca3de417e,,"[""comma"",""period""]",0,"[0.25430000001193775,1.8840000000000146]",97,0,97,0,1
,,,,,,6019d1d736aef018625bb433,,,,,,6019d1d736aef018625bb433,Mężczyzna,19,2021-09-06_19h19.31.179,rantool2,2021.1.4,Win32,75.27286413,6135e006383e6ea6c3d06a28,61364d3af038004ca3de417e,,0,0,,98,0,98,0,1
,,,,,,6019d1d736aef018625bb433,,,,,,6019d1d736aef018625bb433,Mężczyzna,19,2021-09-06_19h19.31.179,rantool2,2021.1.4,Win32,75.27286413,6135e006383e6ea6c3d06a28,61364d3af038004ca3de417e,,"[""comma""]",0,[0.34789999997616405],99,0,99,0,1
,,,,,,6019d1d736aef018625bb433,,,,,,6019d1d736aef018625bb433,Mężczyzna,19,2021-09-06_19h19.31.179,rantool2,2021.1.4,Win32,75.27286413,6135e006383e6ea6c3d06a28,61364d3af038004ca3de417e,,"[""comma""]",0,[0.36000000000001364],100,0,100,0,1
,,,,,,6019d1d736aef018625bb433,,,,,,6019d1d736aef018625bb433,Mężczyzna,19,2021-09-06_19h19.31.179,rantool2,2021.1.4,Win32,75.27286413,6135e006383e6ea6c3d06a28,61364d3af038004ca3de417e,,"[""comma""]",0,[0.5410999999642172],101,0,101,0,1
,,,,,,6019d1d736aef018625bb433,,,,,,6019d1d736aef018625bb433,Mężczyzna,19,2021-09-06_19h19.31.179,rantool2,2021.1.4,Win32,75.27286413,6135e006383e6ea6c3d06a28,61364d3af038004ca3de417e,,"[""period""]",0,[0.2633000000119523],102,0,102,0,1
,,,,,,6019d1d736aef018625bb433,,,,,,6019d1d736aef018625bb433,Mężczyzna,19,2021-09-06_19h19.31.179,rantool2,2021.1.4,Win32,75.27286413,6135e006383e6ea6c3d06a28,61364d3af038004ca3de417e,,"[""period""]",0,[0.5366000000238387],103,0,103,0,1
,,,,,,6019d1d736aef018625bb433,,,,,,6019d1d736aef018625bb433,Mężczyzna,19,2021-09-06_19h19.31.179,rantool2,2021.1.4,Win32,75.27286413,6135e006383e6ea6c3d06a28,61364d3af038004ca3de417e,,"[""comma""]",0,[0.3381000000238146],104,0,104,0,1
,,,,,,6019d1d736aef018625bb433,,,,,,6019d1d736aef018625bb433,Mężczyzna,19,2021-09-06_19h19.31.179,rantool2,2021.1.4,Win32,75.27286413,6135e006383e6ea6c3d06a28,61364d3af038004ca3de417e,,"[""comma""]",0,[0.30049999999999955],105,0,105,0,1
,,,,,,6019d1d736aef018625bb433,,,,,,6019d1d736aef018625bb433,Mężczyzna,19,2021-09-06_19h19.31.179,rantool2,2021.1.4,Win32,75.27286413,6135e006383e6ea6c3d06a28,61364d3af038004ca3de417e,,"[""comma""]",0,[0.2886999999880686],106,0,106,0,1
,,,,,,6019d1d736aef018625bb433,,,,,,6019d1d736aef018625bb433,Mężczyzna,19,2021-09-06_19h19.31.179,rantool2,2021.1.4,Win32,75.27286413,6135e006383e6ea6c3d06a28,61364d3af038004ca3de417e,,"[""comma""]",0,[0.8857999999523258],107,0,107,0,1
,,,,,,6019d1d736aef018625bb433,,,,,,6019d1d736aef018625bb433,Mężczyzna,19,2021-09-06_19h19.31.179,rantool2,2021.1.4,Win32,75.27286413,6135e006383e6ea6c3d06a28,61364d3af038004ca3de417e,,"[""comma""]",0,[0.32650000000001],108,0,108,0,1
,,,,,,6019d1d736aef018625bb433,,,,,,6019d1d736aef018625bb433,Mężczyzna,19,2021-09-06_19h19.31.179,rantool2,2021.1.4,Win32,75.27286413,6135e006383e6ea6c3d06a28,61364d3af038004ca3de417e,,"[""period""]",0,[0.2610000000000241],109,0,109,0,1
,,,,,,6019d1d736aef018625bb433,,,,,,6019d1d736aef018625bb433,Mężczyzna,19,2021-09-06_19h19.31.179,rantool2,2021.1.4,Win32,75.27286413,6135e006383e6ea6c3d06a28,61364d3af038004ca3de417e,,"[""comma""]",0,[0.32239999997614177],110,0,110,0,1
,,,,,,6019d1d736aef018625bb433,,,,,,6019d1d736aef018625bb433,Mężczyzna,19,2021-09-06_19h19.31.179,rantool2,2021.1.4,Win32,75.27286413,6135e006383e6ea6c3d06a28,61364d3af038004ca3de417e,,"[""comma""]",0,[0.23269999998808544],111,0,111,0,1
,,,,,,6019d1d736aef018625bb433,,,,,,6019d1d736aef018625bb433,Mężczyzna,19,2021-09-06_19h19.31.179,rantool2,2021.1.4,Win32,75.27286413,6135e006383e6ea6c3d06a28,61364d3af038004ca3de417e,,"[""comma""]",0,[0.37069999998806225],112,0,112,0,1
,,,,,,6019d1d736aef018625bb433,,,,,,6019d1d736aef018625bb433,Mężczyzna,19,2021-09-06_19h19.31.179,rantool2,2021.1.4,Win32,75.27286413,6135e006383e6ea6c3d06a28,61364d3af038004ca3de417e,,"[""period""]",0,[0.2668000000119264],113,0,113,0,1
,,,,,,6019d1d736aef018625bb433,,,,,,6019d1d736aef018625bb433,Mężczyzna,19,2021-09-06_19h19.31.179,rantool2,2021.1.4,Win32,75.27286413,6135e006383e6ea6c3d06a28,61364d3af038004ca3de417e,,"[""period""]",0,[0.23550000000000182],114,0,114,0,1
,,,,,,6019d1d736aef018625bb433,,,,,,6019d1d736aef018625bb433,Mężczyzna,19,2021-09-06_19h19.31.179,rantool2,2021.1.4,Win32,75.27286413,6135e006383e6ea6c3d06a28,61364d3af038004ca3de417e,,"[""comma""]",0,[0.28350000000000364],115,0,115,0,1
,,,,,,6019d1d736aef018625bb433,,,,,,6019d1d736aef018625bb433,Mężczyzna,19,2021-09-06_19h19.31.179,rantool2,2021.1.4,Win32,75.27286413,6135e006383e6ea6c3d06a28,61364d3af038004ca3de417e,,"[""period""]",0,[0.2716999999880727],116,0,116,0,1
,,,,,,6019d1d736aef018625bb433,,,,,,6019d1d736aef018625bb433,Mężczyzna,19,2021-09-06_19h19.31.179,rantool2,2021.1.4,Win32,75.27286413,6135e006383e6ea6c3d06a28,61364d3af038004ca3de417e,,"[""period""]",0,[0.34789999997616405],117,0,117,0,1
,,,,,,6019d1d736aef018625bb433,,,,,,6019d1d736aef018625bb433,Mężczyzna,19,2021-09-06_19h19.31.179,rantool2,2021.1.4,Win32,75.27286413,6135e006383e6ea6c3d06a28,61364d3af038004ca3de417e,,"[""period""]",0,[0.3243999999761513],118,0,118,0,1
,,,,,,6019d1d736aef018625bb433,,,,,,6019d1d736aef018625bb433,Mężczyzna,19,2021-09-06_19h19.31.179,rantool2,2021.1.4,Win32,75.27286413,6135e006383e6ea6c3d06a28,61364d3af038004ca3de417e,,"[""period""]",0,[0.2950000000000159],119,0,119,0,1
