key_resp_5.keys,key_resp_5.corr,key_resp_5.rt,trials.thisRepN,trials.thisTrialN,trials.thisN,trials.thisIndex,trials.ran,id*,Płeć*,Wiek*,date,expName,psychopyVersion,OS,frameRate,id,STUDY_ID,SESSION_ID,key_resp_7.keys,trials_2.thisRepN,trials_2.thisTrialN,trials_2.thisN,trials_2.thisIndex,trials_2.ran,series_0,series_1,acss_0,acss_1,comparison,key_resp_7.rt
0,,,0,0,0,0,1,5bad37d57d443700016cf598,Mężczyzna,34,2021-07-13_21h51.47.549,rantool2,2021.1.4,Win32,58.99705015,5bad37d57d443700016cf598,60d9d14f4a8a35a482e0d9bf,60edecf2dfeb26f2a00b448e,,,,,,,,,,,,
"[""period""]",0,[0.6004000000953056],1,0,1,0,1,5bad37d57d443700016cf598,Mężczyzna,34,2021-07-13_21h51.47.549,rantool2,2021.1.4,Win32,58.99705015,5bad37d57d443700016cf598,60d9d14f4a8a35a482e0d9bf,60edecf2dfeb26f2a00b448e,,,,,,,,,,,,
"[""comma""]",0,[0.46020000004773465],2,0,2,0,1,5bad37d57d443700016cf598,Mężczyzna,34,2021-07-13_21h51.47.549,rantool2,2021.1.4,Win32,58.99705015,5bad37d57d443700016cf598,60d9d14f4a8a35a482e0d9bf,60edecf2dfeb26f2a00b448e,,,,,,,,,,,,
"[""period""]",0,[0.5059999999999718],3,0,3,0,1,5bad37d57d443700016cf598,Mężczyzna,34,2021-07-13_21h51.47.549,rantool2,2021.1.4,Win32,58.99705015,5bad37d57d443700016cf598,60d9d14f4a8a35a482e0d9bf,60edecf2dfeb26f2a00b448e,,,,,,,,,,,,
"[""comma""]",0,[0.45879999995236176],4,0,4,0,1,5bad37d57d443700016cf598,Mężczyzna,34,2021-07-13_21h51.47.549,rantool2,2021.1.4,Win32,58.99705015,5bad37d57d443700016cf598,60d9d14f4a8a35a482e0d9bf,60edecf2dfeb26f2a00b448e,,,,,,,,,,,,
"[""period""]",0,[0.28329999995230537],5,0,5,0,1,5bad37d57d443700016cf598,Mężczyzna,34,2021-07-13_21h51.47.549,rantool2,2021.1.4,Win32,58.99705015,5bad37d57d443700016cf598,60d9d14f4a8a35a482e0d9bf,60edecf2dfeb26f2a00b448e,,,,,,,,,,,,
"[""comma"",""period""]",0,"[0.23419999980933426,1.686599999904729]",6,0,6,0,1,5bad37d57d443700016cf598,Mężczyzna,34,2021-07-13_21h51.47.549,rantool2,2021.1.4,Win32,58.99705015,5bad37d57d443700016cf598,60d9d14f4a8a35a482e0d9bf,60edecf2dfeb26f2a00b448e,,,,,,,,,,,,
"[""comma""]",0,[1.3679000000953465],7,0,7,0,1,5bad37d57d443700016cf598,Mężczyzna,34,2021-07-13_21h51.47.549,rantool2,2021.1.4,Win32,58.99705015,5bad37d57d443700016cf598,60d9d14f4a8a35a482e0d9bf,60edecf2dfeb26f2a00b448e,,,,,,,,,,,,
0,0,,8,0,8,0,1,5bad37d57d443700016cf598,Mężczyzna,34,2021-07-13_21h51.47.549,rantool2,2021.1.4,Win32,58.99705015,5bad37d57d443700016cf598,60d9d14f4a8a35a482e0d9bf,60edecf2dfeb26f2a00b448e,,,,,,,,,,,,
"[""period""]",0,[0.2385999999046362],9,0,9,0,1,5bad37d57d443700016cf598,Mężczyzna,34,2021-07-13_21h51.47.549,rantool2,2021.1.4,Win32,58.99705015,5bad37d57d443700016cf598,60d9d14f4a8a35a482e0d9bf,60edecf2dfeb26f2a00b448e,,,,,,,,,,,,
"[""period""]",0,[0.23309999990465258],10,0,10,0,1,5bad37d57d443700016cf598,Mężczyzna,34,2021-07-13_21h51.47.549,rantool2,2021.1.4,Win32,58.99705015,5bad37d57d443700016cf598,60d9d14f4a8a35a482e0d9bf,60edecf2dfeb26f2a00b448e,,,,,,,,,,,,
"[""comma""]",0,[0.2172000000476828],11,0,11,0,1,5bad37d57d443700016cf598,Mężczyzna,34,2021-07-13_21h51.47.549,rantool2,2021.1.4,Win32,58.99705015,5bad37d57d443700016cf598,60d9d14f4a8a35a482e0d9bf,60edecf2dfeb26f2a00b448e,,,,,,,,,,,,
"[""comma""]",0,[0.21140000009540927],12,0,12,0,1,5bad37d57d443700016cf598,Mężczyzna,34,2021-07-13_21h51.47.549,rantool2,2021.1.4,Win32,58.99705015,5bad37d57d443700016cf598,60d9d14f4a8a35a482e0d9bf,60edecf2dfeb26f2a00b448e,,,,,,,,,,,,
"[""period""]",0,[0.1176000001430566],13,0,13,0,1,5bad37d57d443700016cf598,Mężczyzna,34,2021-07-13_21h51.47.549,rantool2,2021.1.4,Win32,58.99705015,5bad37d57d443700016cf598,60d9d14f4a8a35a482e0d9bf,60edecf2dfeb26f2a00b448e,,,,,,,,,,,,
"[""comma""]",0,[0.18829999995227809],14,0,14,0,1,5bad37d57d443700016cf598,Mężczyzna,34,2021-07-13_21h51.47.549,rantool2,2021.1.4,Win32,58.99705015,5bad37d57d443700016cf598,60d9d14f4a8a35a482e0d9bf,60edecf2dfeb26f2a00b448e,,,,,,,,,,,,
"[""period""]",0,[0.0567999999523181],15,0,15,0,1,5bad37d57d443700016cf598,Mężczyzna,34,2021-07-13_21h51.47.549,rantool2,2021.1.4,Win32,58.99705015,5bad37d57d443700016cf598,60d9d14f4a8a35a482e0d9bf,60edecf2dfeb26f2a00b448e,,,,,,,,,,,,
"[""comma""]",0,[0.20869999980925513],16,0,16,0,1,5bad37d57d443700016cf598,Mężczyzna,34,2021-07-13_21h51.47.549,rantool2,2021.1.4,Win32,58.99705015,5bad37d57d443700016cf598,60d9d14f4a8a35a482e0d9bf,60edecf2dfeb26f2a00b448e,,,,,,,,,,,,
"[""period""]",0,[0.20070000004773192],17,0,17,0,1,5bad37d57d443700016cf598,Mężczyzna,34,2021-07-13_21h51.47.549,rantool2,2021.1.4,Win32,58.99705015,5bad37d57d443700016cf598,60d9d14f4a8a35a482e0d9bf,60edecf2dfeb26f2a00b448e,,,,,,,,,,,,
"[""period""]",0,[0.36720000004766007],18,0,18,0,1,5bad37d57d443700016cf598,Mężczyzna,34,2021-07-13_21h51.47.549,rantool2,2021.1.4,Win32,58.99705015,5bad37d57d443700016cf598,60d9d14f4a8a35a482e0d9bf,60edecf2dfeb26f2a00b448e,,,,,,,,,,,,
"[""comma""]",0,[0.20170000004770827],19,0,19,0,1,5bad37d57d443700016cf598,Mężczyzna,34,2021-07-13_21h51.47.549,rantool2,2021.1.4,Win32,58.99705015,5bad37d57d443700016cf598,60d9d14f4a8a35a482e0d9bf,60edecf2dfeb26f2a00b448e,,,,,,,,,,,,
"[""period"",""comma""]",0,"[0.008600000143133002,1.8997999999523927]",20,0,20,0,1,5bad37d57d443700016cf598,Mężczyzna,34,2021-07-13_21h51.47.549,rantool2,2021.1.4,Win32,58.99705015,5bad37d57d443700016cf598,60d9d14f4a8a35a482e0d9bf,60edecf2dfeb26f2a00b448e,,,,,,,,,,,,
"[""period""]",0,[1.7192999999523408],21,0,21,0,1,5bad37d57d443700016cf598,Mężczyzna,34,2021-07-13_21h51.47.549,rantool2,2021.1.4,Win32,58.99705015,5bad37d57d443700016cf598,60d9d14f4a8a35a482e0d9bf,60edecf2dfeb26f2a00b448e,,,,,,,,,,,,
0,0,,22,0,22,0,1,5bad37d57d443700016cf598,Mężczyzna,34,2021-07-13_21h51.47.549,rantool2,2021.1.4,Win32,58.99705015,5bad37d57d443700016cf598,60d9d14f4a8a35a482e0d9bf,60edecf2dfeb26f2a00b448e,,,,,,,,,,,,
"[""comma""]",0,[0.2531000001430357],23,0,23,0,1,5bad37d57d443700016cf598,Mężczyzna,34,2021-07-13_21h51.47.549,rantool2,2021.1.4,Win32,58.99705015,5bad37d57d443700016cf598,60d9d14f4a8a35a482e0d9bf,60edecf2dfeb26f2a00b448e,,,,,,,,,,,,
"[""period""]",0,[0.22979999995231992],24,0,24,0,1,5bad37d57d443700016cf598,Mężczyzna,34,2021-07-13_21h51.47.549,rantool2,2021.1.4,Win32,58.99705015,5bad37d57d443700016cf598,60d9d14f4a8a35a482e0d9bf,60edecf2dfeb26f2a00b448e,,,,,,,,,,,,
"[""comma""]",0,[0.22729999995226535],25,0,25,0,1,5bad37d57d443700016cf598,Mężczyzna,34,2021-07-13_21h51.47.549,rantool2,2021.1.4,Win32,58.99705015,5bad37d57d443700016cf598,60d9d14f4a8a35a482e0d9bf,60edecf2dfeb26f2a00b448e,,,,,,,,,,,,
"[""period""]",0,[0.2502999999524036],26,0,26,0,1,5bad37d57d443700016cf598,Mężczyzna,34,2021-07-13_21h51.47.549,rantool2,2021.1.4,Win32,58.99705015,5bad37d57d443700016cf598,60d9d14f4a8a35a482e0d9bf,60edecf2dfeb26f2a00b448e,,,,,,,,,,,,
"[""comma""]",0,[0.24149999999997362],27,0,27,0,1,5bad37d57d443700016cf598,Mężczyzna,34,2021-07-13_21h51.47.549,rantool2,2021.1.4,Win32,58.99705015,5bad37d57d443700016cf598,60d9d14f4a8a35a482e0d9bf,60edecf2dfeb26f2a00b448e,,,,,,,,,,,,
"[""period""]",0,[0.25130000019078125],28,0,28,0,1,5bad37d57d443700016cf598,Mężczyzna,34,2021-07-13_21h51.47.549,rantool2,2021.1.4,Win32,58.99705015,5bad37d57d443700016cf598,60d9d14f4a8a35a482e0d9bf,60edecf2dfeb26f2a00b448e,,,,,,,,,,,,
"[""comma""]",0,[0.23510000014312027],29,0,29,0,1,5bad37d57d443700016cf598,Mężczyzna,34,2021-07-13_21h51.47.549,rantool2,2021.1.4,Win32,58.99705015,5bad37d57d443700016cf598,60d9d14f4a8a35a482e0d9bf,60edecf2dfeb26f2a00b448e,,,,,,,,,,,,
"[""period""]",0,[0.1380999999046253],30,0,30,0,1,5bad37d57d443700016cf598,Mężczyzna,34,2021-07-13_21h51.47.549,rantool2,2021.1.4,Win32,58.99705015,5bad37d57d443700016cf598,60d9d14f4a8a35a482e0d9bf,60edecf2dfeb26f2a00b448e,,,,,,,,,,,,
"[""comma""]",0,[0.20050000000003365],31,0,31,0,1,5bad37d57d443700016cf598,Mężczyzna,34,2021-07-13_21h51.47.549,rantool2,2021.1.4,Win32,58.99705015,5bad37d57d443700016cf598,60d9d14f4a8a35a482e0d9bf,60edecf2dfeb26f2a00b448e,,,,,,,,,,,,
"[""period""]",0,[0.2217999999523954],32,0,32,0,1,5bad37d57d443700016cf598,Mężczyzna,34,2021-07-13_21h51.47.549,rantool2,2021.1.4,Win32,58.99705015,5bad37d57d443700016cf598,60d9d14f4a8a35a482e0d9bf,60edecf2dfeb26f2a00b448e,,,,,,,,,,,,
"[""comma""]",0,[0.24960000014311845],33,0,33,0,1,5bad37d57d443700016cf598,Mężczyzna,34,2021-07-13_21h51.47.549,rantool2,2021.1.4,Win32,58.99705015,5bad37d57d443700016cf598,60d9d14f4a8a35a482e0d9bf,60edecf2dfeb26f2a00b448e,,,,,,,,,,,,
"[""period""]",0,[0.24279999995235357],34,0,34,0,1,5bad37d57d443700016cf598,Mężczyzna,34,2021-07-13_21h51.47.549,rantool2,2021.1.4,Win32,58.99705015,5bad37d57d443700016cf598,60d9d14f4a8a35a482e0d9bf,60edecf2dfeb26f2a00b448e,,,,,,,,,,,,
"[""comma""]",0,[0.023200000047722824],35,0,35,0,1,5bad37d57d443700016cf598,Mężczyzna,34,2021-07-13_21h51.47.549,rantool2,2021.1.4,Win32,58.99705015,5bad37d57d443700016cf598,60d9d14f4a8a35a482e0d9bf,60edecf2dfeb26f2a00b448e,,,,,,,,,,,,
"[""period""]",0,[0.03420000004769008],36,0,36,0,1,5bad37d57d443700016cf598,Mężczyzna,34,2021-07-13_21h51.47.549,rantool2,2021.1.4,Win32,58.99705015,5bad37d57d443700016cf598,60d9d14f4a8a35a482e0d9bf,60edecf2dfeb26f2a00b448e,,,,,,,,,,,,
"[""comma""]",0,[0.30150000000003274],37,0,37,0,1,5bad37d57d443700016cf598,Mężczyzna,34,2021-07-13_21h51.47.549,rantool2,2021.1.4,Win32,58.99705015,5bad37d57d443700016cf598,60d9d14f4a8a35a482e0d9bf,60edecf2dfeb26f2a00b448e,,,,,,,,,,,,
"[""period""]",0,[0.21740000009538107],38,0,38,0,1,5bad37d57d443700016cf598,Mężczyzna,34,2021-07-13_21h51.47.549,rantool2,2021.1.4,Win32,58.99705015,5bad37d57d443700016cf598,60d9d14f4a8a35a482e0d9bf,60edecf2dfeb26f2a00b448e,,,,,,,,,,,,
"[""comma"",""period""]",0,"[0.23620000004768826,1.9334000000953893]",39,0,39,0,1,5bad37d57d443700016cf598,Mężczyzna,34,2021-07-13_21h51.47.549,rantool2,2021.1.4,Win32,58.99705015,5bad37d57d443700016cf598,60d9d14f4a8a35a482e0d9bf,60edecf2dfeb26f2a00b448e,,,,,,,,,,,,
0,0,,40,0,40,0,1,5bad37d57d443700016cf598,Mężczyzna,34,2021-07-13_21h51.47.549,rantool2,2021.1.4,Win32,58.99705015,5bad37d57d443700016cf598,60d9d14f4a8a35a482e0d9bf,60edecf2dfeb26f2a00b448e,,,,,,,,,,,,
"[""comma""]",0,[0.2179999999999609],41,0,41,0,1,5bad37d57d443700016cf598,Mężczyzna,34,2021-07-13_21h51.47.549,rantool2,2021.1.4,Win32,58.99705015,5bad37d57d443700016cf598,60d9d14f4a8a35a482e0d9bf,60edecf2dfeb26f2a00b448e,,,,,,,,,,,,
"[""period""]",0,[0.23609999990469532],42,0,42,0,1,5bad37d57d443700016cf598,Mężczyzna,34,2021-07-13_21h51.47.549,rantool2,2021.1.4,Win32,58.99705015,5bad37d57d443700016cf598,60d9d14f4a8a35a482e0d9bf,60edecf2dfeb26f2a00b448e,,,,,,,,,,,,
"[""comma""]",0,[0.3107999999523372],43,0,43,0,1,5bad37d57d443700016cf598,Mężczyzna,34,2021-07-13_21h51.47.549,rantool2,2021.1.4,Win32,58.99705015,5bad37d57d443700016cf598,60d9d14f4a8a35a482e0d9bf,60edecf2dfeb26f2a00b448e,,,,,,,,,,,,
"[""period""]",0,[0.35370000004775193],44,0,44,0,1,5bad37d57d443700016cf598,Mężczyzna,34,2021-07-13_21h51.47.549,rantool2,2021.1.4,Win32,58.99705015,5bad37d57d443700016cf598,60d9d14f4a8a35a482e0d9bf,60edecf2dfeb26f2a00b448e,,,,,,,,,,,,
"[""comma""]",0,[0.2580000000000382],45,0,45,0,1,5bad37d57d443700016cf598,Mężczyzna,34,2021-07-13_21h51.47.549,rantool2,2021.1.4,Win32,58.99705015,5bad37d57d443700016cf598,60d9d14f4a8a35a482e0d9bf,60edecf2dfeb26f2a00b448e,,,,,,,,,,,,
"[""period""]",0,[0.2368999998569734],46,0,46,0,1,5bad37d57d443700016cf598,Mężczyzna,34,2021-07-13_21h51.47.549,rantool2,2021.1.4,Win32,58.99705015,5bad37d57d443700016cf598,60d9d14f4a8a35a482e0d9bf,60edecf2dfeb26f2a00b448e,,,,,,,,,,,,
"[""comma""]",0,[0.21730000019078943],47,0,47,0,1,5bad37d57d443700016cf598,Mężczyzna,34,2021-07-13_21h51.47.549,rantool2,2021.1.4,Win32,58.99705015,5bad37d57d443700016cf598,60d9d14f4a8a35a482e0d9bf,60edecf2dfeb26f2a00b448e,,,,,,,,,,,,
"[""period""]",0,[0.11700000000007549],48,0,48,0,1,5bad37d57d443700016cf598,Mężczyzna,34,2021-07-13_21h51.47.549,rantool2,2021.1.4,Win32,58.99705015,5bad37d57d443700016cf598,60d9d14f4a8a35a482e0d9bf,60edecf2dfeb26f2a00b448e,,,,,,,,,,,,
"[""comma""]",0,[0.3332999999522599],49,0,49,0,1,5bad37d57d443700016cf598,Mężczyzna,34,2021-07-13_21h51.47.549,rantool2,2021.1.4,Win32,58.99705015,5bad37d57d443700016cf598,60d9d14f4a8a35a482e0d9bf,60edecf2dfeb26f2a00b448e,,,,,,,,,,,,
"[""period""]",0,[0.23470000004772373],50,0,50,0,1,5bad37d57d443700016cf598,Mężczyzna,34,2021-07-13_21h51.47.549,rantool2,2021.1.4,Win32,58.99705015,5bad37d57d443700016cf598,60d9d14f4a8a35a482e0d9bf,60edecf2dfeb26f2a00b448e,,,,,,,,,,,,
"[""comma""]",0,[0.22810000014305842],51,0,51,0,1,5bad37d57d443700016cf598,Mężczyzna,34,2021-07-13_21h51.47.549,rantool2,2021.1.4,Win32,58.99705015,5bad37d57d443700016cf598,60d9d14f4a8a35a482e0d9bf,60edecf2dfeb26f2a00b448e,,,,,,,,,,,,
"[""period""]",0,[0.04949999999996635],52,0,52,0,1,5bad37d57d443700016cf598,Mężczyzna,34,2021-07-13_21h51.47.549,rantool2,2021.1.4,Win32,58.99705015,5bad37d57d443700016cf598,60d9d14f4a8a35a482e0d9bf,60edecf2dfeb26f2a00b448e,,,,,,,,,,,,
"[""comma""]",0,[0.23329999995235084],53,0,53,0,1,5bad37d57d443700016cf598,Mężczyzna,34,2021-07-13_21h51.47.549,rantool2,2021.1.4,Win32,58.99705015,5bad37d57d443700016cf598,60d9d14f4a8a35a482e0d9bf,60edecf2dfeb26f2a00b448e,,,,,,,,,,,,
"[""period""]",0,[0.20840000009536652],54,0,54,0,1,5bad37d57d443700016cf598,Mężczyzna,34,2021-07-13_21h51.47.549,rantool2,2021.1.4,Win32,58.99705015,5bad37d57d443700016cf598,60d9d14f4a8a35a482e0d9bf,60edecf2dfeb26f2a00b448e,,,,,,,,,,,,
"[""comma""]",0,[0.06950000000006185],55,0,55,0,1,5bad37d57d443700016cf598,Mężczyzna,34,2021-07-13_21h51.47.549,rantool2,2021.1.4,Win32,58.99705015,5bad37d57d443700016cf598,60d9d14f4a8a35a482e0d9bf,60edecf2dfeb26f2a00b448e,,,,,,,,,,,,
"[""period""]",0,[0.04390000009527739],56,0,56,0,1,5bad37d57d443700016cf598,Mężczyzna,34,2021-07-13_21h51.47.549,rantool2,2021.1.4,Win32,58.99705015,5bad37d57d443700016cf598,60d9d14f4a8a35a482e0d9bf,60edecf2dfeb26f2a00b448e,,,,,,,,,,,,
"[""comma""]",0,[0.2998999998569616],57,0,57,0,1,5bad37d57d443700016cf598,Mężczyzna,34,2021-07-13_21h51.47.549,rantool2,2021.1.4,Win32,58.99705015,5bad37d57d443700016cf598,60d9d14f4a8a35a482e0d9bf,60edecf2dfeb26f2a00b448e,,,,,,,,,,,,
"[""period""]",0,[0.39049999999997453],58,0,58,0,1,5bad37d57d443700016cf598,Mężczyzna,34,2021-07-13_21h51.47.549,rantool2,2021.1.4,Win32,58.99705015,5bad37d57d443700016cf598,60d9d14f4a8a35a482e0d9bf,60edecf2dfeb26f2a00b448e,,,,,,,,,,,,
"[""period""]",0,[0.2664999999999509],59,0,59,0,1,5bad37d57d443700016cf598,Mężczyzna,34,2021-07-13_21h51.47.549,rantool2,2021.1.4,Win32,58.99705015,5bad37d57d443700016cf598,60d9d14f4a8a35a482e0d9bf,60edecf2dfeb26f2a00b448e,,,,,,,,,,,,
"[""comma""]",0,[0.2757000000476637],60,0,60,0,1,5bad37d57d443700016cf598,Mężczyzna,34,2021-07-13_21h51.47.549,rantool2,2021.1.4,Win32,58.99705015,5bad37d57d443700016cf598,60d9d14f4a8a35a482e0d9bf,60edecf2dfeb26f2a00b448e,,,,,,,,,,,,
"[""period""]",0,[0.2534000000953256],61,0,61,0,1,5bad37d57d443700016cf598,Mężczyzna,34,2021-07-13_21h51.47.549,rantool2,2021.1.4,Win32,58.99705015,5bad37d57d443700016cf598,60d9d14f4a8a35a482e0d9bf,60edecf2dfeb26f2a00b448e,,,,,,,,,,,,
"[""comma""]",0,[0.14220000004775102],62,0,62,0,1,5bad37d57d443700016cf598,Mężczyzna,34,2021-07-13_21h51.47.549,rantool2,2021.1.4,Win32,58.99705015,5bad37d57d443700016cf598,60d9d14f4a8a35a482e0d9bf,60edecf2dfeb26f2a00b448e,,,,,,,,,,,,
"[""period""]",0,[0.22649999999998727],63,0,63,0,1,5bad37d57d443700016cf598,Mężczyzna,34,2021-07-13_21h51.47.549,rantool2,2021.1.4,Win32,58.99705015,5bad37d57d443700016cf598,60d9d14f4a8a35a482e0d9bf,60edecf2dfeb26f2a00b448e,,,,,,,,,,,,
"[""comma""]",0,[0.2664999999999509],64,0,64,0,1,5bad37d57d443700016cf598,Mężczyzna,34,2021-07-13_21h51.47.549,rantool2,2021.1.4,Win32,58.99705015,5bad37d57d443700016cf598,60d9d14f4a8a35a482e0d9bf,60edecf2dfeb26f2a00b448e,,,,,,,,,,,,
"[""period""]",0,[0.24390000009532287],65,0,65,0,1,5bad37d57d443700016cf598,Mężczyzna,34,2021-07-13_21h51.47.549,rantool2,2021.1.4,Win32,58.99705015,5bad37d57d443700016cf598,60d9d14f4a8a35a482e0d9bf,60edecf2dfeb26f2a00b448e,,,,,,,,,,,,
"[""comma""]",0,[0.2757000000476637],66,0,66,0,1,5bad37d57d443700016cf598,Mężczyzna,34,2021-07-13_21h51.47.549,rantool2,2021.1.4,Win32,58.99705015,5bad37d57d443700016cf598,60d9d14f4a8a35a482e0d9bf,60edecf2dfeb26f2a00b448e,,,,,,,,,,,,
"[""period""]",0,[0.2674000000953356],67,0,67,0,1,5bad37d57d443700016cf598,Mężczyzna,34,2021-07-13_21h51.47.549,rantool2,2021.1.4,Win32,58.99705015,5bad37d57d443700016cf598,60d9d14f4a8a35a482e0d9bf,60edecf2dfeb26f2a00b448e,,,,,,,,,,,,
"[""comma""]",0,[0.2992999999522681],68,0,68,0,1,5bad37d57d443700016cf598,Mężczyzna,34,2021-07-13_21h51.47.549,rantool2,2021.1.4,Win32,58.99705015,5bad37d57d443700016cf598,60d9d14f4a8a35a482e0d9bf,60edecf2dfeb26f2a00b448e,,,,,,,,,,,,
"[""period""]",0,[0.2508000001906794],69,0,69,0,1,5bad37d57d443700016cf598,Mężczyzna,34,2021-07-13_21h51.47.549,rantool2,2021.1.4,Win32,58.99705015,5bad37d57d443700016cf598,60d9d14f4a8a35a482e0d9bf,60edecf2dfeb26f2a00b448e,,,,,,,,,,,,
"[""comma""]",0,[0.2394000000953156],70,0,70,0,1,5bad37d57d443700016cf598,Mężczyzna,34,2021-07-13_21h51.47.549,rantool2,2021.1.4,Win32,58.99705015,5bad37d57d443700016cf598,60d9d14f4a8a35a482e0d9bf,60edecf2dfeb26f2a00b448e,,,,,,,,,,,,
"[""period""]",0,[0.2340000000000373],71,0,71,0,1,5bad37d57d443700016cf598,Mężczyzna,34,2021-07-13_21h51.47.549,rantool2,2021.1.4,Win32,58.99705015,5bad37d57d443700016cf598,60d9d14f4a8a35a482e0d9bf,60edecf2dfeb26f2a00b448e,,,,,,,,,,,,
"[""comma""]",0,[0.327599999904578],72,0,72,0,1,5bad37d57d443700016cf598,Mężczyzna,34,2021-07-13_21h51.47.549,rantool2,2021.1.4,Win32,58.99705015,5bad37d57d443700016cf598,60d9d14f4a8a35a482e0d9bf,60edecf2dfeb26f2a00b448e,,,,,,,,,,,,
"[""period""]",0,[0.35149999999998727],73,0,73,0,1,5bad37d57d443700016cf598,Mężczyzna,34,2021-07-13_21h51.47.549,rantool2,2021.1.4,Win32,58.99705015,5bad37d57d443700016cf598,60d9d14f4a8a35a482e0d9bf,60edecf2dfeb26f2a00b448e,,,,,,,,,,,,
"[""comma""]",0,[0.21879999995235266],74,0,74,0,1,5bad37d57d443700016cf598,Mężczyzna,34,2021-07-13_21h51.47.549,rantool2,2021.1.4,Win32,58.99705015,5bad37d57d443700016cf598,60d9d14f4a8a35a482e0d9bf,60edecf2dfeb26f2a00b448e,,,,,,,,,,,,
"[""period""]",0,[0.2442999999523181],75,0,75,0,1,5bad37d57d443700016cf598,Mężczyzna,34,2021-07-13_21h51.47.549,rantool2,2021.1.4,Win32,58.99705015,5bad37d57d443700016cf598,60d9d14f4a8a35a482e0d9bf,60edecf2dfeb26f2a00b448e,,,,,,,,,,,,
"[""comma""]",0,[0.2519999999999527],76,0,76,0,1,5bad37d57d443700016cf598,Mężczyzna,34,2021-07-13_21h51.47.549,rantool2,2021.1.4,Win32,58.99705015,5bad37d57d443700016cf598,60d9d14f4a8a35a482e0d9bf,60edecf2dfeb26f2a00b448e,,,,,,,,,,,,
"[""period""]",0,[0.2899999999999636],77,0,77,0,1,5bad37d57d443700016cf598,Mężczyzna,34,2021-07-13_21h51.47.549,rantool2,2021.1.4,Win32,58.99705015,5bad37d57d443700016cf598,60d9d14f4a8a35a482e0d9bf,60edecf2dfeb26f2a00b448e,,,,,,,,,,,,
"[""comma""]",0,[0.2171999998092815],78,0,78,0,1,5bad37d57d443700016cf598,Mężczyzna,34,2021-07-13_21h51.47.549,rantool2,2021.1.4,Win32,58.99705015,5bad37d57d443700016cf598,60d9d14f4a8a35a482e0d9bf,60edecf2dfeb26f2a00b448e,,,,,,,,,,,,
"[""period""]",0,[0.23379999995233902],79,0,79,0,1,5bad37d57d443700016cf598,Mężczyzna,34,2021-07-13_21h51.47.549,rantool2,2021.1.4,Win32,58.99705015,5bad37d57d443700016cf598,60d9d14f4a8a35a482e0d9bf,60edecf2dfeb26f2a00b448e,,,,,,,,,,,,
"[""comma""]",0,[0.24499999999989086],80,0,80,0,1,5bad37d57d443700016cf598,Mężczyzna,34,2021-07-13_21h51.47.549,rantool2,2021.1.4,Win32,58.99705015,5bad37d57d443700016cf598,60d9d14f4a8a35a482e0d9bf,60edecf2dfeb26f2a00b448e,,,,,,,,,,,,
"[""period""]",0,[0.2837000000477019],81,0,81,0,1,5bad37d57d443700016cf598,Mężczyzna,34,2021-07-13_21h51.47.549,rantool2,2021.1.4,Win32,58.99705015,5bad37d57d443700016cf598,60d9d14f4a8a35a482e0d9bf,60edecf2dfeb26f2a00b448e,,,,,,,,,,,,
"[""comma""]",0,[0.2335000000000491],82,0,82,0,1,5bad37d57d443700016cf598,Mężczyzna,34,2021-07-13_21h51.47.549,rantool2,2021.1.4,Win32,58.99705015,5bad37d57d443700016cf598,60d9d14f4a8a35a482e0d9bf,60edecf2dfeb26f2a00b448e,,,,,,,,,,,,
"[""period""]",0,[0.3723999998569525],83,0,83,0,1,5bad37d57d443700016cf598,Mężczyzna,34,2021-07-13_21h51.47.549,rantool2,2021.1.4,Win32,58.99705015,5bad37d57d443700016cf598,60d9d14f4a8a35a482e0d9bf,60edecf2dfeb26f2a00b448e,,,,,,,,,,,,
"[""comma""]",0,[0.2506000001430948],84,0,84,0,1,5bad37d57d443700016cf598,Mężczyzna,34,2021-07-13_21h51.47.549,rantool2,2021.1.4,Win32,58.99705015,5bad37d57d443700016cf598,60d9d14f4a8a35a482e0d9bf,60edecf2dfeb26f2a00b448e,,,,,,,,,,,,
"[""comma""]",0,[0.22240000009537653],85,0,85,0,1,5bad37d57d443700016cf598,Mężczyzna,34,2021-07-13_21h51.47.549,rantool2,2021.1.4,Win32,58.99705015,5bad37d57d443700016cf598,60d9d14f4a8a35a482e0d9bf,60edecf2dfeb26f2a00b448e,,,,,,,,,,,,
"[""period""]",0,[0.2587999999523163],86,0,86,0,1,5bad37d57d443700016cf598,Mężczyzna,34,2021-07-13_21h51.47.549,rantool2,2021.1.4,Win32,58.99705015,5bad37d57d443700016cf598,60d9d14f4a8a35a482e0d9bf,60edecf2dfeb26f2a00b448e,,,,,,,,,,,,
"[""comma""]",0,[0.28209999990463075],87,0,87,0,1,5bad37d57d443700016cf598,Mężczyzna,34,2021-07-13_21h51.47.549,rantool2,2021.1.4,Win32,58.99705015,5bad37d57d443700016cf598,60d9d14f4a8a35a482e0d9bf,60edecf2dfeb26f2a00b448e,,,,,,,,,,,,
"[""period""]",0,[0.26870000004760186],88,0,88,0,1,5bad37d57d443700016cf598,Mężczyzna,34,2021-07-13_21h51.47.549,rantool2,2021.1.4,Win32,58.99705015,5bad37d57d443700016cf598,60d9d14f4a8a35a482e0d9bf,60edecf2dfeb26f2a00b448e,,,,,,,,,,,,
"[""comma""]",0,[0.22020000004772555],89,0,89,0,1,5bad37d57d443700016cf598,Mężczyzna,34,2021-07-13_21h51.47.549,rantool2,2021.1.4,Win32,58.99705015,5bad37d57d443700016cf598,60d9d14f4a8a35a482e0d9bf,60edecf2dfeb26f2a00b448e,,,,,,,,,,,,
"[""period""]",0,[0.2195000000000391],90,0,90,0,1,5bad37d57d443700016cf598,Mężczyzna,34,2021-07-13_21h51.47.549,rantool2,2021.1.4,Win32,58.99705015,5bad37d57d443700016cf598,60d9d14f4a8a35a482e0d9bf,60edecf2dfeb26f2a00b448e,,,,,,,,,,,,
"[""comma""]",0,[0.22160000014309844],91,0,91,0,1,5bad37d57d443700016cf598,Mężczyzna,34,2021-07-13_21h51.47.549,rantool2,2021.1.4,Win32,58.99705015,5bad37d57d443700016cf598,60d9d14f4a8a35a482e0d9bf,60edecf2dfeb26f2a00b448e,,,,,,,,,,,,
"[""period""]",0,[0.24479999995230628],92,0,92,0,1,5bad37d57d443700016cf598,Mężczyzna,34,2021-07-13_21h51.47.549,rantool2,2021.1.4,Win32,58.99705015,5bad37d57d443700016cf598,60d9d14f4a8a35a482e0d9bf,60edecf2dfeb26f2a00b448e,,,,,,,,,,,,
"[""comma""]",0,[0.21749999999997272],93,0,93,0,1,5bad37d57d443700016cf598,Mężczyzna,34,2021-07-13_21h51.47.549,rantool2,2021.1.4,Win32,58.99705015,5bad37d57d443700016cf598,60d9d14f4a8a35a482e0d9bf,60edecf2dfeb26f2a00b448e,,,,,,,,,,,,
"[""period""]",0,[0.2340000000000373],94,0,94,0,1,5bad37d57d443700016cf598,Mężczyzna,34,2021-07-13_21h51.47.549,rantool2,2021.1.4,Win32,58.99705015,5bad37d57d443700016cf598,60d9d14f4a8a35a482e0d9bf,60edecf2dfeb26f2a00b448e,,,,,,,,,,,,
"[""comma""]",0,[0.22270000004766644],95,0,95,0,1,5bad37d57d443700016cf598,Mężczyzna,34,2021-07-13_21h51.47.549,rantool2,2021.1.4,Win32,58.99705015,5bad37d57d443700016cf598,60d9d14f4a8a35a482e0d9bf,60edecf2dfeb26f2a00b448e,,,,,,,,,,,,
"[""period""]",0,[0.26759999990463257],96,0,96,0,1,5bad37d57d443700016cf598,Mężczyzna,34,2021-07-13_21h51.47.549,rantool2,2021.1.4,Win32,58.99705015,5bad37d57d443700016cf598,60d9d14f4a8a35a482e0d9bf,60edecf2dfeb26f2a00b448e,,,,,,,,,,,,
"[""comma""]",0,[0.21729999995227445],97,0,97,0,1,5bad37d57d443700016cf598,Mężczyzna,34,2021-07-13_21h51.47.549,rantool2,2021.1.4,Win32,58.99705015,5bad37d57d443700016cf598,60d9d14f4a8a35a482e0d9bf,60edecf2dfeb26f2a00b448e,,,,,,,,,,,,
"[""period""]",0,[0.2442999999523181],98,0,98,0,1,5bad37d57d443700016cf598,Mężczyzna,34,2021-07-13_21h51.47.549,rantool2,2021.1.4,Win32,58.99705015,5bad37d57d443700016cf598,60d9d14f4a8a35a482e0d9bf,60edecf2dfeb26f2a00b448e,,,,,,,,,,,,
"[""period""]",0,[0.2504999999999882],99,0,99,0,1,5bad37d57d443700016cf598,Mężczyzna,34,2021-07-13_21h51.47.549,rantool2,2021.1.4,Win32,58.99705015,5bad37d57d443700016cf598,60d9d14f4a8a35a482e0d9bf,60edecf2dfeb26f2a00b448e,,,,,,,,,,,,
"[""comma""]",0,[0.015899999856856084],100,0,100,0,1,5bad37d57d443700016cf598,Mężczyzna,34,2021-07-13_21h51.47.549,rantool2,2021.1.4,Win32,58.99705015,5bad37d57d443700016cf598,60d9d14f4a8a35a482e0d9bf,60edecf2dfeb26f2a00b448e,,,,,,,,,,,,
"[""period""]",0,[0.16770000004771646],101,0,101,0,1,5bad37d57d443700016cf598,Mężczyzna,34,2021-07-13_21h51.47.549,rantool2,2021.1.4,Win32,58.99705015,5bad37d57d443700016cf598,60d9d14f4a8a35a482e0d9bf,60edecf2dfeb26f2a00b448e,,,,,,,,,,,,
"[""comma""]",0,[0.22679999995239086],102,0,102,0,1,5bad37d57d443700016cf598,Mężczyzna,34,2021-07-13_21h51.47.549,rantool2,2021.1.4,Win32,58.99705015,5bad37d57d443700016cf598,60d9d14f4a8a35a482e0d9bf,60edecf2dfeb26f2a00b448e,,,,,,,,,,,,
"[""period""]",0,[0.2277000000476619],103,0,103,0,1,5bad37d57d443700016cf598,Mężczyzna,34,2021-07-13_21h51.47.549,rantool2,2021.1.4,Win32,58.99705015,5bad37d57d443700016cf598,60d9d14f4a8a35a482e0d9bf,60edecf2dfeb26f2a00b448e,,,,,,,,,,,,
"[""comma""]",0,[0.2429000000953465],104,0,104,0,1,5bad37d57d443700016cf598,Mężczyzna,34,2021-07-13_21h51.47.549,rantool2,2021.1.4,Win32,58.99705015,5bad37d57d443700016cf598,60d9d14f4a8a35a482e0d9bf,60edecf2dfeb26f2a00b448e,,,,,,,,,,,,
"[""period""]",0,[0.2125999999046826],105,0,105,0,1,5bad37d57d443700016cf598,Mężczyzna,34,2021-07-13_21h51.47.549,rantool2,2021.1.4,Win32,58.99705015,5bad37d57d443700016cf598,60d9d14f4a8a35a482e0d9bf,60edecf2dfeb26f2a00b448e,,,,,,,,,,,,
"[""comma"",""period""]",0,"[0.20669999980918874,1.8168999998569006]",106,0,106,0,1,5bad37d57d443700016cf598,Mężczyzna,34,2021-07-13_21h51.47.549,rantool2,2021.1.4,Win32,58.99705015,5bad37d57d443700016cf598,60d9d14f4a8a35a482e0d9bf,60edecf2dfeb26f2a00b448e,,,,,,,,,,,,
0,0,,107,0,107,0,1,5bad37d57d443700016cf598,Mężczyzna,34,2021-07-13_21h51.47.549,rantool2,2021.1.4,Win32,58.99705015,5bad37d57d443700016cf598,60d9d14f4a8a35a482e0d9bf,60edecf2dfeb26f2a00b448e,,,,,,,,,,,,
"[""comma""]",0,[0.2282999999522417],108,0,108,0,1,5bad37d57d443700016cf598,Mężczyzna,34,2021-07-13_21h51.47.549,rantool2,2021.1.4,Win32,58.99705015,5bad37d57d443700016cf598,60d9d14f4a8a35a482e0d9bf,60edecf2dfeb26f2a00b448e,,,,,,,,,,,,
"[""period""]",0,[0.2505999999045798],109,0,109,0,1,5bad37d57d443700016cf598,Mężczyzna,34,2021-07-13_21h51.47.549,rantool2,2021.1.4,Win32,58.99705015,5bad37d57d443700016cf598,60d9d14f4a8a35a482e0d9bf,60edecf2dfeb26f2a00b448e,,,,,,,,,,,,
"[""comma""]",0,[0.25439999985701434],110,0,110,0,1,5bad37d57d443700016cf598,Mężczyzna,34,2021-07-13_21h51.47.549,rantool2,2021.1.4,Win32,58.99705015,5bad37d57d443700016cf598,60d9d14f4a8a35a482e0d9bf,60edecf2dfeb26f2a00b448e,,,,,,,,,,,,
"[""period""]",0,[0.3057000000477501],111,0,111,0,1,5bad37d57d443700016cf598,Mężczyzna,34,2021-07-13_21h51.47.549,rantool2,2021.1.4,Win32,58.99705015,5bad37d57d443700016cf598,60d9d14f4a8a35a482e0d9bf,60edecf2dfeb26f2a00b448e,,,,,,,,,,,,
"[""comma""]",0,[0.26899999999989177],112,0,112,0,1,5bad37d57d443700016cf598,Mężczyzna,34,2021-07-13_21h51.47.549,rantool2,2021.1.4,Win32,58.99705015,5bad37d57d443700016cf598,60d9d14f4a8a35a482e0d9bf,60edecf2dfeb26f2a00b448e,,,,,,,,,,,,
"[""period""]",0,[0.4340999999046744],113,0,113,0,1,5bad37d57d443700016cf598,Mężczyzna,34,2021-07-13_21h51.47.549,rantool2,2021.1.4,Win32,58.99705015,5bad37d57d443700016cf598,60d9d14f4a8a35a482e0d9bf,60edecf2dfeb26f2a00b448e,,,,,,,,,,,,
"[""comma""]",0,[0.3439000000954593],114,0,114,0,1,5bad37d57d443700016cf598,Mężczyzna,34,2021-07-13_21h51.47.549,rantool2,2021.1.4,Win32,58.99705015,5bad37d57d443700016cf598,60d9d14f4a8a35a482e0d9bf,60edecf2dfeb26f2a00b448e,,,,,,,,,,,,
"[""period""]",0,[0.29429999995227263],115,0,115,0,1,5bad37d57d443700016cf598,Mężczyzna,34,2021-07-13_21h51.47.549,rantool2,2021.1.4,Win32,58.99705015,5bad37d57d443700016cf598,60d9d14f4a8a35a482e0d9bf,60edecf2dfeb26f2a00b448e,,,,,,,,,,,,
"[""comma""]",0,[0.41679999995233175],116,0,116,0,1,5bad37d57d443700016cf598,Mężczyzna,34,2021-07-13_21h51.47.549,rantool2,2021.1.4,Win32,58.99705015,5bad37d57d443700016cf598,60d9d14f4a8a35a482e0d9bf,60edecf2dfeb26f2a00b448e,,,,,,,,,,,,
"[""period""]",0,[0.22530000019071394],117,0,117,0,1,5bad37d57d443700016cf598,Mężczyzna,34,2021-07-13_21h51.47.549,rantool2,2021.1.4,Win32,58.99705015,5bad37d57d443700016cf598,60d9d14f4a8a35a482e0d9bf,60edecf2dfeb26f2a00b448e,,,,,,,,,,,,
"[""period""]",0,[0.666800000190733],118,0,118,0,1,5bad37d57d443700016cf598,Mężczyzna,34,2021-07-13_21h51.47.549,rantool2,2021.1.4,Win32,58.99705015,5bad37d57d443700016cf598,60d9d14f4a8a35a482e0d9bf,60edecf2dfeb26f2a00b448e,,,,,,,,,,,,
"[""comma""]",0,[0.30379999995238904],119,0,119,0,1,5bad37d57d443700016cf598,Mężczyzna,34,2021-07-13_21h51.47.549,rantool2,2021.1.4,Win32,58.99705015,5bad37d57d443700016cf598,60d9d14f4a8a35a482e0d9bf,60edecf2dfeb26f2a00b448e,,,,,,,,,,,,
,,,,,,,,5bad37d57d443700016cf598,Mężczyzna,34,2021-07-13_21h51.47.549,rantool2,2021.1.4,Win32,58.99705015,5bad37d57d443700016cf598,60d9d14f4a8a35a482e0d9bf,60edecf2dfeb26f2a00b448e,,0,0,0,14,1,OORRROO,OORRROR,22.24142883,22.16977179,series_0,
,,,,,,,,5bad37d57d443700016cf598,Mężczyzna,34,2021-07-13_21h51.47.549,rantool2,2021.1.4,Win32,58.99705015,5bad37d57d443700016cf598,60d9d14f4a8a35a482e0d9bf,60edecf2dfeb26f2a00b448e,f,0,1,1,1,1,OOOOORO,OOOOORR,19.92253567,20.74050628,series_1,0.8702
,,,,,,,,5bad37d57d443700016cf598,Mężczyzna,34,2021-07-13_21h51.47.549,rantool2,2021.1.4,Win32,58.99705015,5bad37d57d443700016cf598,60d9d14f4a8a35a482e0d9bf,60edecf2dfeb26f2a00b448e,,0,2,2,16,1,OROOOOO,OROOOOR,20.43051175,21.17347734,series_1,
,,,,,,,,5bad37d57d443700016cf598,Mężczyzna,34,2021-07-13_21h51.47.549,rantool2,2021.1.4,Win32,58.99705015,5bad37d57d443700016cf598,60d9d14f4a8a35a482e0d9bf,60edecf2dfeb26f2a00b448e,,0,3,3,42,1,ROROROO,ROROROR,20.39515459,19.8361834,series_0,
,,,,,,,,5bad37d57d443700016cf598,Mężczyzna,34,2021-07-13_21h51.47.549,rantool2,2021.1.4,Win32,58.99705015,5bad37d57d443700016cf598,60d9d14f4a8a35a482e0d9bf,60edecf2dfeb26f2a00b448e,j,0,4,4,39,1,ROORRRO,ROORRRR,21.82425538,21.38562617,series_0,0.6006
,,,,,,,,5bad37d57d443700016cf598,Mężczyzna,34,2021-07-13_21h51.47.549,rantool2,2021.1.4,Win32,58.99705015,5bad37d57d443700016cf598,60d9d14f4a8a35a482e0d9bf,60edecf2dfeb26f2a00b448e,f,0,5,5,21,1,ORORORO,ORORORR,20.39515459,22.06781359,series_1,0.9949
,,,,,,,,5bad37d57d443700016cf598,Mężczyzna,34,2021-07-13_21h51.47.549,rantool2,2021.1.4,Win32,58.99705015,5bad37d57d443700016cf598,60d9d14f4a8a35a482e0d9bf,60edecf2dfeb26f2a00b448e,j,0,6,6,20,1,OROROOO,OROROOR,21.31236711,21.90565814,series_1,4.0846
,,,,,,,,5bad37d57d443700016cf598,Mężczyzna,34,2021-07-13_21h51.47.549,rantool2,2021.1.4,Win32,58.99705015,5bad37d57d443700016cf598,60d9d14f4a8a35a482e0d9bf,60edecf2dfeb26f2a00b448e,f,0,7,7,59,1,RRRORRO,RRRORRR,21.56657303,20.89823192,series_0,1.5347
,,,,,,,,5bad37d57d443700016cf598,Mężczyzna,34,2021-07-13_21h51.47.549,rantool2,2021.1.4,Win32,58.99705015,5bad37d57d443700016cf598,60d9d14f4a8a35a482e0d9bf,60edecf2dfeb26f2a00b448e,f,0,8,8,28,1,ORRROOO,ORRROOR,22.24142883,22.53364006,series_1,2.2508
,,,,,,,,5bad37d57d443700016cf598,Mężczyzna,34,2021-07-13_21h51.47.549,rantool2,2021.1.4,Win32,58.99705015,5bad37d57d443700016cf598,60d9d14f4a8a35a482e0d9bf,60edecf2dfeb26f2a00b448e,j,0,9,9,7,1,OOORRRO,OOORRRR,21.6194508,21.899017,series_1,2.3816
,,,,,,,,5bad37d57d443700016cf598,Mężczyzna,34,2021-07-13_21h51.47.549,rantool2,2021.1.4,Win32,58.99705015,5bad37d57d443700016cf598,60d9d14f4a8a35a482e0d9bf,60edecf2dfeb26f2a00b448e,f,0,10,10,54,1,RRORROO,RRORROR,21.55250791,20.9984461,series_0,2.9658
,,,,,,,,5bad37d57d443700016cf598,Mężczyzna,34,2021-07-13_21h51.47.549,rantool2,2021.1.4,Win32,58.99705015,5bad37d57d443700016cf598,60d9d14f4a8a35a482e0d9bf,60edecf2dfeb26f2a00b448e,j,0,11,11,0,1,OOOOOOO,OOOOOOR,18.52739004,19.62521613,series_1,2.2712
,,,,,,,,5bad37d57d443700016cf598,Mężczyzna,34,2021-07-13_21h51.47.549,rantool2,2021.1.4,Win32,58.99705015,5bad37d57d443700016cf598,60d9d14f4a8a35a482e0d9bf,60edecf2dfeb26f2a00b448e,f,0,12,12,19,1,OROORRO,OROORRR,21.73568164,22.11181017,series_1,2.2673
,,,,,,,,5bad37d57d443700016cf598,Mężczyzna,34,2021-07-13_21h51.47.549,rantool2,2021.1.4,Win32,58.99705015,5bad37d57d443700016cf598,60d9d14f4a8a35a482e0d9bf,60edecf2dfeb26f2a00b448e,j,0,13,13,48,1,RROOOOO,RROOOOR,20.90986523,22.15934078,series_1,1.7836
,,,,,,,,5bad37d57d443700016cf598,Mężczyzna,34,2021-07-13_21h51.47.549,rantool2,2021.1.4,Win32,58.99705015,5bad37d57d443700016cf598,60d9d14f4a8a35a482e0d9bf,60edecf2dfeb26f2a00b448e,f,0,14,14,32,1,ROOOOOO,ROOOOOR,19.92253567,21.27974287,series_1,1.3315
,,,,,,,,5bad37d57d443700016cf598,Mężczyzna,34,2021-07-13_21h51.47.549,rantool2,2021.1.4,Win32,58.99705015,5bad37d57d443700016cf598,60d9d14f4a8a35a482e0d9bf,60edecf2dfeb26f2a00b448e,f,0,15,15,50,1,RROOROO,RROOROR,21.73568164,22.02566557,series_1,2.3829
,,,,,,,,5bad37d57d443700016cf598,Mężczyzna,34,2021-07-13_21h51.47.549,rantool2,2021.1.4,Win32,58.99705015,5bad37d57d443700016cf598,60d9d14f4a8a35a482e0d9bf,60edecf2dfeb26f2a00b448e,f,0,16,16,60,1,RRRROOO,RRRROOR,22.10108823,22.15934078,series_1,2.1834
,,,,,,,,5bad37d57d443700016cf598,Mężczyzna,34,2021-07-13_21h51.47.549,rantool2,2021.1.4,Win32,58.99705015,5bad37d57d443700016cf598,60d9d14f4a8a35a482e0d9bf,60edecf2dfeb26f2a00b448e,j,0,17,17,34,1,ROOOROO,ROOOROR,21.03750787,21.24781509,series_1,1.8522
,,,,,,,,5bad37d57d443700016cf598,Mężczyzna,34,2021-07-13_21h51.47.549,rantool2,2021.1.4,Win32,58.99705015,5bad37d57d443700016cf598,60d9d14f4a8a35a482e0d9bf,60edecf2dfeb26f2a00b448e,j,0,18,18,22,1,ORORROO,ORORROR,22.02732763,21.57657071,series_0,2.4513
,,,,,,,,5bad37d57d443700016cf598,Mężczyzna,34,2021-07-13_21h51.47.549,rantool2,2021.1.4,Win32,58.99705015,5bad37d57d443700016cf598,60d9d14f4a8a35a482e0d9bf,60edecf2dfeb26f2a00b448e,f,0,19,19,38,1,ROORROO,ROORROR,21.79500819,21.36812781,series_0,2.2812
,,,,,,,,5bad37d57d443700016cf598,Mężczyzna,34,2021-07-13_21h51.47.549,rantool2,2021.1.4,Win32,58.99705015,5bad37d57d443700016cf598,60d9d14f4a8a35a482e0d9bf,60edecf2dfeb26f2a00b448e,j,0,20,20,2,1,OOOOROO,OOOOROR,20.43051175,21.02936224,series_1,2.1746
,,,,,,,,5bad37d57d443700016cf598,Mężczyzna,34,2021-07-13_21h51.47.549,rantool2,2021.1.4,Win32,58.99705015,5bad37d57d443700016cf598,60d9d14f4a8a35a482e0d9bf,60edecf2dfeb26f2a00b448e,f,0,21,21,18,1,OROOROO,OROOROR,20.84860893,21.22513037,series_1,1.6171
,,,,,,,,5bad37d57d443700016cf598,Mężczyzna,34,2021-07-13_21h51.47.549,rantool2,2021.1.4,Win32,58.99705015,5bad37d57d443700016cf598,60d9d14f4a8a35a482e0d9bf,60edecf2dfeb26f2a00b448e,j,0,22,22,8,1,OOROOOO,OOROOOR,19.91402015,20.89823192,series_1,2.3703
,,,,,,,,5bad37d57d443700016cf598,Mężczyzna,34,2021-07-13_21h51.47.549,rantool2,2021.1.4,Win32,58.99705015,5bad37d57d443700016cf598,60d9d14f4a8a35a482e0d9bf,60edecf2dfeb26f2a00b448e,f,0,23,23,44,1,RORROOO,RORROOR,21.66733484,22.02566557,series_1,1.8485
,,,,,,,,5bad37d57d443700016cf598,Mężczyzna,34,2021-07-13_21h51.47.549,rantool2,2021.1.4,Win32,58.99705015,5bad37d57d443700016cf598,60d9d14f4a8a35a482e0d9bf,60edecf2dfeb26f2a00b448e,f,0,24,24,24,1,ORROOOO,ORROOOR,21.12383932,22.07102821,series_1,1.4439
,,,,,,,,5bad37d57d443700016cf598,Mężczyzna,34,2021-07-13_21h51.47.549,rantool2,2021.1.4,Win32,58.99705015,5bad37d57d443700016cf598,60d9d14f4a8a35a482e0d9bf,60edecf2dfeb26f2a00b448e,f,0,25,25,62,1,RRRRROO,RRRRROR,22.16413392,21.27974287,series_0,1.2065
,,,,,,,,5bad37d57d443700016cf598,Mężczyzna,34,2021-07-13_21h51.47.549,rantool2,2021.1.4,Win32,58.99705015,5bad37d57d443700016cf598,60d9d14f4a8a35a482e0d9bf,60edecf2dfeb26f2a00b448e,f,0,26,26,9,1,OOROORO,OOROORR,21.07991943,22.2428857,series_1,1.2944
,,,,,,,,5bad37d57d443700016cf598,Mężczyzna,34,2021-07-13_21h51.47.549,rantool2,2021.1.4,Win32,58.99705015,5bad37d57d443700016cf598,60d9d14f4a8a35a482e0d9bf,60edecf2dfeb26f2a00b448e,j,0,27,27,49,1,RROOORO,RROOORR,21.76276513,22.53364006,series_1,1.3564
,,,,,,,,5bad37d57d443700016cf598,Mężczyzna,34,2021-07-13_21h51.47.549,rantool2,2021.1.4,Win32,58.99705015,5bad37d57d443700016cf598,60d9d14f4a8a35a482e0d9bf,60edecf2dfeb26f2a00b448e,f,0,28,28,36,1,ROOROOO,ROOROOR,21.07991943,20.9984461,series_0,1.1845
,,,,,,,,5bad37d57d443700016cf598,Mężczyzna,34,2021-07-13_21h51.47.549,rantool2,2021.1.4,Win32,58.99705015,5bad37d57d443700016cf598,60d9d14f4a8a35a482e0d9bf,60edecf2dfeb26f2a00b448e,j,0,29,29,45,1,RORRORO,RORRORR,20.78182524,21.22513037,series_1,1.7837
,,,,,,,,5bad37d57d443700016cf598,Mężczyzna,34,2021-07-13_21h51.47.549,rantool2,2021.1.4,Win32,58.99705015,5bad37d57d443700016cf598,60d9d14f4a8a35a482e0d9bf,60edecf2dfeb26f2a00b448e,f,0,30,30,15,1,OORRRRO,OORRRRR,22.10108823,21.74922619,series_0,1.3229
,,,,,,,,5bad37d57d443700016cf598,Mężczyzna,34,2021-07-13_21h51.47.549,rantool2,2021.1.4,Win32,58.99705015,5bad37d57d443700016cf598,60d9d14f4a8a35a482e0d9bf,60edecf2dfeb26f2a00b448e,j,0,31,31,10,1,OOROROO,OOROROR,21.31236711,21.07490964,series_0,1.3004
,,,,,,,,5bad37d57d443700016cf598,Mężczyzna,34,2021-07-13_21h51.47.549,rantool2,2021.1.4,Win32,58.99705015,5bad37d57d443700016cf598,60d9d14f4a8a35a482e0d9bf,60edecf2dfeb26f2a00b448e,f,0,32,32,31,1,ORRRRRO,ORRRRRR,22.16413392,20.74050628,series_0,0.9503
,,,,,,,,5bad37d57d443700016cf598,Mężczyzna,34,2021-07-13_21h51.47.549,rantool2,2021.1.4,Win32,58.99705015,5bad37d57d443700016cf598,60d9d14f4a8a35a482e0d9bf,60edecf2dfeb26f2a00b448e,j,0,33,33,47,1,RORRRRO,RORRRRR,21.81333602,21.02936224,series_0,1.4609
,,,,,,,,5bad37d57d443700016cf598,Mężczyzna,34,2021-07-13_21h51.47.549,rantool2,2021.1.4,Win32,58.99705015,5bad37d57d443700016cf598,60d9d14f4a8a35a482e0d9bf,60edecf2dfeb26f2a00b448e,f,0,34,34,55,1,RRORRRO,RRORRRR,21.56657303,21.21223021,series_0,1.7508
,,,,,,,,5bad37d57d443700016cf598,Mężczyzna,34,2021-07-13_21h51.47.549,rantool2,2021.1.4,Win32,58.99705015,5bad37d57d443700016cf598,60d9d14f4a8a35a482e0d9bf,60edecf2dfeb26f2a00b448e,j,0,35,35,33,1,ROOOORO,ROOOORR,20.83779602,22.03072203,series_1,1.7769
,,,,,,,,5bad37d57d443700016cf598,Mężczyzna,34,2021-07-13_21h51.47.549,rantool2,2021.1.4,Win32,58.99705015,5bad37d57d443700016cf598,60d9d14f4a8a35a482e0d9bf,60edecf2dfeb26f2a00b448e,f,0,36,36,41,1,ROROORO,ROROORR,20.42602454,21.71443381,series_1,1.3512
,,,,,,,,5bad37d57d443700016cf598,Mężczyzna,34,2021-07-13_21h51.47.549,rantool2,2021.1.4,Win32,58.99705015,5bad37d57d443700016cf598,60d9d14f4a8a35a482e0d9bf,60edecf2dfeb26f2a00b448e,j,0,37,37,26,1,ORROROO,ORROROR,22.02732763,21.71443381,series_0,1.2757
,,,,,,,,5bad37d57d443700016cf598,Mężczyzna,34,2021-07-13_21h51.47.549,rantool2,2021.1.4,Win32,58.99705015,5bad37d57d443700016cf598,60d9d14f4a8a35a482e0d9bf,60edecf2dfeb26f2a00b448e,f,0,38,38,53,1,RRORORO,RRORORR,20.71309134,21.90565814,series_1,1.1516
,,,,,,,,5bad37d57d443700016cf598,Mężczyzna,34,2021-07-13_21h51.47.549,rantool2,2021.1.4,Win32,58.99705015,5bad37d57d443700016cf598,60d9d14f4a8a35a482e0d9bf,60edecf2dfeb26f2a00b448e,j,0,39,39,17,1,OROOORO,OROOORR,21.03750787,22.12173012,series_1,1.1497
,,,,,,,,5bad37d57d443700016cf598,Mężczyzna,34,2021-07-13_21h51.47.549,rantool2,2021.1.4,Win32,58.99705015,5bad37d57d443700016cf598,60d9d14f4a8a35a482e0d9bf,60edecf2dfeb26f2a00b448e,f,0,40,40,13,1,OORRORO,OORRORR,21.66733484,22.11181017,series_1,1.0695
,,,,,,,,5bad37d57d443700016cf598,Mężczyzna,34,2021-07-13_21h51.47.549,rantool2,2021.1.4,Win32,58.99705015,5bad37d57d443700016cf598,60d9d14f4a8a35a482e0d9bf,60edecf2dfeb26f2a00b448e,j,0,41,41,40,1,ROROOOO,ROROOOR,20.87963819,21.37121559,series_1,1.2003
,,,,,,,,5bad37d57d443700016cf598,Mężczyzna,34,2021-07-13_21h51.47.549,rantool2,2021.1.4,Win32,58.99705015,5bad37d57d443700016cf598,60d9d14f4a8a35a482e0d9bf,60edecf2dfeb26f2a00b448e,f,0,42,42,25,1,ORROORO,ORROORR,21.79500819,22.61624387,series_1,1.7007
,,,,,,,,5bad37d57d443700016cf598,Mężczyzna,34,2021-07-13_21h51.47.549,rantool2,2021.1.4,Win32,58.99705015,5bad37d57d443700016cf598,60d9d14f4a8a35a482e0d9bf,60edecf2dfeb26f2a00b448e,f,0,43,43,46,1,RORRROO,RORRROR,22.00300695,21.24781509,series_0,1.6381
,,,,,,,,5bad37d57d443700016cf598,Mężczyzna,34,2021-07-13_21h51.47.549,rantool2,2021.1.4,Win32,58.99705015,5bad37d57d443700016cf598,60d9d14f4a8a35a482e0d9bf,60edecf2dfeb26f2a00b448e,f,0,44,44,6,1,OOORROO,OOORROR,21.12383932,21.38562617,series_1,1.2612
,,,,,,,,5bad37d57d443700016cf598,Mężczyzna,34,2021-07-13_21h51.47.549,rantool2,2021.1.4,Win32,58.99705015,5bad37d57d443700016cf598,60d9d14f4a8a35a482e0d9bf,60edecf2dfeb26f2a00b448e,f,0,45,45,61,1,RRRRORO,RRRRORR,21.81333602,21.17347734,series_0,1.275
,,,,,,,,5bad37d57d443700016cf598,Mężczyzna,34,2021-07-13_21h51.47.549,rantool2,2021.1.4,Win32,58.99705015,5bad37d57d443700016cf598,60d9d14f4a8a35a482e0d9bf,60edecf2dfeb26f2a00b448e,j,0,46,46,35,1,ROOORRO,ROOORRR,21.76276513,22.16977179,series_1,1.0838
,,,,,,,,5bad37d57d443700016cf598,Mężczyzna,34,2021-07-13_21h51.47.549,rantool2,2021.1.4,Win32,58.99705015,5bad37d57d443700016cf598,60d9d14f4a8a35a482e0d9bf,60edecf2dfeb26f2a00b448e,f,0,47,47,29,1,ORRRORO,ORRRORR,22.00300695,22.12173012,series_1,1.3531
,,,,,,,,5bad37d57d443700016cf598,Mężczyzna,34,2021-07-13_21h51.47.549,rantool2,2021.1.4,Win32,58.99705015,5bad37d57d443700016cf598,60d9d14f4a8a35a482e0d9bf,60edecf2dfeb26f2a00b448e,j,0,48,48,63,1,RRRRRRO,RRRRRRR,21.35278725,19.62521613,series_0,1.1676
,,,,,,,,5bad37d57d443700016cf598,Mężczyzna,34,2021-07-13_21h51.47.549,rantool2,2021.1.4,Win32,58.99705015,5bad37d57d443700016cf598,60d9d14f4a8a35a482e0d9bf,60edecf2dfeb26f2a00b448e,f,0,49,49,56,1,RRROOOO,RRROOOR,21.6194508,22.31681875,series_1,1.1395
,,,,,,,,5bad37d57d443700016cf598,Mężczyzna,34,2021-07-13_21h51.47.549,rantool2,2021.1.4,Win32,58.99705015,5bad37d57d443700016cf598,60d9d14f4a8a35a482e0d9bf,60edecf2dfeb26f2a00b448e,f,0,50,50,58,1,RRROROO,RRROROR,22.1285618,21.37121559,series_0,1.0378
,,,,,,,,5bad37d57d443700016cf598,Mężczyzna,34,2021-07-13_21h51.47.549,rantool2,2021.1.4,Win32,58.99705015,5bad37d57d443700016cf598,60d9d14f4a8a35a482e0d9bf,60edecf2dfeb26f2a00b448e,j,0,51,51,57,1,RRROORO,RRROORR,21.82425538,22.07102821,series_1,0.7859
,,,,,,,,5bad37d57d443700016cf598,Mężczyzna,34,2021-07-13_21h51.47.549,rantool2,2021.1.4,Win32,58.99705015,5bad37d57d443700016cf598,60d9d14f4a8a35a482e0d9bf,60edecf2dfeb26f2a00b448e,f,0,52,52,4,1,OOOROOO,OOOROOR,19.91402015,21.21223021,series_1,0.9343
,,,,,,,,5bad37d57d443700016cf598,Mężczyzna,34,2021-07-13_21h51.47.549,rantool2,2021.1.4,Win32,58.99705015,5bad37d57d443700016cf598,60d9d14f4a8a35a482e0d9bf,60edecf2dfeb26f2a00b448e,j,0,53,53,30,1,ORRRROO,ORRRROR,22.46748491,22.03072203,series_0,0.7506
,,,,,,,,5bad37d57d443700016cf598,Mężczyzna,34,2021-07-13_21h51.47.549,rantool2,2021.1.4,Win32,58.99705015,5bad37d57d443700016cf598,60d9d14f4a8a35a482e0d9bf,60edecf2dfeb26f2a00b448e,j,0,54,54,5,1,OOORORO,OOORORR,20.87963819,21.9921709,series_1,1.1839
,,,,,,,,5bad37d57d443700016cf598,Mężczyzna,34,2021-07-13_21h51.47.549,rantool2,2021.1.4,Win32,58.99705015,5bad37d57d443700016cf598,60d9d14f4a8a35a482e0d9bf,60edecf2dfeb26f2a00b448e,f,0,55,55,43,1,RORORRO,RORORRR,20.71309134,21.07490964,series_1,1.0105
,,,,,,,,5bad37d57d443700016cf598,Mężczyzna,34,2021-07-13_21h51.47.549,rantool2,2021.1.4,Win32,58.99705015,5bad37d57d443700016cf598,60d9d14f4a8a35a482e0d9bf,60edecf2dfeb26f2a00b448e,j,0,56,56,11,1,OORORRO,OORORRR,22.18365867,22.6797523,series_1,0.9669
,,,,,,,,5bad37d57d443700016cf598,Mężczyzna,34,2021-07-13_21h51.47.549,rantool2,2021.1.4,Win32,58.99705015,5bad37d57d443700016cf598,60d9d14f4a8a35a482e0d9bf,60edecf2dfeb26f2a00b448e,f,0,57,57,12,1,OORROOO,OORROOR,21.30250474,22.02786418,series_1,1.1497
,,,,,,,,5bad37d57d443700016cf598,Mężczyzna,34,2021-07-13_21h51.47.549,rantool2,2021.1.4,Win32,58.99705015,5bad37d57d443700016cf598,60d9d14f4a8a35a482e0d9bf,60edecf2dfeb26f2a00b448e,j,0,58,58,51,1,RROORRO,RROORRR,21.89852628,22.02786418,series_1,0.9512
,,,,,,,,5bad37d57d443700016cf598,Mężczyzna,34,2021-07-13_21h51.47.549,rantool2,2021.1.4,Win32,58.99705015,5bad37d57d443700016cf598,60d9d14f4a8a35a482e0d9bf,60edecf2dfeb26f2a00b448e,f,0,59,59,23,1,ORORRRO,ORORRRR,22.1285618,21.9921709,series_0,1.0039
,,,,,,,,5bad37d57d443700016cf598,Mężczyzna,34,2021-07-13_21h51.47.549,rantool2,2021.1.4,Win32,58.99705015,5bad37d57d443700016cf598,60d9d14f4a8a35a482e0d9bf,60edecf2dfeb26f2a00b448e,j,0,60,60,52,1,RROROOO,RROROOR,22.18365867,22.11097995,series_0,1.0748
,,,,,,,,5bad37d57d443700016cf598,Mężczyzna,34,2021-07-13_21h51.47.549,rantool2,2021.1.4,Win32,58.99705015,5bad37d57d443700016cf598,60d9d14f4a8a35a482e0d9bf,60edecf2dfeb26f2a00b448e,f,0,61,61,3,1,OOOORRO,OOOORRR,20.90986523,21.74922619,series_1,1.2835
,,,,,,,,5bad37d57d443700016cf598,Mężczyzna,34,2021-07-13_21h51.47.549,rantool2,2021.1.4,Win32,58.99705015,5bad37d57d443700016cf598,60d9d14f4a8a35a482e0d9bf,60edecf2dfeb26f2a00b448e,j,0,62,62,37,1,ROORORO,ROORORR,20.42602454,21.57657071,series_1,0.9113
,,,,,,,,5bad37d57d443700016cf598,Mężczyzna,34,2021-07-13_21h51.47.549,rantool2,2021.1.4,Win32,58.99705015,5bad37d57d443700016cf598,60d9d14f4a8a35a482e0d9bf,60edecf2dfeb26f2a00b448e,f,0,63,63,27,1,ORRORRO,ORRORRR,21.55250791,22.2428857,series_1,1.0579
