key_resp_7.keys,key_resp_7.rt,trials_2.thisRepN,trials_2.thisTrialN,trials_2.thisN,trials_2.thisIndex,trials_2.ran,id,series_0,series_1,acss_0,acss_1,comparison,id*,Płeć*,Wiek*,date,expName,psychopyVersion,OS,frameRate,STUDY_ID,SESSION_ID,key_resp_5.keys,key_resp_5.corr,key_resp_5.rt,trials.thisRepN,trials.thisTrialN,trials.thisN,trials.thisIndex,trials.ran
j,2.2658,0,0,0,2,1,6127536826b588a22030e76e,OOOOROO,OOOOROR,20.43051175,21.02936224,series_1,6127536826b588a22030e76e,Mężczyzna,20,2021-09-06_19h07.40.116,rantool2,2021.1.4,Win32,59.96641881,6135e006383e6ea6c3d06a28,61364abf0433ee40764f7195,,,,,,,,
f,2.7338,0,1,1,35,1,6127536826b588a22030e76e,ROOORRO,ROOORRR,21.76276513,22.16977179,series_1,6127536826b588a22030e76e,Mężczyzna,20,2021-09-06_19h07.40.116,rantool2,2021.1.4,Win32,59.96641881,6135e006383e6ea6c3d06a28,61364abf0433ee40764f7195,,,,,,,,
j,1.5532,0,2,2,0,1,6127536826b588a22030e76e,OOOOOOO,OOOOOOR,18.52739004,19.62521613,series_1,6127536826b588a22030e76e,Mężczyzna,20,2021-09-06_19h07.40.116,rantool2,2021.1.4,Win32,59.96641881,6135e006383e6ea6c3d06a28,61364abf0433ee40764f7195,,,,,,,,
f,2.3039,0,3,3,1,1,6127536826b588a22030e76e,OOOOORO,OOOOORR,19.92253567,20.74050628,series_1,6127536826b588a22030e76e,Mężczyzna,20,2021-09-06_19h07.40.116,rantool2,2021.1.4,Win32,59.96641881,6135e006383e6ea6c3d06a28,61364abf0433ee40764f7195,,,,,,,,
j,2.202,0,4,4,29,1,6127536826b588a22030e76e,ORRRORO,ORRRORR,22.00300695,22.12173012,series_1,6127536826b588a22030e76e,Mężczyzna,20,2021-09-06_19h07.40.116,rantool2,2021.1.4,Win32,59.96641881,6135e006383e6ea6c3d06a28,61364abf0433ee40764f7195,,,,,,,,
j,2.6676,0,5,5,58,1,6127536826b588a22030e76e,RRROROO,RRROROR,22.1285618,21.37121559,series_0,6127536826b588a22030e76e,Mężczyzna,20,2021-09-06_19h07.40.116,rantool2,2021.1.4,Win32,59.96641881,6135e006383e6ea6c3d06a28,61364abf0433ee40764f7195,,,,,,,,
j,2.6863,0,6,6,22,1,6127536826b588a22030e76e,ORORROO,ORORROR,22.02732763,21.57657071,series_0,6127536826b588a22030e76e,Mężczyzna,20,2021-09-06_19h07.40.116,rantool2,2021.1.4,Win32,59.96641881,6135e006383e6ea6c3d06a28,61364abf0433ee40764f7195,,,,,,,,
f,1.6843,0,7,7,34,1,6127536826b588a22030e76e,ROOOROO,ROOOROR,21.03750787,21.24781509,series_1,6127536826b588a22030e76e,Mężczyzna,20,2021-09-06_19h07.40.116,rantool2,2021.1.4,Win32,59.96641881,6135e006383e6ea6c3d06a28,61364abf0433ee40764f7195,,,,,,,,
f,1.7183,0,8,8,9,1,6127536826b588a22030e76e,OOROORO,OOROORR,21.07991943,22.2428857,series_1,6127536826b588a22030e76e,Mężczyzna,20,2021-09-06_19h07.40.116,rantool2,2021.1.4,Win32,59.96641881,6135e006383e6ea6c3d06a28,61364abf0433ee40764f7195,,,,,,,,
f,2.2744,0,9,9,57,1,6127536826b588a22030e76e,RRROORO,RRROORR,21.82425538,22.07102821,series_1,6127536826b588a22030e76e,Mężczyzna,20,2021-09-06_19h07.40.116,rantool2,2021.1.4,Win32,59.96641881,6135e006383e6ea6c3d06a28,61364abf0433ee40764f7195,,,,,,,,
j,1.9344,0,10,10,52,1,6127536826b588a22030e76e,RROROOO,RROROOR,22.18365867,22.11097995,series_0,6127536826b588a22030e76e,Mężczyzna,20,2021-09-06_19h07.40.116,rantool2,2021.1.4,Win32,59.96641881,6135e006383e6ea6c3d06a28,61364abf0433ee40764f7195,,,,,,,,
j,1.5741,0,11,11,11,1,6127536826b588a22030e76e,OORORRO,OORORRR,22.18365867,22.6797523,series_1,6127536826b588a22030e76e,Mężczyzna,20,2021-09-06_19h07.40.116,rantool2,2021.1.4,Win32,59.96641881,6135e006383e6ea6c3d06a28,61364abf0433ee40764f7195,,,,,,,,
f,1.3341,0,12,12,38,1,6127536826b588a22030e76e,ROORROO,ROORROR,21.79500819,21.36812781,series_0,6127536826b588a22030e76e,Mężczyzna,20,2021-09-06_19h07.40.116,rantool2,2021.1.4,Win32,59.96641881,6135e006383e6ea6c3d06a28,61364abf0433ee40764f7195,,,,,,,,
f,1.2338,0,13,13,24,1,6127536826b588a22030e76e,ORROOOO,ORROOOR,21.12383932,22.07102821,series_1,6127536826b588a22030e76e,Mężczyzna,20,2021-09-06_19h07.40.116,rantool2,2021.1.4,Win32,59.96641881,6135e006383e6ea6c3d06a28,61364abf0433ee40764f7195,,,,,,,,
j,1.1213,0,14,14,59,1,6127536826b588a22030e76e,RRRORRO,RRRORRR,21.56657303,20.89823192,series_0,6127536826b588a22030e76e,Mężczyzna,20,2021-09-06_19h07.40.116,rantool2,2021.1.4,Win32,59.96641881,6135e006383e6ea6c3d06a28,61364abf0433ee40764f7195,,,,,,,,
f,1.2846,0,15,15,26,1,6127536826b588a22030e76e,ORROROO,ORROROR,22.02732763,21.71443381,series_0,6127536826b588a22030e76e,Mężczyzna,20,2021-09-06_19h07.40.116,rantool2,2021.1.4,Win32,59.96641881,6135e006383e6ea6c3d06a28,61364abf0433ee40764f7195,,,,,,,,
f,1.6183,0,16,16,30,1,6127536826b588a22030e76e,ORRRROO,ORRRROR,22.46748491,22.03072203,series_0,6127536826b588a22030e76e,Mężczyzna,20,2021-09-06_19h07.40.116,rantool2,2021.1.4,Win32,59.96641881,6135e006383e6ea6c3d06a28,61364abf0433ee40764f7195,,,,,,,,
j,1.1003,0,17,17,61,1,6127536826b588a22030e76e,RRRRORO,RRRRORR,21.81333602,21.17347734,series_0,6127536826b588a22030e76e,Mężczyzna,20,2021-09-06_19h07.40.116,rantool2,2021.1.4,Win32,59.96641881,6135e006383e6ea6c3d06a28,61364abf0433ee40764f7195,,,,,,,,
f,1.1506,0,18,18,49,1,6127536826b588a22030e76e,RROOORO,RROOORR,21.76276513,22.53364006,series_1,6127536826b588a22030e76e,Mężczyzna,20,2021-09-06_19h07.40.116,rantool2,2021.1.4,Win32,59.96641881,6135e006383e6ea6c3d06a28,61364abf0433ee40764f7195,,,,,,,,
j,1.7369,0,19,19,27,1,6127536826b588a22030e76e,ORRORRO,ORRORRR,21.55250791,22.2428857,series_1,6127536826b588a22030e76e,Mężczyzna,20,2021-09-06_19h07.40.116,rantool2,2021.1.4,Win32,59.96641881,6135e006383e6ea6c3d06a28,61364abf0433ee40764f7195,,,,,,,,
f,1.1672,0,20,20,18,1,6127536826b588a22030e76e,OROOROO,OROOROR,20.84860893,21.22513037,series_1,6127536826b588a22030e76e,Mężczyzna,20,2021-09-06_19h07.40.116,rantool2,2021.1.4,Win32,59.96641881,6135e006383e6ea6c3d06a28,61364abf0433ee40764f7195,,,,,,,,
f,1.2184,0,21,21,20,1,6127536826b588a22030e76e,OROROOO,OROROOR,21.31236711,21.90565814,series_1,6127536826b588a22030e76e,Mężczyzna,20,2021-09-06_19h07.40.116,rantool2,2021.1.4,Win32,59.96641881,6135e006383e6ea6c3d06a28,61364abf0433ee40764f7195,,,,,,,,
j,0.8664,0,22,22,37,1,6127536826b588a22030e76e,ROORORO,ROORORR,20.42602454,21.57657071,series_1,6127536826b588a22030e76e,Mężczyzna,20,2021-09-06_19h07.40.116,rantool2,2021.1.4,Win32,59.96641881,6135e006383e6ea6c3d06a28,61364abf0433ee40764f7195,,,,,,,,
f,1.0336,0,23,23,23,1,6127536826b588a22030e76e,ORORRRO,ORORRRR,22.1285618,21.9921709,series_0,6127536826b588a22030e76e,Mężczyzna,20,2021-09-06_19h07.40.116,rantool2,2021.1.4,Win32,59.96641881,6135e006383e6ea6c3d06a28,61364abf0433ee40764f7195,,,,,,,,
j,0.674,0,24,24,25,1,6127536826b588a22030e76e,ORROORO,ORROORR,21.79500819,22.61624387,series_1,6127536826b588a22030e76e,Mężczyzna,20,2021-09-06_19h07.40.116,rantool2,2021.1.4,Win32,59.96641881,6135e006383e6ea6c3d06a28,61364abf0433ee40764f7195,,,,,,,,
f,0.7055,0,25,25,12,1,6127536826b588a22030e76e,OORROOO,OORROOR,21.30250474,22.02786418,series_1,6127536826b588a22030e76e,Mężczyzna,20,2021-09-06_19h07.40.116,rantool2,2021.1.4,Win32,59.96641881,6135e006383e6ea6c3d06a28,61364abf0433ee40764f7195,,,,,,,,
f,0.9681,0,26,26,40,1,6127536826b588a22030e76e,ROROOOO,ROROOOR,20.87963819,21.37121559,series_1,6127536826b588a22030e76e,Mężczyzna,20,2021-09-06_19h07.40.116,rantool2,2021.1.4,Win32,59.96641881,6135e006383e6ea6c3d06a28,61364abf0433ee40764f7195,,,,,,,,
j,1.2013,0,27,27,10,1,6127536826b588a22030e76e,OOROROO,OOROROR,21.31236711,21.07490964,series_0,6127536826b588a22030e76e,Mężczyzna,20,2021-09-06_19h07.40.116,rantool2,2021.1.4,Win32,59.96641881,6135e006383e6ea6c3d06a28,61364abf0433ee40764f7195,,,,,,,,
f,0.837,0,28,28,33,1,6127536826b588a22030e76e,ROOOORO,ROOOORR,20.83779602,22.03072203,series_1,6127536826b588a22030e76e,Mężczyzna,20,2021-09-06_19h07.40.116,rantool2,2021.1.4,Win32,59.96641881,6135e006383e6ea6c3d06a28,61364abf0433ee40764f7195,,,,,,,,
j,0.5734,0,29,29,5,1,6127536826b588a22030e76e,OOORORO,OOORORR,20.87963819,21.9921709,series_1,6127536826b588a22030e76e,Mężczyzna,20,2021-09-06_19h07.40.116,rantool2,2021.1.4,Win32,59.96641881,6135e006383e6ea6c3d06a28,61364abf0433ee40764f7195,,,,,,,,
f,0.8007,0,30,30,21,1,6127536826b588a22030e76e,ORORORO,ORORORR,20.39515459,22.06781359,series_1,6127536826b588a22030e76e,Mężczyzna,20,2021-09-06_19h07.40.116,rantool2,2021.1.4,Win32,59.96641881,6135e006383e6ea6c3d06a28,61364abf0433ee40764f7195,,,,,,,,
j,0.7841,0,31,31,17,1,6127536826b588a22030e76e,OROOORO,OROOORR,21.03750787,22.12173012,series_1,6127536826b588a22030e76e,Mężczyzna,20,2021-09-06_19h07.40.116,rantool2,2021.1.4,Win32,59.96641881,6135e006383e6ea6c3d06a28,61364abf0433ee40764f7195,,,,,,,,
j,1.1525,0,32,32,51,1,6127536826b588a22030e76e,RROORRO,RROORRR,21.89852628,22.02786418,series_1,6127536826b588a22030e76e,Mężczyzna,20,2021-09-06_19h07.40.116,rantool2,2021.1.4,Win32,59.96641881,6135e006383e6ea6c3d06a28,61364abf0433ee40764f7195,,,,,,,,
f,1.9349,0,33,33,16,1,6127536826b588a22030e76e,OROOOOO,OROOOOR,20.43051175,21.17347734,series_1,6127536826b588a22030e76e,Mężczyzna,20,2021-09-06_19h07.40.116,rantool2,2021.1.4,Win32,59.96641881,6135e006383e6ea6c3d06a28,61364abf0433ee40764f7195,,,,,,,,
j,1.1011,0,34,34,46,1,6127536826b588a22030e76e,RORRROO,RORRROR,22.00300695,21.24781509,series_0,6127536826b588a22030e76e,Mężczyzna,20,2021-09-06_19h07.40.116,rantool2,2021.1.4,Win32,59.96641881,6135e006383e6ea6c3d06a28,61364abf0433ee40764f7195,,,,,,,,
f,1.1326,0,35,35,44,1,6127536826b588a22030e76e,RORROOO,RORROOR,21.66733484,22.02566557,series_1,6127536826b588a22030e76e,Mężczyzna,20,2021-09-06_19h07.40.116,rantool2,2021.1.4,Win32,59.96641881,6135e006383e6ea6c3d06a28,61364abf0433ee40764f7195,,,,,,,,
f,1.5671,0,36,36,43,1,6127536826b588a22030e76e,RORORRO,RORORRR,20.71309134,21.07490964,series_1,6127536826b588a22030e76e,Mężczyzna,20,2021-09-06_19h07.40.116,rantool2,2021.1.4,Win32,59.96641881,6135e006383e6ea6c3d06a28,61364abf0433ee40764f7195,,,,,,,,
f,1.7517,0,37,37,48,1,6127536826b588a22030e76e,RROOOOO,RROOOOR,20.90986523,22.15934078,series_1,6127536826b588a22030e76e,Mężczyzna,20,2021-09-06_19h07.40.116,rantool2,2021.1.4,Win32,59.96641881,6135e006383e6ea6c3d06a28,61364abf0433ee40764f7195,,,,,,,,
j,1.5355,0,38,38,55,1,6127536826b588a22030e76e,RRORRRO,RRORRRR,21.56657303,21.21223021,series_0,6127536826b588a22030e76e,Mężczyzna,20,2021-09-06_19h07.40.116,rantool2,2021.1.4,Win32,59.96641881,6135e006383e6ea6c3d06a28,61364abf0433ee40764f7195,,,,,,,,
j,1.2414,0,39,39,41,1,6127536826b588a22030e76e,ROROORO,ROROORR,20.42602454,21.71443381,series_1,6127536826b588a22030e76e,Mężczyzna,20,2021-09-06_19h07.40.116,rantool2,2021.1.4,Win32,59.96641881,6135e006383e6ea6c3d06a28,61364abf0433ee40764f7195,,,,,,,,
j,1.0393,0,40,40,42,1,6127536826b588a22030e76e,ROROROO,ROROROR,20.39515459,19.8361834,series_0,6127536826b588a22030e76e,Mężczyzna,20,2021-09-06_19h07.40.116,rantool2,2021.1.4,Win32,59.96641881,6135e006383e6ea6c3d06a28,61364abf0433ee40764f7195,,,,,,,,
j,1.9673,0,41,41,6,1,6127536826b588a22030e76e,OOORROO,OOORROR,21.12383932,21.38562617,series_1,6127536826b588a22030e76e,Mężczyzna,20,2021-09-06_19h07.40.116,rantool2,2021.1.4,Win32,59.96641881,6135e006383e6ea6c3d06a28,61364abf0433ee40764f7195,,,,,,,,
f,1.7016,0,42,42,54,1,6127536826b588a22030e76e,RRORROO,RRORROR,21.55250791,20.9984461,series_0,6127536826b588a22030e76e,Mężczyzna,20,2021-09-06_19h07.40.116,rantool2,2021.1.4,Win32,59.96641881,6135e006383e6ea6c3d06a28,61364abf0433ee40764f7195,,,,,,,,
j,1.0675,0,43,43,39,1,6127536826b588a22030e76e,ROORRRO,ROORRRR,21.82425538,21.38562617,series_0,6127536826b588a22030e76e,Mężczyzna,20,2021-09-06_19h07.40.116,rantool2,2021.1.4,Win32,59.96641881,6135e006383e6ea6c3d06a28,61364abf0433ee40764f7195,,,,,,,,
f,0.8844,0,44,44,50,1,6127536826b588a22030e76e,RROOROO,RROOROR,21.73568164,22.02566557,series_1,6127536826b588a22030e76e,Mężczyzna,20,2021-09-06_19h07.40.116,rantool2,2021.1.4,Win32,59.96641881,6135e006383e6ea6c3d06a28,61364abf0433ee40764f7195,,,,,,,,
f,1.0344,0,45,45,62,1,6127536826b588a22030e76e,RRRRROO,RRRRROR,22.16413392,21.27974287,series_0,6127536826b588a22030e76e,Mężczyzna,20,2021-09-06_19h07.40.116,rantool2,2021.1.4,Win32,59.96641881,6135e006383e6ea6c3d06a28,61364abf0433ee40764f7195,,,,,,,,
j,0.7509,0,46,46,15,1,6127536826b588a22030e76e,OORRRRO,OORRRRR,22.10108823,21.74922619,series_0,6127536826b588a22030e76e,Mężczyzna,20,2021-09-06_19h07.40.116,rantool2,2021.1.4,Win32,59.96641881,6135e006383e6ea6c3d06a28,61364abf0433ee40764f7195,,,,,,,,
f,1.0017,0,47,47,32,1,6127536826b588a22030e76e,ROOOOOO,ROOOOOR,19.92253567,21.27974287,series_1,6127536826b588a22030e76e,Mężczyzna,20,2021-09-06_19h07.40.116,rantool2,2021.1.4,Win32,59.96641881,6135e006383e6ea6c3d06a28,61364abf0433ee40764f7195,,,,,,,,
j,1.0506,0,48,48,56,1,6127536826b588a22030e76e,RRROOOO,RRROOOR,21.6194508,22.31681875,series_1,6127536826b588a22030e76e,Mężczyzna,20,2021-09-06_19h07.40.116,rantool2,2021.1.4,Win32,59.96641881,6135e006383e6ea6c3d06a28,61364abf0433ee40764f7195,,,,,,,,
f,1.0016,0,49,49,36,1,6127536826b588a22030e76e,ROOROOO,ROOROOR,21.07991943,20.9984461,series_0,6127536826b588a22030e76e,Mężczyzna,20,2021-09-06_19h07.40.116,rantool2,2021.1.4,Win32,59.96641881,6135e006383e6ea6c3d06a28,61364abf0433ee40764f7195,,,,,,,,
j,0.9834,0,50,50,14,1,6127536826b588a22030e76e,OORRROO,OORRROR,22.24142883,22.16977179,series_0,6127536826b588a22030e76e,Mężczyzna,20,2021-09-06_19h07.40.116,rantool2,2021.1.4,Win32,59.96641881,6135e006383e6ea6c3d06a28,61364abf0433ee40764f7195,,,,,,,,
f,1.052,0,51,51,4,1,6127536826b588a22030e76e,OOOROOO,OOOROOR,19.91402015,21.21223021,series_1,6127536826b588a22030e76e,Mężczyzna,20,2021-09-06_19h07.40.116,rantool2,2021.1.4,Win32,59.96641881,6135e006383e6ea6c3d06a28,61364abf0433ee40764f7195,,,,,,,,
j,0.9555,0,52,52,53,1,6127536826b588a22030e76e,RRORORO,RRORORR,20.71309134,21.90565814,series_1,6127536826b588a22030e76e,Mężczyzna,20,2021-09-06_19h07.40.116,rantool2,2021.1.4,Win32,59.96641881,6135e006383e6ea6c3d06a28,61364abf0433ee40764f7195,,,,,,,,
j,1.1674,0,53,53,19,1,6127536826b588a22030e76e,OROORRO,OROORRR,21.73568164,22.11181017,series_1,6127536826b588a22030e76e,Mężczyzna,20,2021-09-06_19h07.40.116,rantool2,2021.1.4,Win32,59.96641881,6135e006383e6ea6c3d06a28,61364abf0433ee40764f7195,,,,,,,,
j,1.3556,0,54,54,13,1,6127536826b588a22030e76e,OORRORO,OORRORR,21.66733484,22.11181017,series_1,6127536826b588a22030e76e,Mężczyzna,20,2021-09-06_19h07.40.116,rantool2,2021.1.4,Win32,59.96641881,6135e006383e6ea6c3d06a28,61364abf0433ee40764f7195,,,,,,,,
f,0.8674,0,55,55,7,1,6127536826b588a22030e76e,OOORRRO,OOORRRR,21.6194508,21.899017,series_1,6127536826b588a22030e76e,Mężczyzna,20,2021-09-06_19h07.40.116,rantool2,2021.1.4,Win32,59.96641881,6135e006383e6ea6c3d06a28,61364abf0433ee40764f7195,,,,,,,,
j,2.0674,0,56,56,31,1,6127536826b588a22030e76e,ORRRRRO,ORRRRRR,22.16413392,20.74050628,series_0,6127536826b588a22030e76e,Mężczyzna,20,2021-09-06_19h07.40.116,rantool2,2021.1.4,Win32,59.96641881,6135e006383e6ea6c3d06a28,61364abf0433ee40764f7195,,,,,,,,
f,1.5367,0,57,57,28,1,6127536826b588a22030e76e,ORRROOO,ORRROOR,22.24142883,22.53364006,series_1,6127536826b588a22030e76e,Mężczyzna,20,2021-09-06_19h07.40.116,rantool2,2021.1.4,Win32,59.96641881,6135e006383e6ea6c3d06a28,61364abf0433ee40764f7195,,,,,,,,
j,1.6673,0,58,58,60,1,6127536826b588a22030e76e,RRRROOO,RRRROOR,22.10108823,22.15934078,series_1,6127536826b588a22030e76e,Mężczyzna,20,2021-09-06_19h07.40.116,rantool2,2021.1.4,Win32,59.96641881,6135e006383e6ea6c3d06a28,61364abf0433ee40764f7195,,,,,,,,
f,1.3675,0,59,59,8,1,6127536826b588a22030e76e,OOROOOO,OOROOOR,19.91402015,20.89823192,series_1,6127536826b588a22030e76e,Mężczyzna,20,2021-09-06_19h07.40.116,rantool2,2021.1.4,Win32,59.96641881,6135e006383e6ea6c3d06a28,61364abf0433ee40764f7195,,,,,,,,
j,1.3679,0,60,60,63,1,6127536826b588a22030e76e,RRRRRRO,RRRRRRR,21.35278725,19.62521613,series_0,6127536826b588a22030e76e,Mężczyzna,20,2021-09-06_19h07.40.116,rantool2,2021.1.4,Win32,59.96641881,6135e006383e6ea6c3d06a28,61364abf0433ee40764f7195,,,,,,,,
f,2.0194,0,61,61,47,1,6127536826b588a22030e76e,RORRRRO,RORRRRR,21.81333602,21.02936224,series_0,6127536826b588a22030e76e,Mężczyzna,20,2021-09-06_19h07.40.116,rantool2,2021.1.4,Win32,59.96641881,6135e006383e6ea6c3d06a28,61364abf0433ee40764f7195,,,,,,,,
j,2.0042,0,62,62,45,1,6127536826b588a22030e76e,RORRORO,RORRORR,20.78182524,21.22513037,series_1,6127536826b588a22030e76e,Mężczyzna,20,2021-09-06_19h07.40.116,rantool2,2021.1.4,Win32,59.96641881,6135e006383e6ea6c3d06a28,61364abf0433ee40764f7195,,,,,,,,
f,2.0343,0,63,63,3,1,6127536826b588a22030e76e,OOOORRO,OOOORRR,20.90986523,21.74922619,series_1,6127536826b588a22030e76e,Mężczyzna,20,2021-09-06_19h07.40.116,rantool2,2021.1.4,Win32,59.96641881,6135e006383e6ea6c3d06a28,61364abf0433ee40764f7195,,,,,,,,
,,,,,,,6127536826b588a22030e76e,,,,,,6127536826b588a22030e76e,Mężczyzna,20,2021-09-06_19h07.40.116,rantool2,2021.1.4,Win32,59.96641881,6135e006383e6ea6c3d06a28,61364abf0433ee40764f7195,0,,,0,0,0,0,1
,,,,,,,6127536826b588a22030e76e,,,,,,6127536826b588a22030e76e,Mężczyzna,20,2021-09-06_19h07.40.116,rantool2,2021.1.4,Win32,59.96641881,6135e006383e6ea6c3d06a28,61364abf0433ee40764f7195,0,,,1,0,1,0,1
,,,,,,,6127536826b588a22030e76e,,,,,,6127536826b588a22030e76e,Mężczyzna,20,2021-09-06_19h07.40.116,rantool2,2021.1.4,Win32,59.96641881,6135e006383e6ea6c3d06a28,61364abf0433ee40764f7195,"[""period"",""comma""]",0,"[0.31889999985696704,0.7668999998569745]",2,0,2,0,1
,,,,,,,6127536826b588a22030e76e,,,,,,6127536826b588a22030e76e,Mężczyzna,20,2021-09-06_19h07.40.116,rantool2,2021.1.4,Win32,59.96641881,6135e006383e6ea6c3d06a28,61364abf0433ee40764f7195,0,0,,3,0,3,0,1
,,,,,,,6127536826b588a22030e76e,,,,,,6127536826b588a22030e76e,Mężczyzna,20,2021-09-06_19h07.40.116,rantool2,2021.1.4,Win32,59.96641881,6135e006383e6ea6c3d06a28,61364abf0433ee40764f7195,"[""period"",""comma""]",0,"[0.11809999990464348,0.4842000000476787]",4,0,4,0,1
,,,,,,,6127536826b588a22030e76e,,,,,,6127536826b588a22030e76e,Mężczyzna,20,2021-09-06_19h07.40.116,rantool2,2021.1.4,Win32,59.96641881,6135e006383e6ea6c3d06a28,61364abf0433ee40764f7195,"[""comma"",""period""]",0,"[1.2175000000000011,1.617999999999995]",5,0,5,0,1
,,,,,,,6127536826b588a22030e76e,,,,,,6127536826b588a22030e76e,Mężczyzna,20,2021-09-06_19h07.40.116,rantool2,2021.1.4,Win32,59.96641881,6135e006383e6ea6c3d06a28,61364abf0433ee40764f7195,0,0,,6,0,6,0,1
,,,,,,,6127536826b588a22030e76e,,,,,,6127536826b588a22030e76e,Mężczyzna,20,2021-09-06_19h07.40.116,rantool2,2021.1.4,Win32,59.96641881,6135e006383e6ea6c3d06a28,61364abf0433ee40764f7195,"[""comma"",""period""]",0,"[0.8837999999523163,0.9209999999999923]",7,0,7,0,1
,,,,,,,6127536826b588a22030e76e,,,,,,6127536826b588a22030e76e,Mężczyzna,20,2021-09-06_19h07.40.116,rantool2,2021.1.4,Win32,59.96641881,6135e006383e6ea6c3d06a28,61364abf0433ee40764f7195,"[""period""]",0,[0.36739999985695704],8,0,8,0,1
,,,,,,,6127536826b588a22030e76e,,,,,,6127536826b588a22030e76e,Mężczyzna,20,2021-09-06_19h07.40.116,rantool2,2021.1.4,Win32,59.96641881,6135e006383e6ea6c3d06a28,61364abf0433ee40764f7195,"[""period"",""comma""]",0,"[0.26780000019073213,1.1004999999999825]",9,0,9,0,1
,,,,,,,6127536826b588a22030e76e,,,,,,6127536826b588a22030e76e,Mężczyzna,20,2021-09-06_19h07.40.116,rantool2,2021.1.4,Win32,59.96641881,6135e006383e6ea6c3d06a28,61364abf0433ee40764f7195,"[""period"",""comma"",""period"",""comma"",""period"",""comma"",""period"",""comma"",""period""]",0,"[0.05139999985695454,0.3508999998569493,0.6201999998092731,0.8507999999523292,1.0690000000000168,1.2676999998092526,1.483899999856959,1.6837999999522992,1.8905999999046514]",10,0,10,0,1
,,,,,,,6127536826b588a22030e76e,,,,,,6127536826b588a22030e76e,Mężczyzna,20,2021-09-06_19h07.40.116,rantool2,2021.1.4,Win32,59.96641881,6135e006383e6ea6c3d06a28,61364abf0433ee40764f7195,"[""period"",""comma"",""period"",""comma"",""period"",""comma"",""period"",""comma"",""comma"",""period"",""period"",""comma"",""period""]",0,"[0.43520000004770054,0.6342999999523045,0.8172999999522972,0.9022999999523336,1.0842000000477015,1.1080999999045957,1.290899999856947,1.3022999999523108,1.486799999952325,1.5010999999046248,1.700700000047675,1.7194999999999823,1.8840999999046062]",11,0,11,0,1
,,,,,,,6127536826b588a22030e76e,,,,,,6127536826b588a22030e76e,Mężczyzna,20,2021-09-06_19h07.40.116,rantool2,2021.1.4,Win32,59.96641881,6135e006383e6ea6c3d06a28,61364abf0433ee40764f7195,"[""period"",""comma"",""comma"",""period"",""period"",""comma"",""period"",""comma"",""comma"",""period"",""comma"",""comma"",""period"",""comma"",""period"",""comma"",""period"",""comma"",""period"",""comma""]",0,"[0.051099999904636206,0.057799999952294456,0.22259999990461665,0.23449999999996862,0.418099999904598,0.43439999985690747,0.6341999998092547,0.6360999999046157,0.8015999999046244,0.8515999999046358,0.9855999999045935,1.1671999998092701,1.1719999999999686,1.352899999856902,1.3671999998092588,1.5385999999045907,1.5510999999046362,1.717399999856923,1.7338999998569307,1.9004999999999654]",12,0,12,0,1
,,,,,,,6127536826b588a22030e76e,,,,,,6127536826b588a22030e76e,Mężczyzna,20,2021-09-06_19h07.40.116,rantool2,2021.1.4,Win32,59.96641881,6135e006383e6ea6c3d06a28,61364abf0433ee40764f7195,"[""comma"",""period"",""period"",""comma"",""period"",""comma"",""comma"",""period"",""period"",""comma"",""period"",""comma"",""comma"",""period""]",0,"[0.08460000014304114,0.1009000000953506,0.28510000014301795,0.30079999995228945,0.7346000001430184,0.768900000095357,0.9506000001430266,0.952100000143048,1.134999999999991,1.1512000000476519,1.3177000000476369,1.334100000143053,1.470400000095367,1.5004999999999882]",13,0,13,0,1
,,,,,,,6127536826b588a22030e76e,,,,,,6127536826b588a22030e76e,Mężczyzna,20,2021-09-06_19h07.40.116,rantool2,2021.1.4,Win32,59.96641881,6135e006383e6ea6c3d06a28,61364abf0433ee40764f7195,0,0,,14,0,14,0,1
,,,,,,,6127536826b588a22030e76e,,,,,,6127536826b588a22030e76e,Mężczyzna,20,2021-09-06_19h07.40.116,rantool2,2021.1.4,Win32,59.96641881,6135e006383e6ea6c3d06a28,61364abf0433ee40764f7195,"[""period"",""comma"",""comma"",""period"",""comma""]",0,"[0.7864000000953411,1.2357999999522917,1.5217000000477015,1.7032999999523213,1.953400000095371]",15,0,15,0,1
,,,,,,,6127536826b588a22030e76e,,,,,,6127536826b588a22030e76e,Mężczyzna,20,2021-09-06_19h07.40.116,rantool2,2021.1.4,Win32,59.96641881,6135e006383e6ea6c3d06a28,61364abf0433ee40764f7195,"[""period"",""comma"",""period"",""period"",""comma"",""period""]",0,"[0.11750000000000682,0.46790000009536925,0.8502000000476642,1.2837999999522935,1.440499999999986,1.836500000000001]",16,0,16,0,1
,,,,,,,6127536826b588a22030e76e,,,,,,6127536826b588a22030e76e,Mężczyzna,20,2021-09-06_19h07.40.116,rantool2,2021.1.4,Win32,59.96641881,6135e006383e6ea6c3d06a28,61364abf0433ee40764f7195,"[""comma"",""period"",""comma"",""comma"",""period"",""comma"",""period"",""comma"",""period""]",0,"[-0.016000000000019554,0.500600000143038,0.5204000000953783,0.9671000001430343,1.0015000000000214,1.3865000000000123,1.402800000190723,1.8172000000477055,1.8344000000953429]",17,0,17,0,1
,,,,,,,6127536826b588a22030e76e,,,,,,6127536826b588a22030e76e,Mężczyzna,20,2021-09-06_19h07.40.116,rantool2,2021.1.4,Win32,59.96641881,6135e006383e6ea6c3d06a28,61364abf0433ee40764f7195,"[""period"",""comma"",""period"",""comma"",""period"",""comma"",""period"",""comma"",""period""]",0,"[0.26779999995233084,0.2742000000476992,0.5842999999522931,0.8505999999046594,1.1337999999523163,1.3170999999046558,1.5838999998569534,1.61720000004766,1.900599999904614]",18,0,18,0,1
,,,,,,,6127536826b588a22030e76e,,,,,,6127536826b588a22030e76e,Mężczyzna,20,2021-09-06_19h07.40.116,rantool2,2021.1.4,Win32,59.96641881,6135e006383e6ea6c3d06a28,61364abf0433ee40764f7195,"[""period"",""comma"",""comma"",""period"",""comma"",""period"",""comma"",""period"",""comma""]",0,"[0.18429999995231583,0.3885999999046703,0.6380000000000337,0.8340000000000032,1.0339999999999918,1.2672999999523427,1.4680000000000177,1.655099999904678,1.8240000000000123]",19,0,19,0,1
,,,,,,,6127536826b588a22030e76e,,,,,,6127536826b588a22030e76e,Mężczyzna,20,2021-09-06_19h07.40.116,rantool2,2021.1.4,Win32,59.96641881,6135e006383e6ea6c3d06a28,61364abf0433ee40764f7195,"[""period"",""period"",""comma"",""period"",""comma"",""period"",""period"",""comma"",""comma"",""period""]",0,"[0.017299999952285816,0.3337999999523049,0.5707999999523281,0.7836999998092438,0.9668999998569348,1.1507999999523122,1.550599999904648,1.603699999809237,1.8837999999523163,1.906799999952284]",20,0,20,0,1
,,,,,,,6127536826b588a22030e76e,,,,,,6127536826b588a22030e76e,Mężczyzna,20,2021-09-06_19h07.40.116,rantool2,2021.1.4,Win32,59.96641881,6135e006383e6ea6c3d06a28,61364abf0433ee40764f7195,"[""comma"",""period"",""period"",""comma"",""period"",""comma"",""comma"",""period"",""period"",""comma"",""period"",""comma"",""period"",""comma"",""period"",""comma"",""period"",""comma"",""period"",""comma""]",0,"[0.13490000009534242,0.13700000000000045,0.3404000000953715,0.35120000004769736,0.5008000001907362,0.5209000000953665,0.7010000000000218,0.7012000000476633,1.0507000000476978,1.0548000001907099,1.2078000001907299,1.2189000000953456,1.4004000000953738,1.405200000047671,1.5839000000953547,1.5906000001430698,1.750600000143038,1.754600000143057,1.9229000000953533,1.9344000000953656]",21,0,21,0,1
,,,,,,,6127536826b588a22030e76e,,,,,,6127536826b588a22030e76e,Mężczyzna,20,2021-09-06_19h07.40.116,rantool2,2021.1.4,Win32,59.96641881,6135e006383e6ea6c3d06a28,61364abf0433ee40764f7195,"[""comma"",""period"",""period"",""comma"",""comma"",""period"",""period"",""comma"",""period"",""period"",""comma"",""period"",""comma"",""period"",""comma"",""period""]",0,"[0.11729999995230855,0.12390000009537516,0.3007000000476978,0.3025000000000091,0.4886000001430375,0.5009000000953279,0.7012000000476633,0.9699999999999704,0.9867000000476764,1.1884999999999764,1.2672000000476942,1.4041000001430461,1.5017000000476628,1.653799999952298,1.7919999999999732,1.9244000000953747]",22,0,22,0,1
,,,,,,,6127536826b588a22030e76e,,,,,,6127536826b588a22030e76e,Mężczyzna,20,2021-09-06_19h07.40.116,rantool2,2021.1.4,Win32,59.96641881,6135e006383e6ea6c3d06a28,61364abf0433ee40764f7195,"[""comma"",""period"",""comma"",""period"",""comma"",""period"",""comma"",""period"",""comma"",""period"",""comma"",""period"",""comma"",""comma"",""period""]",0,"[0.05200000000002092,0.19029999995234448,0.3342999999522931,0.46789999985696795,0.5874999999999773,0.7507999999523349,0.8675000000000068,1.0177999999523308,1.1342999999523045,1.3077000000477028,1.405399999856968,1.6022000000476737,1.6352999999523377,1.8740000000000236,1.8845999999046512]",23,0,23,0,1
,,,,,,,6127536826b588a22030e76e,,,,,,6127536826b588a22030e76e,Mężczyzna,20,2021-09-06_19h07.40.116,rantool2,2021.1.4,Win32,59.96641881,6135e006383e6ea6c3d06a28,61364abf0433ee40764f7195,"[""period"",""comma"",""period"",""comma"",""period"",""comma"",""period"",""comma"",""period"",""comma"",""period"",""comma"",""period"",""comma""]",0,"[0.11750000000000682,0.18399999999996908,0.3740999999046153,0.4203999998569543,0.6175000000000068,0.7174999999999727,0.9004999999999654,1.0175999999046326,1.1873999998569502,1.2878999998569611,1.4861999998092301,1.5672999999522972,1.767499999999984,1.8680999999046435]",24,0,24,0,1
,,,,,,,6127536826b588a22030e76e,,,,,,6127536826b588a22030e76e,Mężczyzna,20,2021-09-06_19h07.40.116,rantool2,2021.1.4,Win32,59.96641881,6135e006383e6ea6c3d06a28,61364abf0433ee40764f7195,"[""period"",""comma"",""period"",""comma"",""period"",""comma"",""period"",""comma"",""period"",""comma"",""period"",""comma"",""period"",""comma""]",0,"[0.0340999999046403,0.16829999995229628,0.31759999990464394,0.43409999990461756,0.5844999999999914,0.7241999998092297,0.885199999809231,1.0243999998569393,1.170799999952294,1.340199999809272,1.4685999999045976,1.650599999904614,1.78449999999998,1.9505999999046253]",25,0,25,0,1
,,,,,,,6127536826b588a22030e76e,,,,,,6127536826b588a22030e76e,Mężczyzna,20,2021-09-06_19h07.40.116,rantool2,2021.1.4,Win32,59.96641881,6135e006383e6ea6c3d06a28,61364abf0433ee40764f7195,"[""period"",""comma"",""period"",""comma"",""period"",""comma"",""period"",""comma"",""period"",""comma"",""period"",""period"",""comma"",""period""]",0,"[0.06749999999999545,0.21840000009535743,0.36770000004764825,0.4847999999523154,0.6375999999045803,0.7674999999999841,0.9342999999523158,1.0525999999046007,1.233900000095332,1.3352999999522694,1.5517999999522658,1.5684999999999718,1.6849000000953538,1.8739999999999668]",26,0,26,0,1
,,,,,,,6127536826b588a22030e76e,,,,,,6127536826b588a22030e76e,Mężczyzna,20,2021-09-06_19h07.40.116,rantool2,2021.1.4,Win32,59.96641881,6135e006383e6ea6c3d06a28,61364abf0433ee40764f7195,"[""comma"",""period"",""comma"",""period"",""comma"",""period"",""comma"",""period"",""comma"",""period"",""comma"",""period"",""comma""]",0,"[0.053900000095381984,0.23440000009537698,0.38429999995230446,0.53449999999998,0.684799999952304,0.8340000000000032,0.9674999999999727,1.11720000004766,1.2517000000476628,1.434500000000014,1.6034000000953483,1.7602000000476892,1.901700000047697]",27,0,27,0,1
,,,,,,,6127536826b588a22030e76e,,,,,,6127536826b588a22030e76e,Mężczyzna,20,2021-09-06_19h07.40.116,rantool2,2021.1.4,Win32,59.96641881,6135e006383e6ea6c3d06a28,61364abf0433ee40764f7195,"[""period"",""comma"",""period"",""comma"",""period"",""comma"",""period"",""comma"",""period"",""comma"",""period"",""comma"",""period""]",0,"[0.0875000000000341,0.20370000004771782,0.3889000000953615,0.491400000095382,0.6684999999999945,0.8331000001430766,0.9994000000953633,1.166499999999985,1.3024000000953606,1.4834999999999923,1.6330000000000382,1.7832999999523054,1.9334000000953893]",28,0,28,0,1
,,,,,,,6127536826b588a22030e76e,,,,,,6127536826b588a22030e76e,Mężczyzna,20,2021-09-06_19h07.40.116,rantool2,2021.1.4,Win32,59.96641881,6135e006383e6ea6c3d06a28,61364abf0433ee40764f7195,"[""comma"",""period"",""comma"",""period"",""comma"",""period"",""comma"",""period"",""comma"",""period"",""comma"",""period""]",0,"[0.05009999990460301,0.21779999995231947,0.35020000004766416,0.5502000000476528,0.6835999999046294,0.8667000000476719,0.9997000000476532,1.183200000047691,1.3497999999523245,1.5167000000476492,1.6667000000476833,1.8332999999523167]",29,0,29,0,1
,,,,,,,6127536826b588a22030e76e,,,,,,6127536826b588a22030e76e,Mężczyzna,20,2021-09-06_19h07.40.116,rantool2,2021.1.4,Win32,59.96641881,6135e006383e6ea6c3d06a28,61364abf0433ee40764f7195,"[""comma"",""period"",""comma"",""period"",""comma"",""period"",""comma"",""period"",""comma"",""period"",""comma"",""period""]",0,"[0.0010000000000331966,0.19960000014305024,0.33320000004766825,0.5334000000953552,0.7026000001430361,0.8711000001430875,1.0377999999523126,1.2172999999523313,1.35479999995232,1.5521000001430707,1.7005000000000337,1.8832000000476796]",30,0,30,0,1
,,,,,,,6127536826b588a22030e76e,,,,,,6127536826b588a22030e76e,Mężczyzna,20,2021-09-06_19h07.40.116,rantool2,2021.1.4,Win32,59.96641881,6135e006383e6ea6c3d06a28,61364abf0433ee40764f7195,"[""comma"",""comma"",""period"",""period"",""comma"",""comma"",""period"",""period"",""comma"",""comma"",""period""]",0,"[0.008299999952328108,0.25089999985692657,0.2842000000476901,0.7520000000000095,0.8174999999999955,1.0843999998569416,1.1010999999046476,1.2348999998569639,1.4173999998569684,1.7509999999999764,1.767499999999984]",31,0,31,0,1
,,,,,,,6127536826b588a22030e76e,,,,,,6127536826b588a22030e76e,Mężczyzna,20,2021-09-06_19h07.40.116,rantool2,2021.1.4,Win32,59.96641881,6135e006383e6ea6c3d06a28,61364abf0433ee40764f7195,"[""comma"",""period"",""comma"",""period"",""comma"",""period"",""period"",""period"",""comma""]",0,"[-0.01590000009537107,0.0008999998569265699,0.18429999995231583,0.20139999985696022,0.38450000000000273,0.4008999998569607,0.6345000000000027,0.8342000000477015,1.03420000004769]",32,0,32,0,1
,,,,,,,6127536826b588a22030e76e,,,,,,6127536826b588a22030e76e,Mężczyzna,20,2021-09-06_19h07.40.116,rantool2,2021.1.4,Win32,59.96641881,6135e006383e6ea6c3d06a28,61364abf0433ee40764f7195,"[""period"",""period"",""period"",""period"",""period"",""period"",""period"",""period"",""period"",""period""]",0,"[0.46790000009536925,0.6702999999523058,0.8174999999999955,0.9672000000476828,1.134200000047656,1.2839999999999918,1.4352000000476437,1.6006000001430607,1.7677999999523308,1.9341000001430189]",33,0,33,0,1
,,,,,,,6127536826b588a22030e76e,,,,,,6127536826b588a22030e76e,Mężczyzna,20,2021-09-06_19h07.40.116,rantool2,2021.1.4,Win32,59.96641881,6135e006383e6ea6c3d06a28,61364abf0433ee40764f7195,"[""comma"",""comma"",""comma"",""comma"",""comma"",""comma"",""comma""]",0,"[0.18470000004765552,0.352400000095372,0.53449999999998,0.6844000000953656,1.000799999952278,1.1842999999523158,1.3507000000476523]",34,0,34,0,1
,,,,,,,6127536826b588a22030e76e,,,,,,6127536826b588a22030e76e,Mężczyzna,20,2021-09-06_19h07.40.116,rantool2,2021.1.4,Win32,59.96641881,6135e006383e6ea6c3d06a28,61364abf0433ee40764f7195,"[""period"",""period"",""comma"",""comma"",""period""]",0,"[-0.015300000190734409,0.1506999998092624,0.5677999999522854,0.8008999998569379,0.9507999999523236]",35,0,35,0,1
,,,,,,,6127536826b588a22030e76e,,,,,,6127536826b588a22030e76e,Mężczyzna,20,2021-09-06_19h07.40.116,rantool2,2021.1.4,Win32,59.96641881,6135e006383e6ea6c3d06a28,61364abf0433ee40764f7195,0,0,,36,0,36,0,1
,,,,,,,6127536826b588a22030e76e,,,,,,6127536826b588a22030e76e,Mężczyzna,20,2021-09-06_19h07.40.116,rantool2,2021.1.4,Win32,59.96641881,6135e006383e6ea6c3d06a28,61364abf0433ee40764f7195,0,0,,37,0,37,0,1
,,,,,,,6127536826b588a22030e76e,,,,,,6127536826b588a22030e76e,Mężczyzna,20,2021-09-06_19h07.40.116,rantool2,2021.1.4,Win32,59.96641881,6135e006383e6ea6c3d06a28,61364abf0433ee40764f7195,0,0,,38,0,38,0,1
,,,,,,,6127536826b588a22030e76e,,,,,,6127536826b588a22030e76e,Mężczyzna,20,2021-09-06_19h07.40.116,rantool2,2021.1.4,Win32,59.96641881,6135e006383e6ea6c3d06a28,61364abf0433ee40764f7195,0,0,,39,0,39,0,1
,,,,,,,6127536826b588a22030e76e,,,,,,6127536826b588a22030e76e,Mężczyzna,20,2021-09-06_19h07.40.116,rantool2,2021.1.4,Win32,59.96641881,6135e006383e6ea6c3d06a28,61364abf0433ee40764f7195,0,0,,40,0,40,0,1
,,,,,,,6127536826b588a22030e76e,,,,,,6127536826b588a22030e76e,Mężczyzna,20,2021-09-06_19h07.40.116,rantool2,2021.1.4,Win32,59.96641881,6135e006383e6ea6c3d06a28,61364abf0433ee40764f7195,0,0,,41,0,41,0,1
,,,,,,,6127536826b588a22030e76e,,,,,,6127536826b588a22030e76e,Mężczyzna,20,2021-09-06_19h07.40.116,rantool2,2021.1.4,Win32,59.96641881,6135e006383e6ea6c3d06a28,61364abf0433ee40764f7195,0,0,,42,0,42,0,1
,,,,,,,6127536826b588a22030e76e,,,,,,6127536826b588a22030e76e,Mężczyzna,20,2021-09-06_19h07.40.116,rantool2,2021.1.4,Win32,59.96641881,6135e006383e6ea6c3d06a28,61364abf0433ee40764f7195,"[""comma""]",0,[1.1502000000476755],43,0,43,0,1
,,,,,,,6127536826b588a22030e76e,,,,,,6127536826b588a22030e76e,Mężczyzna,20,2021-09-06_19h07.40.116,rantool2,2021.1.4,Win32,59.96641881,6135e006383e6ea6c3d06a28,61364abf0433ee40764f7195,0,0,,44,0,44,0,1
,,,,,,,6127536826b588a22030e76e,,,,,,6127536826b588a22030e76e,Mężczyzna,20,2021-09-06_19h07.40.116,rantool2,2021.1.4,Win32,59.96641881,6135e006383e6ea6c3d06a28,61364abf0433ee40764f7195,"[""period""]",0,[0.2552000000476937],45,0,45,0,1
,,,,,,,6127536826b588a22030e76e,,,,,,6127536826b588a22030e76e,Mężczyzna,20,2021-09-06_19h07.40.116,rantool2,2021.1.4,Win32,59.96641881,6135e006383e6ea6c3d06a28,61364abf0433ee40764f7195,0,0,,46,0,46,0,1
,,,,,,,6127536826b588a22030e76e,,,,,,6127536826b588a22030e76e,Mężczyzna,20,2021-09-06_19h07.40.116,rantool2,2021.1.4,Win32,59.96641881,6135e006383e6ea6c3d06a28,61364abf0433ee40764f7195,"[""period""]",0,[1.7839000000953433],47,0,47,0,1
,,,,,,,6127536826b588a22030e76e,,,,,,6127536826b588a22030e76e,Mężczyzna,20,2021-09-06_19h07.40.116,rantool2,2021.1.4,Win32,59.96641881,6135e006383e6ea6c3d06a28,61364abf0433ee40764f7195,0,0,,48,0,48,0,1
,,,,,,,6127536826b588a22030e76e,,,,,,6127536826b588a22030e76e,Mężczyzna,20,2021-09-06_19h07.40.116,rantool2,2021.1.4,Win32,59.96641881,6135e006383e6ea6c3d06a28,61364abf0433ee40764f7195,"[""period"",""comma"",""period""]",0,"[0.05059999990464803,0.6177999999523536,0.8368999998569393]",49,0,49,0,1
,,,,,,,6127536826b588a22030e76e,,,,,,6127536826b588a22030e76e,Mężczyzna,20,2021-09-06_19h07.40.116,rantool2,2021.1.4,Win32,59.96641881,6135e006383e6ea6c3d06a28,61364abf0433ee40764f7195,"[""period"",""period"",""comma"",""period"",""period""]",0,"[0.01790000009538062,0.48420000004773556,0.8007999999523463,1.0787000000477178,1.434000000000026]",50,0,50,0,1
,,,,,,,6127536826b588a22030e76e,,,,,,6127536826b588a22030e76e,Mężczyzna,20,2021-09-06_19h07.40.116,rantool2,2021.1.4,Win32,59.96641881,6135e006383e6ea6c3d06a28,61364abf0433ee40764f7195,"[""period""]",0,[0.9013999998569489],51,0,51,0,1
,,,,,,,6127536826b588a22030e76e,,,,,,6127536826b588a22030e76e,Mężczyzna,20,2021-09-06_19h07.40.116,rantool2,2021.1.4,Win32,59.96641881,6135e006383e6ea6c3d06a28,61364abf0433ee40764f7195,"[""period"",""comma""]",0,"[1.0175999999046326,1.2172999999522744]",52,0,52,0,1
,,,,,,,6127536826b588a22030e76e,,,,,,6127536826b588a22030e76e,Mężczyzna,20,2021-09-06_19h07.40.116,rantool2,2021.1.4,Win32,59.96641881,6135e006383e6ea6c3d06a28,61364abf0433ee40764f7195,0,0,,53,0,53,0,1
,,,,,,,6127536826b588a22030e76e,,,,,,6127536826b588a22030e76e,Mężczyzna,20,2021-09-06_19h07.40.116,rantool2,2021.1.4,Win32,59.96641881,6135e006383e6ea6c3d06a28,61364abf0433ee40764f7195,0,0,,54,0,54,0,1
