key_resp_5.keys,key_resp_5.corr,key_resp_5.rt,trials.thisRepN,trials.thisTrialN,trials.thisN,trials.thisIndex,trials.ran,id*,Płeć*,Wiek*,date,expName,psychopyVersion,OS,frameRate,id,STUDY_ID,SESSION_ID,key_resp_7.keys,key_resp_7.rt,trials_2.thisRepN,trials_2.thisTrialN,trials_2.thisN,trials_2.thisIndex,trials_2.ran,series_0,series_1,acss_0,acss_1,comparison
"[""comma""]",0,[0.6824300000007497],0,0,0,0,1,5fae721319e73f2ff0c6605a,Mężczyzna,20,2021-07-13_22h05.47.924,rantool2,2021.1.4,Win32,59.93048064,5fae721319e73f2ff0c6605a,60d9d14f4a8a35a482e0d9bf,60edf16c4ab58a43952bd520,,,,,,,,,,,,
"[""period""]",0,[0.5690049999975599],1,0,1,0,1,5fae721319e73f2ff0c6605a,Mężczyzna,20,2021-07-13_22h05.47.924,rantool2,2021.1.4,Win32,59.93048064,5fae721319e73f2ff0c6605a,60d9d14f4a8a35a482e0d9bf,60edf16c4ab58a43952bd520,,,,,,,,,,,,
"[""comma""]",0,[0.6124300000083167],2,0,2,0,1,5fae721319e73f2ff0c6605a,Mężczyzna,20,2021-07-13_22h05.47.924,rantool2,2021.1.4,Win32,59.93048064,5fae721319e73f2ff0c6605a,60d9d14f4a8a35a482e0d9bf,60edf16c4ab58a43952bd520,,,,,,,,,,,,
"[""comma""]",0,[0.4759100000082981],3,0,3,0,1,5fae721319e73f2ff0c6605a,Mężczyzna,20,2021-07-13_22h05.47.924,rantool2,2021.1.4,Win32,59.93048064,5fae721319e73f2ff0c6605a,60d9d14f4a8a35a482e0d9bf,60edf16c4ab58a43952bd520,,,,,,,,,,,,
"[""period""]",0,[0.31083000000217],4,0,4,0,1,5fae721319e73f2ff0c6605a,Mężczyzna,20,2021-07-13_22h05.47.924,rantool2,2021.1.4,Win32,59.93048064,5fae721319e73f2ff0c6605a,60d9d14f4a8a35a482e0d9bf,60edf16c4ab58a43952bd520,,,,,,,,,,,,
"[""period""]",0,[0.4943199999979697],5,0,5,0,1,5fae721319e73f2ff0c6605a,Mężczyzna,20,2021-07-13_22h05.47.924,rantool2,2021.1.4,Win32,59.93048064,5fae721319e73f2ff0c6605a,60d9d14f4a8a35a482e0d9bf,60edf16c4ab58a43952bd520,,,,,,,,,,,,
"[""comma""]",0,[0.36856499999703374],6,0,6,0,1,5fae721319e73f2ff0c6605a,Mężczyzna,20,2021-07-13_22h05.47.924,rantool2,2021.1.4,Win32,59.93048064,5fae721319e73f2ff0c6605a,60d9d14f4a8a35a482e0d9bf,60edf16c4ab58a43952bd520,,,,,,,,,,,,
"[""period""]",0,[0.2983150000072783],7,0,7,0,1,5fae721319e73f2ff0c6605a,Mężczyzna,20,2021-07-13_22h05.47.924,rantool2,2021.1.4,Win32,59.93048064,5fae721319e73f2ff0c6605a,60d9d14f4a8a35a482e0d9bf,60edf16c4ab58a43952bd520,,,,,,,,,,,,
"[""comma""]",0,[0.3498249999975087],8,0,8,0,1,5fae721319e73f2ff0c6605a,Mężczyzna,20,2021-07-13_22h05.47.924,rantool2,2021.1.4,Win32,59.93048064,5fae721319e73f2ff0c6605a,60d9d14f4a8a35a482e0d9bf,60edf16c4ab58a43952bd520,,,,,,,,,,,,
"[""comma""]",0,[0.3640250000025844],9,0,9,0,1,5fae721319e73f2ff0c6605a,Mężczyzna,20,2021-07-13_22h05.47.924,rantool2,2021.1.4,Win32,59.93048064,5fae721319e73f2ff0c6605a,60d9d14f4a8a35a482e0d9bf,60edf16c4ab58a43952bd520,,,,,,,,,,,,
"[""period""]",0,[0.25148999999510124],10,0,10,0,1,5fae721319e73f2ff0c6605a,Mężczyzna,20,2021-07-13_22h05.47.924,rantool2,2021.1.4,Win32,59.93048064,5fae721319e73f2ff0c6605a,60d9d14f4a8a35a482e0d9bf,60edf16c4ab58a43952bd520,,,,,,,,,,,,
"[""period""]",0,[0.3062999999965541],11,0,11,0,1,5fae721319e73f2ff0c6605a,Mężczyzna,20,2021-07-13_22h05.47.924,rantool2,2021.1.4,Win32,59.93048064,5fae721319e73f2ff0c6605a,60d9d14f4a8a35a482e0d9bf,60edf16c4ab58a43952bd520,,,,,,,,,,,,
"[""comma""]",0,[0.31994999999005813],12,0,12,0,1,5fae721319e73f2ff0c6605a,Mężczyzna,20,2021-07-13_22h05.47.924,rantool2,2021.1.4,Win32,59.93048064,5fae721319e73f2ff0c6605a,60d9d14f4a8a35a482e0d9bf,60edf16c4ab58a43952bd520,,,,,,,,,,,,
"[""period""]",0,[0.38850499999534804],13,0,13,0,1,5fae721319e73f2ff0c6605a,Mężczyzna,20,2021-07-13_22h05.47.924,rantool2,2021.1.4,Win32,59.93048064,5fae721319e73f2ff0c6605a,60d9d14f4a8a35a482e0d9bf,60edf16c4ab58a43952bd520,,,,,,,,,,,,
"[""comma""]",0,[0.2784150000079535],14,0,14,0,1,5fae721319e73f2ff0c6605a,Mężczyzna,20,2021-07-13_22h05.47.924,rantool2,2021.1.4,Win32,59.93048064,5fae721319e73f2ff0c6605a,60d9d14f4a8a35a482e0d9bf,60edf16c4ab58a43952bd520,,,,,,,,,,,,
"[""comma""]",0,[0.2749749999929918],15,0,15,0,1,5fae721319e73f2ff0c6605a,Mężczyzna,20,2021-07-13_22h05.47.924,rantool2,2021.1.4,Win32,59.93048064,5fae721319e73f2ff0c6605a,60d9d14f4a8a35a482e0d9bf,60edf16c4ab58a43952bd520,,,,,,,,,,,,
"[""comma""]",0,[0.2925950000062585],16,0,16,0,1,5fae721319e73f2ff0c6605a,Mężczyzna,20,2021-07-13_22h05.47.924,rantool2,2021.1.4,Win32,59.93048064,5fae721319e73f2ff0c6605a,60d9d14f4a8a35a482e0d9bf,60edf16c4ab58a43952bd520,,,,,,,,,,,,
"[""period""]",0,[0.23464500000409316],17,0,17,0,1,5fae721319e73f2ff0c6605a,Mężczyzna,20,2021-07-13_22h05.47.924,rantool2,2021.1.4,Win32,59.93048064,5fae721319e73f2ff0c6605a,60d9d14f4a8a35a482e0d9bf,60edf16c4ab58a43952bd520,,,,,,,,,,,,
"[""period""]",0,[0.46752000000560656],18,0,18,0,1,5fae721319e73f2ff0c6605a,Mężczyzna,20,2021-07-13_22h05.47.924,rantool2,2021.1.4,Win32,59.93048064,5fae721319e73f2ff0c6605a,60d9d14f4a8a35a482e0d9bf,60edf16c4ab58a43952bd520,,,,,,,,,,,,
"[""comma""]",0,[0.3191450000012992],19,0,19,0,1,5fae721319e73f2ff0c6605a,Mężczyzna,20,2021-07-13_22h05.47.924,rantool2,2021.1.4,Win32,59.93048064,5fae721319e73f2ff0c6605a,60d9d14f4a8a35a482e0d9bf,60edf16c4ab58a43952bd520,,,,,,,,,,,,
"[""period""]",0,[0.2623699999967357],20,0,20,0,1,5fae721319e73f2ff0c6605a,Mężczyzna,20,2021-07-13_22h05.47.924,rantool2,2021.1.4,Win32,59.93048064,5fae721319e73f2ff0c6605a,60d9d14f4a8a35a482e0d9bf,60edf16c4ab58a43952bd520,,,,,,,,,,,,
"[""period""]",0,[0.4318900000071153],21,0,21,0,1,5fae721319e73f2ff0c6605a,Mężczyzna,20,2021-07-13_22h05.47.924,rantool2,2021.1.4,Win32,59.93048064,5fae721319e73f2ff0c6605a,60d9d14f4a8a35a482e0d9bf,60edf16c4ab58a43952bd520,,,,,,,,,,,,
"[""comma""]",0,[0.4139500000019325],22,0,22,0,1,5fae721319e73f2ff0c6605a,Mężczyzna,20,2021-07-13_22h05.47.924,rantool2,2021.1.4,Win32,59.93048064,5fae721319e73f2ff0c6605a,60d9d14f4a8a35a482e0d9bf,60edf16c4ab58a43952bd520,,,,,,,,,,,,
"[""comma""]",0,[0.3184199999959674],23,0,23,0,1,5fae721319e73f2ff0c6605a,Mężczyzna,20,2021-07-13_22h05.47.924,rantool2,2021.1.4,Win32,59.93048064,5fae721319e73f2ff0c6605a,60d9d14f4a8a35a482e0d9bf,60edf16c4ab58a43952bd520,,,,,,,,,,,,
"[""comma""]",0,[0.34592000000702683],24,0,24,0,1,5fae721319e73f2ff0c6605a,Mężczyzna,20,2021-07-13_22h05.47.924,rantool2,2021.1.4,Win32,59.93048064,5fae721319e73f2ff0c6605a,60d9d14f4a8a35a482e0d9bf,60edf16c4ab58a43952bd520,,,,,,,,,,,,
"[""period""]",0,[0.33030000000144355],25,0,25,0,1,5fae721319e73f2ff0c6605a,Mężczyzna,20,2021-07-13_22h05.47.924,rantool2,2021.1.4,Win32,59.93048064,5fae721319e73f2ff0c6605a,60d9d14f4a8a35a482e0d9bf,60edf16c4ab58a43952bd520,,,,,,,,,,,,
"[""comma""]",0,[0.29923999999300577],26,0,26,0,1,5fae721319e73f2ff0c6605a,Mężczyzna,20,2021-07-13_22h05.47.924,rantool2,2021.1.4,Win32,59.93048064,5fae721319e73f2ff0c6605a,60d9d14f4a8a35a482e0d9bf,60edf16c4ab58a43952bd520,,,,,,,,,,,,
"[""period""]",0,[0.24735999999393243],27,0,27,0,1,5fae721319e73f2ff0c6605a,Mężczyzna,20,2021-07-13_22h05.47.924,rantool2,2021.1.4,Win32,59.93048064,5fae721319e73f2ff0c6605a,60d9d14f4a8a35a482e0d9bf,60edf16c4ab58a43952bd520,,,,,,,,,,,,
"[""period""]",0,[0.29547500000626314],28,0,28,0,1,5fae721319e73f2ff0c6605a,Mężczyzna,20,2021-07-13_22h05.47.924,rantool2,2021.1.4,Win32,59.93048064,5fae721319e73f2ff0c6605a,60d9d14f4a8a35a482e0d9bf,60edf16c4ab58a43952bd520,,,,,,,,,,,,
"[""comma""]",0,[0.30576500001188833],29,0,29,0,1,5fae721319e73f2ff0c6605a,Mężczyzna,20,2021-07-13_22h05.47.924,rantool2,2021.1.4,Win32,59.93048064,5fae721319e73f2ff0c6605a,60d9d14f4a8a35a482e0d9bf,60edf16c4ab58a43952bd520,,,,,,,,,,,,
"[""period""]",0,[0.0774950000050012],30,0,30,0,1,5fae721319e73f2ff0c6605a,Mężczyzna,20,2021-07-13_22h05.47.924,rantool2,2021.1.4,Win32,59.93048064,5fae721319e73f2ff0c6605a,60d9d14f4a8a35a482e0d9bf,60edf16c4ab58a43952bd520,,,,,,,,,,,,
"[""period""]",0,[0.22577000000455882],31,0,31,0,1,5fae721319e73f2ff0c6605a,Mężczyzna,20,2021-07-13_22h05.47.924,rantool2,2021.1.4,Win32,59.93048064,5fae721319e73f2ff0c6605a,60d9d14f4a8a35a482e0d9bf,60edf16c4ab58a43952bd520,,,,,,,,,,,,
"[""comma""]",0,[0.2534649999870453],32,0,32,0,1,5fae721319e73f2ff0c6605a,Mężczyzna,20,2021-07-13_22h05.47.924,rantool2,2021.1.4,Win32,59.93048064,5fae721319e73f2ff0c6605a,60d9d14f4a8a35a482e0d9bf,60edf16c4ab58a43952bd520,,,,,,,,,,,,
"[""period""]",0,[0.37548999999125954],33,0,33,0,1,5fae721319e73f2ff0c6605a,Mężczyzna,20,2021-07-13_22h05.47.924,rantool2,2021.1.4,Win32,59.93048064,5fae721319e73f2ff0c6605a,60d9d14f4a8a35a482e0d9bf,60edf16c4ab58a43952bd520,,,,,,,,,,,,
"[""comma""]",0,[0.5860549999924842],34,0,34,0,1,5fae721319e73f2ff0c6605a,Mężczyzna,20,2021-07-13_22h05.47.924,rantool2,2021.1.4,Win32,59.93048064,5fae721319e73f2ff0c6605a,60d9d14f4a8a35a482e0d9bf,60edf16c4ab58a43952bd520,,,,,,,,,,,,
"[""period""]",0,[0.26898499998787884],35,0,35,0,1,5fae721319e73f2ff0c6605a,Mężczyzna,20,2021-07-13_22h05.47.924,rantool2,2021.1.4,Win32,59.93048064,5fae721319e73f2ff0c6605a,60d9d14f4a8a35a482e0d9bf,60edf16c4ab58a43952bd520,,,,,,,,,,,,
"[""period""]",0,[0.21872000000439584],36,0,36,0,1,5fae721319e73f2ff0c6605a,Mężczyzna,20,2021-07-13_22h05.47.924,rantool2,2021.1.4,Win32,59.93048064,5fae721319e73f2ff0c6605a,60d9d14f4a8a35a482e0d9bf,60edf16c4ab58a43952bd520,,,,,,,,,,,,
"[""period""]",0,[0.422260000006645],37,0,37,0,1,5fae721319e73f2ff0c6605a,Mężczyzna,20,2021-07-13_22h05.47.924,rantool2,2021.1.4,Win32,59.93048064,5fae721319e73f2ff0c6605a,60d9d14f4a8a35a482e0d9bf,60edf16c4ab58a43952bd520,,,,,,,,,,,,
"[""comma""]",0,[0.4144099999975879],38,0,38,0,1,5fae721319e73f2ff0c6605a,Mężczyzna,20,2021-07-13_22h05.47.924,rantool2,2021.1.4,Win32,59.93048064,5fae721319e73f2ff0c6605a,60d9d14f4a8a35a482e0d9bf,60edf16c4ab58a43952bd520,,,,,,,,,,,,
"[""period""]",0,[0.3289399999921443],39,0,39,0,1,5fae721319e73f2ff0c6605a,Mężczyzna,20,2021-07-13_22h05.47.924,rantool2,2021.1.4,Win32,59.93048064,5fae721319e73f2ff0c6605a,60d9d14f4a8a35a482e0d9bf,60edf16c4ab58a43952bd520,,,,,,,,,,,,
"[""comma""]",0,[0.4040249999961816],40,0,40,0,1,5fae721319e73f2ff0c6605a,Mężczyzna,20,2021-07-13_22h05.47.924,rantool2,2021.1.4,Win32,59.93048064,5fae721319e73f2ff0c6605a,60d9d14f4a8a35a482e0d9bf,60edf16c4ab58a43952bd520,,,,,,,,,,,,
"[""period""]",0,[0.254849999997532],41,0,41,0,1,5fae721319e73f2ff0c6605a,Mężczyzna,20,2021-07-13_22h05.47.924,rantool2,2021.1.4,Win32,59.93048064,5fae721319e73f2ff0c6605a,60d9d14f4a8a35a482e0d9bf,60edf16c4ab58a43952bd520,,,,,,,,,,,,
"[""comma""]",0,[0.393049999998766],42,0,42,0,1,5fae721319e73f2ff0c6605a,Mężczyzna,20,2021-07-13_22h05.47.924,rantool2,2021.1.4,Win32,59.93048064,5fae721319e73f2ff0c6605a,60d9d14f4a8a35a482e0d9bf,60edf16c4ab58a43952bd520,,,,,,,,,,,,
"[""period""]",0,[0.36630999999761116],43,0,43,0,1,5fae721319e73f2ff0c6605a,Mężczyzna,20,2021-07-13_22h05.47.924,rantool2,2021.1.4,Win32,59.93048064,5fae721319e73f2ff0c6605a,60d9d14f4a8a35a482e0d9bf,60edf16c4ab58a43952bd520,,,,,,,,,,,,
"[""period""]",0,[0.3062250000075437],44,0,44,0,1,5fae721319e73f2ff0c6605a,Mężczyzna,20,2021-07-13_22h05.47.924,rantool2,2021.1.4,Win32,59.93048064,5fae721319e73f2ff0c6605a,60d9d14f4a8a35a482e0d9bf,60edf16c4ab58a43952bd520,,,,,,,,,,,,
"[""comma""]",0,[0.34549999999580905],45,0,45,0,1,5fae721319e73f2ff0c6605a,Mężczyzna,20,2021-07-13_22h05.47.924,rantool2,2021.1.4,Win32,59.93048064,5fae721319e73f2ff0c6605a,60d9d14f4a8a35a482e0d9bf,60edf16c4ab58a43952bd520,,,,,,,,,,,,
"[""comma""]",0,[0.4084899999870686],46,0,46,0,1,5fae721319e73f2ff0c6605a,Mężczyzna,20,2021-07-13_22h05.47.924,rantool2,2021.1.4,Win32,59.93048064,5fae721319e73f2ff0c6605a,60d9d14f4a8a35a482e0d9bf,60edf16c4ab58a43952bd520,,,,,,,,,,,,
"[""period""]",0,[0.3913450000109151],47,0,47,0,1,5fae721319e73f2ff0c6605a,Mężczyzna,20,2021-07-13_22h05.47.924,rantool2,2021.1.4,Win32,59.93048064,5fae721319e73f2ff0c6605a,60d9d14f4a8a35a482e0d9bf,60edf16c4ab58a43952bd520,,,,,,,,,,,,
"[""comma""]",0,[0.5281050000048708],48,0,48,0,1,5fae721319e73f2ff0c6605a,Mężczyzna,20,2021-07-13_22h05.47.924,rantool2,2021.1.4,Win32,59.93048064,5fae721319e73f2ff0c6605a,60d9d14f4a8a35a482e0d9bf,60edf16c4ab58a43952bd520,,,,,,,,,,,,
"[""period""]",0,[0.5871200000110548],49,0,49,0,1,5fae721319e73f2ff0c6605a,Mężczyzna,20,2021-07-13_22h05.47.924,rantool2,2021.1.4,Win32,59.93048064,5fae721319e73f2ff0c6605a,60d9d14f4a8a35a482e0d9bf,60edf16c4ab58a43952bd520,,,,,,,,,,,,
"[""period""]",0,[0.28673500000149943],50,0,50,0,1,5fae721319e73f2ff0c6605a,Mężczyzna,20,2021-07-13_22h05.47.924,rantool2,2021.1.4,Win32,59.93048064,5fae721319e73f2ff0c6605a,60d9d14f4a8a35a482e0d9bf,60edf16c4ab58a43952bd520,,,,,,,,,,,,
"[""comma""]",0,[0.26929500000551343],51,0,51,0,1,5fae721319e73f2ff0c6605a,Mężczyzna,20,2021-07-13_22h05.47.924,rantool2,2021.1.4,Win32,59.93048064,5fae721319e73f2ff0c6605a,60d9d14f4a8a35a482e0d9bf,60edf16c4ab58a43952bd520,,,,,,,,,,,,
"[""period""]",0,[0.26770500000566244],52,0,52,0,1,5fae721319e73f2ff0c6605a,Mężczyzna,20,2021-07-13_22h05.47.924,rantool2,2021.1.4,Win32,59.93048064,5fae721319e73f2ff0c6605a,60d9d14f4a8a35a482e0d9bf,60edf16c4ab58a43952bd520,,,,,,,,,,,,
"[""comma""]",0,[0.29284999999799766],53,0,53,0,1,5fae721319e73f2ff0c6605a,Mężczyzna,20,2021-07-13_22h05.47.924,rantool2,2021.1.4,Win32,59.93048064,5fae721319e73f2ff0c6605a,60d9d14f4a8a35a482e0d9bf,60edf16c4ab58a43952bd520,,,,,,,,,,,,
"[""comma""]",0,[0.23839500000758562],54,0,54,0,1,5fae721319e73f2ff0c6605a,Mężczyzna,20,2021-07-13_22h05.47.924,rantool2,2021.1.4,Win32,59.93048064,5fae721319e73f2ff0c6605a,60d9d14f4a8a35a482e0d9bf,60edf16c4ab58a43952bd520,,,,,,,,,,,,
"[""period""]",0,[0.2520700000022771],55,0,55,0,1,5fae721319e73f2ff0c6605a,Mężczyzna,20,2021-07-13_22h05.47.924,rantool2,2021.1.4,Win32,59.93048064,5fae721319e73f2ff0c6605a,60d9d14f4a8a35a482e0d9bf,60edf16c4ab58a43952bd520,,,,,,,,,,,,
"[""comma""]",0,[0.3035600000002887],56,0,56,0,1,5fae721319e73f2ff0c6605a,Mężczyzna,20,2021-07-13_22h05.47.924,rantool2,2021.1.4,Win32,59.93048064,5fae721319e73f2ff0c6605a,60d9d14f4a8a35a482e0d9bf,60edf16c4ab58a43952bd520,,,,,,,,,,,,
"[""comma""]",0,[0.3124800000077812],57,0,57,0,1,5fae721319e73f2ff0c6605a,Mężczyzna,20,2021-07-13_22h05.47.924,rantool2,2021.1.4,Win32,59.93048064,5fae721319e73f2ff0c6605a,60d9d14f4a8a35a482e0d9bf,60edf16c4ab58a43952bd520,,,,,,,,,,,,
"[""period""]",0,[0.25746999999682885],58,0,58,0,1,5fae721319e73f2ff0c6605a,Mężczyzna,20,2021-07-13_22h05.47.924,rantool2,2021.1.4,Win32,59.93048064,5fae721319e73f2ff0c6605a,60d9d14f4a8a35a482e0d9bf,60edf16c4ab58a43952bd520,,,,,,,,,,,,
"[""comma""]",0,[0.28495999998995103],59,0,59,0,1,5fae721319e73f2ff0c6605a,Mężczyzna,20,2021-07-13_22h05.47.924,rantool2,2021.1.4,Win32,59.93048064,5fae721319e73f2ff0c6605a,60d9d14f4a8a35a482e0d9bf,60edf16c4ab58a43952bd520,,,,,,,,,,,,
"[""period""]",0,[0.2948400000022957],60,0,60,0,1,5fae721319e73f2ff0c6605a,Mężczyzna,20,2021-07-13_22h05.47.924,rantool2,2021.1.4,Win32,59.93048064,5fae721319e73f2ff0c6605a,60d9d14f4a8a35a482e0d9bf,60edf16c4ab58a43952bd520,,,,,,,,,,,,
"[""period""]",0,[0.20276999998895917],61,0,61,0,1,5fae721319e73f2ff0c6605a,Mężczyzna,20,2021-07-13_22h05.47.924,rantool2,2021.1.4,Win32,59.93048064,5fae721319e73f2ff0c6605a,60d9d14f4a8a35a482e0d9bf,60edf16c4ab58a43952bd520,,,,,,,,,,,,
"[""comma""]",0,[0.2400199999974575],62,0,62,0,1,5fae721319e73f2ff0c6605a,Mężczyzna,20,2021-07-13_22h05.47.924,rantool2,2021.1.4,Win32,59.93048064,5fae721319e73f2ff0c6605a,60d9d14f4a8a35a482e0d9bf,60edf16c4ab58a43952bd520,,,,,,,,,,,,
"[""period""]",0,[0.2620699999970384],63,0,63,0,1,5fae721319e73f2ff0c6605a,Mężczyzna,20,2021-07-13_22h05.47.924,rantool2,2021.1.4,Win32,59.93048064,5fae721319e73f2ff0c6605a,60d9d14f4a8a35a482e0d9bf,60edf16c4ab58a43952bd520,,,,,,,,,,,,
"[""period""]",0,[0.22623499999463093],64,0,64,0,1,5fae721319e73f2ff0c6605a,Mężczyzna,20,2021-07-13_22h05.47.924,rantool2,2021.1.4,Win32,59.93048064,5fae721319e73f2ff0c6605a,60d9d14f4a8a35a482e0d9bf,60edf16c4ab58a43952bd520,,,,,,,,,,,,
"[""period""]",0,[0.341694999995525],65,0,65,0,1,5fae721319e73f2ff0c6605a,Mężczyzna,20,2021-07-13_22h05.47.924,rantool2,2021.1.4,Win32,59.93048064,5fae721319e73f2ff0c6605a,60d9d14f4a8a35a482e0d9bf,60edf16c4ab58a43952bd520,,,,,,,,,,,,
"[""comma""]",0,[0.3456199999927776],66,0,66,0,1,5fae721319e73f2ff0c6605a,Mężczyzna,20,2021-07-13_22h05.47.924,rantool2,2021.1.4,Win32,59.93048064,5fae721319e73f2ff0c6605a,60d9d14f4a8a35a482e0d9bf,60edf16c4ab58a43952bd520,,,,,,,,,,,,
"[""period""]",0,[0.35254999999597203],67,0,67,0,1,5fae721319e73f2ff0c6605a,Mężczyzna,20,2021-07-13_22h05.47.924,rantool2,2021.1.4,Win32,59.93048064,5fae721319e73f2ff0c6605a,60d9d14f4a8a35a482e0d9bf,60edf16c4ab58a43952bd520,,,,,,,,,,,,
"[""comma""]",0,[0.3938249999919208],68,0,68,0,1,5fae721319e73f2ff0c6605a,Mężczyzna,20,2021-07-13_22h05.47.924,rantool2,2021.1.4,Win32,59.93048064,5fae721319e73f2ff0c6605a,60d9d14f4a8a35a482e0d9bf,60edf16c4ab58a43952bd520,,,,,,,,,,,,
"[""comma""]",0,[0.2599049999989802],69,0,69,0,1,5fae721319e73f2ff0c6605a,Mężczyzna,20,2021-07-13_22h05.47.924,rantool2,2021.1.4,Win32,59.93048064,5fae721319e73f2ff0c6605a,60d9d14f4a8a35a482e0d9bf,60edf16c4ab58a43952bd520,,,,,,,,,,,,
"[""comma""]",0,[0.3066099999996368],70,0,70,0,1,5fae721319e73f2ff0c6605a,Mężczyzna,20,2021-07-13_22h05.47.924,rantool2,2021.1.4,Win32,59.93048064,5fae721319e73f2ff0c6605a,60d9d14f4a8a35a482e0d9bf,60edf16c4ab58a43952bd520,,,,,,,,,,,,
"[""period""]",0,[0.33463499999197666],71,0,71,0,1,5fae721319e73f2ff0c6605a,Mężczyzna,20,2021-07-13_22h05.47.924,rantool2,2021.1.4,Win32,59.93048064,5fae721319e73f2ff0c6605a,60d9d14f4a8a35a482e0d9bf,60edf16c4ab58a43952bd520,,,,,,,,,,,,
"[""period""]",0,[0.3849749999935739],72,0,72,0,1,5fae721319e73f2ff0c6605a,Mężczyzna,20,2021-07-13_22h05.47.924,rantool2,2021.1.4,Win32,59.93048064,5fae721319e73f2ff0c6605a,60d9d14f4a8a35a482e0d9bf,60edf16c4ab58a43952bd520,,,,,,,,,,,,
"[""comma""]",0,[0.28553500000271015],73,0,73,0,1,5fae721319e73f2ff0c6605a,Mężczyzna,20,2021-07-13_22h05.47.924,rantool2,2021.1.4,Win32,59.93048064,5fae721319e73f2ff0c6605a,60d9d14f4a8a35a482e0d9bf,60edf16c4ab58a43952bd520,,,,,,,,,,,,
"[""period""]",0,[0.36867500000516884],74,0,74,0,1,5fae721319e73f2ff0c6605a,Mężczyzna,20,2021-07-13_22h05.47.924,rantool2,2021.1.4,Win32,59.93048064,5fae721319e73f2ff0c6605a,60d9d14f4a8a35a482e0d9bf,60edf16c4ab58a43952bd520,,,,,,,,,,,,
"[""comma""]",0,[0.35646000000997446],75,0,75,0,1,5fae721319e73f2ff0c6605a,Mężczyzna,20,2021-07-13_22h05.47.924,rantool2,2021.1.4,Win32,59.93048064,5fae721319e73f2ff0c6605a,60d9d14f4a8a35a482e0d9bf,60edf16c4ab58a43952bd520,,,,,,,,,,,,
"[""period""]",0,[0.28910500000347383],76,0,76,0,1,5fae721319e73f2ff0c6605a,Mężczyzna,20,2021-07-13_22h05.47.924,rantool2,2021.1.4,Win32,59.93048064,5fae721319e73f2ff0c6605a,60d9d14f4a8a35a482e0d9bf,60edf16c4ab58a43952bd520,,,,,,,,,,,,
"[""comma""]",0,[0.40864999999757856],77,0,77,0,1,5fae721319e73f2ff0c6605a,Mężczyzna,20,2021-07-13_22h05.47.924,rantool2,2021.1.4,Win32,59.93048064,5fae721319e73f2ff0c6605a,60d9d14f4a8a35a482e0d9bf,60edf16c4ab58a43952bd520,,,,,,,,,,,,
"[""comma""]",0,[0.28525500000978354],78,0,78,0,1,5fae721319e73f2ff0c6605a,Mężczyzna,20,2021-07-13_22h05.47.924,rantool2,2021.1.4,Win32,59.93048064,5fae721319e73f2ff0c6605a,60d9d14f4a8a35a482e0d9bf,60edf16c4ab58a43952bd520,,,,,,,,,,,,
"[""comma""]",0,[0.2600000000093132],79,0,79,0,1,5fae721319e73f2ff0c6605a,Mężczyzna,20,2021-07-13_22h05.47.924,rantool2,2021.1.4,Win32,59.93048064,5fae721319e73f2ff0c6605a,60d9d14f4a8a35a482e0d9bf,60edf16c4ab58a43952bd520,,,,,,,,,,,,
"[""comma""]",0,[0.20895000000018626],80,0,80,0,1,5fae721319e73f2ff0c6605a,Mężczyzna,20,2021-07-13_22h05.47.924,rantool2,2021.1.4,Win32,59.93048064,5fae721319e73f2ff0c6605a,60d9d14f4a8a35a482e0d9bf,60edf16c4ab58a43952bd520,,,,,,,,,,,,
"[""comma""]",0,[0.25144999999611173],81,0,81,0,1,5fae721319e73f2ff0c6605a,Mężczyzna,20,2021-07-13_22h05.47.924,rantool2,2021.1.4,Win32,59.93048064,5fae721319e73f2ff0c6605a,60d9d14f4a8a35a482e0d9bf,60edf16c4ab58a43952bd520,,,,,,,,,,,,
"[""comma""]",0,[0.2748250000004191],82,0,82,0,1,5fae721319e73f2ff0c6605a,Mężczyzna,20,2021-07-13_22h05.47.924,rantool2,2021.1.4,Win32,59.93048064,5fae721319e73f2ff0c6605a,60d9d14f4a8a35a482e0d9bf,60edf16c4ab58a43952bd520,,,,,,,,,,,,
"[""period""]",0,[0.22462999999697786],83,0,83,0,1,5fae721319e73f2ff0c6605a,Mężczyzna,20,2021-07-13_22h05.47.924,rantool2,2021.1.4,Win32,59.93048064,5fae721319e73f2ff0c6605a,60d9d14f4a8a35a482e0d9bf,60edf16c4ab58a43952bd520,,,,,,,,,,,,
"[""period""]",0,[0.08233000000473112],84,0,84,0,1,5fae721319e73f2ff0c6605a,Mężczyzna,20,2021-07-13_22h05.47.924,rantool2,2021.1.4,Win32,59.93048064,5fae721319e73f2ff0c6605a,60d9d14f4a8a35a482e0d9bf,60edf16c4ab58a43952bd520,,,,,,,,,,,,
"[""comma""]",0,[0.2589250000019092],85,0,85,0,1,5fae721319e73f2ff0c6605a,Mężczyzna,20,2021-07-13_22h05.47.924,rantool2,2021.1.4,Win32,59.93048064,5fae721319e73f2ff0c6605a,60d9d14f4a8a35a482e0d9bf,60edf16c4ab58a43952bd520,,,,,,,,,,,,
"[""comma""]",0,[0.35903000000689644],86,0,86,0,1,5fae721319e73f2ff0c6605a,Mężczyzna,20,2021-07-13_22h05.47.924,rantool2,2021.1.4,Win32,59.93048064,5fae721319e73f2ff0c6605a,60d9d14f4a8a35a482e0d9bf,60edf16c4ab58a43952bd520,,,,,,,,,,,,
"[""period""]",0,[0.24780499999178573],87,0,87,0,1,5fae721319e73f2ff0c6605a,Mężczyzna,20,2021-07-13_22h05.47.924,rantool2,2021.1.4,Win32,59.93048064,5fae721319e73f2ff0c6605a,60d9d14f4a8a35a482e0d9bf,60edf16c4ab58a43952bd520,,,,,,,,,,,,
"[""period""]",0,[0.20450500000151806],88,0,88,0,1,5fae721319e73f2ff0c6605a,Mężczyzna,20,2021-07-13_22h05.47.924,rantool2,2021.1.4,Win32,59.93048064,5fae721319e73f2ff0c6605a,60d9d14f4a8a35a482e0d9bf,60edf16c4ab58a43952bd520,,,,,,,,,,,,
"[""comma""]",0,[0.5021850000048289],89,0,89,0,1,5fae721319e73f2ff0c6605a,Mężczyzna,20,2021-07-13_22h05.47.924,rantool2,2021.1.4,Win32,59.93048064,5fae721319e73f2ff0c6605a,60d9d14f4a8a35a482e0d9bf,60edf16c4ab58a43952bd520,,,,,,,,,,,,
"[""period""]",0,[0.37963500000478234],90,0,90,0,1,5fae721319e73f2ff0c6605a,Mężczyzna,20,2021-07-13_22h05.47.924,rantool2,2021.1.4,Win32,59.93048064,5fae721319e73f2ff0c6605a,60d9d14f4a8a35a482e0d9bf,60edf16c4ab58a43952bd520,,,,,,,,,,,,
"[""comma""]",0,[0.30967999999120366],91,0,91,0,1,5fae721319e73f2ff0c6605a,Mężczyzna,20,2021-07-13_22h05.47.924,rantool2,2021.1.4,Win32,59.93048064,5fae721319e73f2ff0c6605a,60d9d14f4a8a35a482e0d9bf,60edf16c4ab58a43952bd520,,,,,,,,,,,,
"[""period""]",0,[0.22722499999508727],92,0,92,0,1,5fae721319e73f2ff0c6605a,Mężczyzna,20,2021-07-13_22h05.47.924,rantool2,2021.1.4,Win32,59.93048064,5fae721319e73f2ff0c6605a,60d9d14f4a8a35a482e0d9bf,60edf16c4ab58a43952bd520,,,,,,,,,,,,
"[""period""]",0,[0.3407849999930477],93,0,93,0,1,5fae721319e73f2ff0c6605a,Mężczyzna,20,2021-07-13_22h05.47.924,rantool2,2021.1.4,Win32,59.93048064,5fae721319e73f2ff0c6605a,60d9d14f4a8a35a482e0d9bf,60edf16c4ab58a43952bd520,,,,,,,,,,,,
"[""period""]",0,[0.27744499999971595],94,0,94,0,1,5fae721319e73f2ff0c6605a,Mężczyzna,20,2021-07-13_22h05.47.924,rantool2,2021.1.4,Win32,59.93048064,5fae721319e73f2ff0c6605a,60d9d14f4a8a35a482e0d9bf,60edf16c4ab58a43952bd520,,,,,,,,,,,,
"[""comma""]",0,[0.32891000001109205],95,0,95,0,1,5fae721319e73f2ff0c6605a,Mężczyzna,20,2021-07-13_22h05.47.924,rantool2,2021.1.4,Win32,59.93048064,5fae721319e73f2ff0c6605a,60d9d14f4a8a35a482e0d9bf,60edf16c4ab58a43952bd520,,,,,,,,,,,,
"[""comma""]",0,[0.370985000001383],96,0,96,0,1,5fae721319e73f2ff0c6605a,Mężczyzna,20,2021-07-13_22h05.47.924,rantool2,2021.1.4,Win32,59.93048064,5fae721319e73f2ff0c6605a,60d9d14f4a8a35a482e0d9bf,60edf16c4ab58a43952bd520,,,,,,,,,,,,
"[""period""]",0,[0.2359300000098301],97,0,97,0,1,5fae721319e73f2ff0c6605a,Mężczyzna,20,2021-07-13_22h05.47.924,rantool2,2021.1.4,Win32,59.93048064,5fae721319e73f2ff0c6605a,60d9d14f4a8a35a482e0d9bf,60edf16c4ab58a43952bd520,,,,,,,,,,,,
"[""comma""]",0,[0.2684050000098068],98,0,98,0,1,5fae721319e73f2ff0c6605a,Mężczyzna,20,2021-07-13_22h05.47.924,rantool2,2021.1.4,Win32,59.93048064,5fae721319e73f2ff0c6605a,60d9d14f4a8a35a482e0d9bf,60edf16c4ab58a43952bd520,,,,,,,,,,,,
"[""period""]",0,[0.23689500000909902],99,0,99,0,1,5fae721319e73f2ff0c6605a,Mężczyzna,20,2021-07-13_22h05.47.924,rantool2,2021.1.4,Win32,59.93048064,5fae721319e73f2ff0c6605a,60d9d14f4a8a35a482e0d9bf,60edf16c4ab58a43952bd520,,,,,,,,,,,,
"[""comma""]",0,[0.3734799999947427],100,0,100,0,1,5fae721319e73f2ff0c6605a,Mężczyzna,20,2021-07-13_22h05.47.924,rantool2,2021.1.4,Win32,59.93048064,5fae721319e73f2ff0c6605a,60d9d14f4a8a35a482e0d9bf,60edf16c4ab58a43952bd520,,,,,,,,,,,,
"[""comma""]",0,[0.28598000000056345],101,0,101,0,1,5fae721319e73f2ff0c6605a,Mężczyzna,20,2021-07-13_22h05.47.924,rantool2,2021.1.4,Win32,59.93048064,5fae721319e73f2ff0c6605a,60d9d14f4a8a35a482e0d9bf,60edf16c4ab58a43952bd520,,,,,,,,,,,,
"[""period""]",0,[0.283305000004475],102,0,102,0,1,5fae721319e73f2ff0c6605a,Mężczyzna,20,2021-07-13_22h05.47.924,rantool2,2021.1.4,Win32,59.93048064,5fae721319e73f2ff0c6605a,60d9d14f4a8a35a482e0d9bf,60edf16c4ab58a43952bd520,,,,,,,,,,,,
"[""period""]",0,[0.3892950000008568],103,0,103,0,1,5fae721319e73f2ff0c6605a,Mężczyzna,20,2021-07-13_22h05.47.924,rantool2,2021.1.4,Win32,59.93048064,5fae721319e73f2ff0c6605a,60d9d14f4a8a35a482e0d9bf,60edf16c4ab58a43952bd520,,,,,,,,,,,,
"[""period"",""comma""]",0,"[0.4299800000007963,1.1260199999960605]",104,0,104,0,1,5fae721319e73f2ff0c6605a,Mężczyzna,20,2021-07-13_22h05.47.924,rantool2,2021.1.4,Win32,59.93048064,5fae721319e73f2ff0c6605a,60d9d14f4a8a35a482e0d9bf,60edf16c4ab58a43952bd520,,,,,,,,,,,,
0,0,,105,0,105,0,1,5fae721319e73f2ff0c6605a,Mężczyzna,20,2021-07-13_22h05.47.924,rantool2,2021.1.4,Win32,59.93048064,5fae721319e73f2ff0c6605a,60d9d14f4a8a35a482e0d9bf,60edf16c4ab58a43952bd520,,,,,,,,,,,,
"[""comma""]",0,[0.04746499999600928],106,0,106,0,1,5fae721319e73f2ff0c6605a,Mężczyzna,20,2021-07-13_22h05.47.924,rantool2,2021.1.4,Win32,59.93048064,5fae721319e73f2ff0c6605a,60d9d14f4a8a35a482e0d9bf,60edf16c4ab58a43952bd520,,,,,,,,,,,,
"[""period""]",0,[0.2839300000050571],107,0,107,0,1,5fae721319e73f2ff0c6605a,Mężczyzna,20,2021-07-13_22h05.47.924,rantool2,2021.1.4,Win32,59.93048064,5fae721319e73f2ff0c6605a,60d9d14f4a8a35a482e0d9bf,60edf16c4ab58a43952bd520,,,,,,,,,,,,
"[""comma""]",0,[0.33663499999966007],108,0,108,0,1,5fae721319e73f2ff0c6605a,Mężczyzna,20,2021-07-13_22h05.47.924,rantool2,2021.1.4,Win32,59.93048064,5fae721319e73f2ff0c6605a,60d9d14f4a8a35a482e0d9bf,60edf16c4ab58a43952bd520,,,,,,,,,,,,
"[""period""]",0,[0.4087099999887869],109,0,109,0,1,5fae721319e73f2ff0c6605a,Mężczyzna,20,2021-07-13_22h05.47.924,rantool2,2021.1.4,Win32,59.93048064,5fae721319e73f2ff0c6605a,60d9d14f4a8a35a482e0d9bf,60edf16c4ab58a43952bd520,,,,,,,,,,,,
"[""period""]",0,[0.4844250000023749],110,0,110,0,1,5fae721319e73f2ff0c6605a,Mężczyzna,20,2021-07-13_22h05.47.924,rantool2,2021.1.4,Win32,59.93048064,5fae721319e73f2ff0c6605a,60d9d14f4a8a35a482e0d9bf,60edf16c4ab58a43952bd520,,,,,,,,,,,,
"[""comma""]",0,[0.4590449999959674],111,0,111,0,1,5fae721319e73f2ff0c6605a,Mężczyzna,20,2021-07-13_22h05.47.924,rantool2,2021.1.4,Win32,59.93048064,5fae721319e73f2ff0c6605a,60d9d14f4a8a35a482e0d9bf,60edf16c4ab58a43952bd520,,,,,,,,,,,,
"[""comma""]",0,[0.40185500000370666],112,0,112,0,1,5fae721319e73f2ff0c6605a,Mężczyzna,20,2021-07-13_22h05.47.924,rantool2,2021.1.4,Win32,59.93048064,5fae721319e73f2ff0c6605a,60d9d14f4a8a35a482e0d9bf,60edf16c4ab58a43952bd520,,,,,,,,,,,,
"[""comma""]",0,[0.3219799999933457],113,0,113,0,1,5fae721319e73f2ff0c6605a,Mężczyzna,20,2021-07-13_22h05.47.924,rantool2,2021.1.4,Win32,59.93048064,5fae721319e73f2ff0c6605a,60d9d14f4a8a35a482e0d9bf,60edf16c4ab58a43952bd520,,,,,,,,,,,,
"[""period""]",0,[0.39378499999293126],114,0,114,0,1,5fae721319e73f2ff0c6605a,Mężczyzna,20,2021-07-13_22h05.47.924,rantool2,2021.1.4,Win32,59.93048064,5fae721319e73f2ff0c6605a,60d9d14f4a8a35a482e0d9bf,60edf16c4ab58a43952bd520,,,,,,,,,,,,
"[""period""]",0,[0.3610599999956321],115,0,115,0,1,5fae721319e73f2ff0c6605a,Mężczyzna,20,2021-07-13_22h05.47.924,rantool2,2021.1.4,Win32,59.93048064,5fae721319e73f2ff0c6605a,60d9d14f4a8a35a482e0d9bf,60edf16c4ab58a43952bd520,,,,,,,,,,,,
"[""comma""]",0,[0.3853800000069896],116,0,116,0,1,5fae721319e73f2ff0c6605a,Mężczyzna,20,2021-07-13_22h05.47.924,rantool2,2021.1.4,Win32,59.93048064,5fae721319e73f2ff0c6605a,60d9d14f4a8a35a482e0d9bf,60edf16c4ab58a43952bd520,,,,,,,,,,,,
"[""period""]",0,[0.4608399999997346],117,0,117,0,1,5fae721319e73f2ff0c6605a,Mężczyzna,20,2021-07-13_22h05.47.924,rantool2,2021.1.4,Win32,59.93048064,5fae721319e73f2ff0c6605a,60d9d14f4a8a35a482e0d9bf,60edf16c4ab58a43952bd520,,,,,,,,,,,,
"[""comma""]",0,[0.40701500000432134],118,0,118,0,1,5fae721319e73f2ff0c6605a,Mężczyzna,20,2021-07-13_22h05.47.924,rantool2,2021.1.4,Win32,59.93048064,5fae721319e73f2ff0c6605a,60d9d14f4a8a35a482e0d9bf,60edf16c4ab58a43952bd520,,,,,,,,,,,,
"[""comma""]",0,[0.20848500001011416],119,0,119,0,1,5fae721319e73f2ff0c6605a,Mężczyzna,20,2021-07-13_22h05.47.924,rantool2,2021.1.4,Win32,59.93048064,5fae721319e73f2ff0c6605a,60d9d14f4a8a35a482e0d9bf,60edf16c4ab58a43952bd520,,,,,,,,,,,,
,,,,,,,,5fae721319e73f2ff0c6605a,Mężczyzna,20,2021-07-13_22h05.47.924,rantool2,2021.1.4,Win32,59.93048064,5fae721319e73f2ff0c6605a,60d9d14f4a8a35a482e0d9bf,60edf16c4ab58a43952bd520,f,2.611535,0,0,0,14,1,OORRROO,OORRROR,22.24142883,22.16977179,series_0
,,,,,,,,5fae721319e73f2ff0c6605a,Mężczyzna,20,2021-07-13_22h05.47.924,rantool2,2021.1.4,Win32,59.93048064,5fae721319e73f2ff0c6605a,60d9d14f4a8a35a482e0d9bf,60edf16c4ab58a43952bd520,f,1.69206,0,1,1,28,1,ORRROOO,ORRROOR,22.24142883,22.53364006,series_1
,,,,,,,,5fae721319e73f2ff0c6605a,Mężczyzna,20,2021-07-13_22h05.47.924,rantool2,2021.1.4,Win32,59.93048064,5fae721319e73f2ff0c6605a,60d9d14f4a8a35a482e0d9bf,60edf16c4ab58a43952bd520,f,1.73417,0,2,2,46,1,RORRROO,RORRROR,22.00300695,21.24781509,series_0
,,,,,,,,5fae721319e73f2ff0c6605a,Mężczyzna,20,2021-07-13_22h05.47.924,rantool2,2021.1.4,Win32,59.93048064,5fae721319e73f2ff0c6605a,60d9d14f4a8a35a482e0d9bf,60edf16c4ab58a43952bd520,j,3.04496,0,3,3,39,1,ROORRRO,ROORRRR,21.82425538,21.38562617,series_0
,,,,,,,,5fae721319e73f2ff0c6605a,Mężczyzna,20,2021-07-13_22h05.47.924,rantool2,2021.1.4,Win32,59.93048064,5fae721319e73f2ff0c6605a,60d9d14f4a8a35a482e0d9bf,60edf16c4ab58a43952bd520,j,1.91359,0,4,4,2,1,OOOOROO,OOOOROR,20.43051175,21.02936224,series_1
,,,,,,,,5fae721319e73f2ff0c6605a,Mężczyzna,20,2021-07-13_22h05.47.924,rantool2,2021.1.4,Win32,59.93048064,5fae721319e73f2ff0c6605a,60d9d14f4a8a35a482e0d9bf,60edf16c4ab58a43952bd520,f,1.956115,0,5,5,62,1,RRRRROO,RRRRROR,22.16413392,21.27974287,series_0
,,,,,,,,5fae721319e73f2ff0c6605a,Mężczyzna,20,2021-07-13_22h05.47.924,rantool2,2021.1.4,Win32,59.93048064,5fae721319e73f2ff0c6605a,60d9d14f4a8a35a482e0d9bf,60edf16c4ab58a43952bd520,f,2.10092,0,6,6,7,1,OOORRRO,OOORRRR,21.6194508,21.899017,series_1
,,,,,,,,5fae721319e73f2ff0c6605a,Mężczyzna,20,2021-07-13_22h05.47.924,rantool2,2021.1.4,Win32,59.93048064,5fae721319e73f2ff0c6605a,60d9d14f4a8a35a482e0d9bf,60edf16c4ab58a43952bd520,f,2.18937,0,7,7,56,1,RRROOOO,RRROOOR,21.6194508,22.31681875,series_1
,,,,,,,,5fae721319e73f2ff0c6605a,Mężczyzna,20,2021-07-13_22h05.47.924,rantool2,2021.1.4,Win32,59.93048064,5fae721319e73f2ff0c6605a,60d9d14f4a8a35a482e0d9bf,60edf16c4ab58a43952bd520,j,2.524315,0,8,8,50,1,RROOROO,RROOROR,21.73568164,22.02566557,series_1
,,,,,,,,5fae721319e73f2ff0c6605a,Mężczyzna,20,2021-07-13_22h05.47.924,rantool2,2021.1.4,Win32,59.93048064,5fae721319e73f2ff0c6605a,60d9d14f4a8a35a482e0d9bf,60edf16c4ab58a43952bd520,j,1.995255,0,9,9,32,1,ROOOOOO,ROOOOOR,19.92253567,21.27974287,series_1
,,,,,,,,5fae721319e73f2ff0c6605a,Mężczyzna,20,2021-07-13_22h05.47.924,rantool2,2021.1.4,Win32,59.93048064,5fae721319e73f2ff0c6605a,60d9d14f4a8a35a482e0d9bf,60edf16c4ab58a43952bd520,f,1.799215,0,10,10,30,1,ORRRROO,ORRRROR,22.46748491,22.03072203,series_0
,,,,,,,,5fae721319e73f2ff0c6605a,Mężczyzna,20,2021-07-13_22h05.47.924,rantool2,2021.1.4,Win32,59.93048064,5fae721319e73f2ff0c6605a,60d9d14f4a8a35a482e0d9bf,60edf16c4ab58a43952bd520,f,2.105915,0,11,11,55,1,RRORRRO,RRORRRR,21.56657303,21.21223021,series_0
,,,,,,,,5fae721319e73f2ff0c6605a,Mężczyzna,20,2021-07-13_22h05.47.924,rantool2,2021.1.4,Win32,59.93048064,5fae721319e73f2ff0c6605a,60d9d14f4a8a35a482e0d9bf,60edf16c4ab58a43952bd520,f,1.18392,0,12,12,26,1,ORROROO,ORROROR,22.02732763,21.71443381,series_0
,,,,,,,,5fae721319e73f2ff0c6605a,Mężczyzna,20,2021-07-13_22h05.47.924,rantool2,2021.1.4,Win32,59.93048064,5fae721319e73f2ff0c6605a,60d9d14f4a8a35a482e0d9bf,60edf16c4ab58a43952bd520,j,3.153305,0,13,13,63,1,RRRRRRO,RRRRRRR,21.35278725,19.62521613,series_0
,,,,,,,,5fae721319e73f2ff0c6605a,Mężczyzna,20,2021-07-13_22h05.47.924,rantool2,2021.1.4,Win32,59.93048064,5fae721319e73f2ff0c6605a,60d9d14f4a8a35a482e0d9bf,60edf16c4ab58a43952bd520,j,0.937305,0,14,14,58,1,RRROROO,RRROROR,22.1285618,21.37121559,series_0
,,,,,,,,5fae721319e73f2ff0c6605a,Mężczyzna,20,2021-07-13_22h05.47.924,rantool2,2021.1.4,Win32,59.93048064,5fae721319e73f2ff0c6605a,60d9d14f4a8a35a482e0d9bf,60edf16c4ab58a43952bd520,f,3.409915,0,15,15,21,1,ORORORO,ORORORR,20.39515459,22.06781359,series_1
,,,,,,,,5fae721319e73f2ff0c6605a,Mężczyzna,20,2021-07-13_22h05.47.924,rantool2,2021.1.4,Win32,59.93048064,5fae721319e73f2ff0c6605a,60d9d14f4a8a35a482e0d9bf,60edf16c4ab58a43952bd520,j,2.25164,0,16,16,12,1,OORROOO,OORROOR,21.30250474,22.02786418,series_1
,,,,,,,,5fae721319e73f2ff0c6605a,Mężczyzna,20,2021-07-13_22h05.47.924,rantool2,2021.1.4,Win32,59.93048064,5fae721319e73f2ff0c6605a,60d9d14f4a8a35a482e0d9bf,60edf16c4ab58a43952bd520,j,2.165355,0,17,17,43,1,RORORRO,RORORRR,20.71309134,21.07490964,series_1
,,,,,,,,5fae721319e73f2ff0c6605a,Mężczyzna,20,2021-07-13_22h05.47.924,rantool2,2021.1.4,Win32,59.93048064,5fae721319e73f2ff0c6605a,60d9d14f4a8a35a482e0d9bf,60edf16c4ab58a43952bd520,j,2.333335,0,18,18,10,1,OOROROO,OOROROR,21.31236711,21.07490964,series_0
,,,,,,,,5fae721319e73f2ff0c6605a,Mężczyzna,20,2021-07-13_22h05.47.924,rantool2,2021.1.4,Win32,59.93048064,5fae721319e73f2ff0c6605a,60d9d14f4a8a35a482e0d9bf,60edf16c4ab58a43952bd520,j,1.988875,0,19,19,38,1,ROORROO,ROORROR,21.79500819,21.36812781,series_0
,,,,,,,,5fae721319e73f2ff0c6605a,Mężczyzna,20,2021-07-13_22h05.47.924,rantool2,2021.1.4,Win32,59.93048064,5fae721319e73f2ff0c6605a,60d9d14f4a8a35a482e0d9bf,60edf16c4ab58a43952bd520,j,2.49498,0,20,20,61,1,RRRRORO,RRRRORR,21.81333602,21.17347734,series_0
,,,,,,,,5fae721319e73f2ff0c6605a,Mężczyzna,20,2021-07-13_22h05.47.924,rantool2,2021.1.4,Win32,59.93048064,5fae721319e73f2ff0c6605a,60d9d14f4a8a35a482e0d9bf,60edf16c4ab58a43952bd520,f,1.94037,0,21,21,51,1,RROORRO,RROORRR,21.89852628,22.02786418,series_1
,,,,,,,,5fae721319e73f2ff0c6605a,Mężczyzna,20,2021-07-13_22h05.47.924,rantool2,2021.1.4,Win32,59.93048064,5fae721319e73f2ff0c6605a,60d9d14f4a8a35a482e0d9bf,60edf16c4ab58a43952bd520,f,3.336575,0,22,22,33,1,ROOOORO,ROOOORR,20.83779602,22.03072203,series_1
,,,,,,,,5fae721319e73f2ff0c6605a,Mężczyzna,20,2021-07-13_22h05.47.924,rantool2,2021.1.4,Win32,59.93048064,5fae721319e73f2ff0c6605a,60d9d14f4a8a35a482e0d9bf,60edf16c4ab58a43952bd520,j,3.853445,0,23,23,37,1,ROORORO,ROORORR,20.42602454,21.57657071,series_1
,,,,,,,,5fae721319e73f2ff0c6605a,Mężczyzna,20,2021-07-13_22h05.47.924,rantool2,2021.1.4,Win32,59.93048064,5fae721319e73f2ff0c6605a,60d9d14f4a8a35a482e0d9bf,60edf16c4ab58a43952bd520,j,3.05598,0,24,24,35,1,ROOORRO,ROOORRR,21.76276513,22.16977179,series_1
,,,,,,,,5fae721319e73f2ff0c6605a,Mężczyzna,20,2021-07-13_22h05.47.924,rantool2,2021.1.4,Win32,59.93048064,5fae721319e73f2ff0c6605a,60d9d14f4a8a35a482e0d9bf,60edf16c4ab58a43952bd520,f,3.300345,0,25,25,29,1,ORRRORO,ORRRORR,22.00300695,22.12173012,series_1
,,,,,,,,5fae721319e73f2ff0c6605a,Mężczyzna,20,2021-07-13_22h05.47.924,rantool2,2021.1.4,Win32,59.93048064,5fae721319e73f2ff0c6605a,60d9d14f4a8a35a482e0d9bf,60edf16c4ab58a43952bd520,f,1.68656,0,26,26,44,1,RORROOO,RORROOR,21.66733484,22.02566557,series_1
,,,,,,,,5fae721319e73f2ff0c6605a,Mężczyzna,20,2021-07-13_22h05.47.924,rantool2,2021.1.4,Win32,59.93048064,5fae721319e73f2ff0c6605a,60d9d14f4a8a35a482e0d9bf,60edf16c4ab58a43952bd520,f,1.76354,0,27,27,15,1,OORRRRO,OORRRRR,22.10108823,21.74922619,series_0
,,,,,,,,5fae721319e73f2ff0c6605a,Mężczyzna,20,2021-07-13_22h05.47.924,rantool2,2021.1.4,Win32,59.93048064,5fae721319e73f2ff0c6605a,60d9d14f4a8a35a482e0d9bf,60edf16c4ab58a43952bd520,f,2.440315,0,28,28,6,1,OOORROO,OOORROR,21.12383932,21.38562617,series_1
,,,,,,,,5fae721319e73f2ff0c6605a,Mężczyzna,20,2021-07-13_22h05.47.924,rantool2,2021.1.4,Win32,59.93048064,5fae721319e73f2ff0c6605a,60d9d14f4a8a35a482e0d9bf,60edf16c4ab58a43952bd520,j,2.86737,0,29,29,49,1,RROOORO,RROOORR,21.76276513,22.53364006,series_1
,,,,,,,,5fae721319e73f2ff0c6605a,Mężczyzna,20,2021-07-13_22h05.47.924,rantool2,2021.1.4,Win32,59.93048064,5fae721319e73f2ff0c6605a,60d9d14f4a8a35a482e0d9bf,60edf16c4ab58a43952bd520,j,3.63976,0,30,30,31,1,ORRRRRO,ORRRRRR,22.16413392,20.74050628,series_0
,,,,,,,,5fae721319e73f2ff0c6605a,Mężczyzna,20,2021-07-13_22h05.47.924,rantool2,2021.1.4,Win32,59.93048064,5fae721319e73f2ff0c6605a,60d9d14f4a8a35a482e0d9bf,60edf16c4ab58a43952bd520,j,4.216895,0,31,31,19,1,OROORRO,OROORRR,21.73568164,22.11181017,series_1
,,,,,,,,5fae721319e73f2ff0c6605a,Mężczyzna,20,2021-07-13_22h05.47.924,rantool2,2021.1.4,Win32,59.93048064,5fae721319e73f2ff0c6605a,60d9d14f4a8a35a482e0d9bf,60edf16c4ab58a43952bd520,j,2.30981,0,32,32,36,1,ROOROOO,ROOROOR,21.07991943,20.9984461,series_0
,,,,,,,,5fae721319e73f2ff0c6605a,Mężczyzna,20,2021-07-13_22h05.47.924,rantool2,2021.1.4,Win32,59.93048064,5fae721319e73f2ff0c6605a,60d9d14f4a8a35a482e0d9bf,60edf16c4ab58a43952bd520,j,2.028765,0,33,33,42,1,ROROROO,ROROROR,20.39515459,19.8361834,series_0
,,,,,,,,5fae721319e73f2ff0c6605a,Mężczyzna,20,2021-07-13_22h05.47.924,rantool2,2021.1.4,Win32,59.93048064,5fae721319e73f2ff0c6605a,60d9d14f4a8a35a482e0d9bf,60edf16c4ab58a43952bd520,f,1.597525,0,34,34,20,1,OROROOO,OROROOR,21.31236711,21.90565814,series_1
,,,,,,,,5fae721319e73f2ff0c6605a,Mężczyzna,20,2021-07-13_22h05.47.924,rantool2,2021.1.4,Win32,59.93048064,5fae721319e73f2ff0c6605a,60d9d14f4a8a35a482e0d9bf,60edf16c4ab58a43952bd520,f,2.295765,0,35,35,13,1,OORRORO,OORRORR,21.66733484,22.11181017,series_1
,,,,,,,,5fae721319e73f2ff0c6605a,Mężczyzna,20,2021-07-13_22h05.47.924,rantool2,2021.1.4,Win32,59.93048064,5fae721319e73f2ff0c6605a,60d9d14f4a8a35a482e0d9bf,60edf16c4ab58a43952bd520,j,1.663405,0,36,36,8,1,OOROOOO,OOROOOR,19.91402015,20.89823192,series_1
,,,,,,,,5fae721319e73f2ff0c6605a,Mężczyzna,20,2021-07-13_22h05.47.924,rantool2,2021.1.4,Win32,59.93048064,5fae721319e73f2ff0c6605a,60d9d14f4a8a35a482e0d9bf,60edf16c4ab58a43952bd520,j,1.9377,0,37,37,41,1,ROROORO,ROROORR,20.42602454,21.71443381,series_1
,,,,,,,,5fae721319e73f2ff0c6605a,Mężczyzna,20,2021-07-13_22h05.47.924,rantool2,2021.1.4,Win32,59.93048064,5fae721319e73f2ff0c6605a,60d9d14f4a8a35a482e0d9bf,60edf16c4ab58a43952bd520,j,3.24901,0,38,38,1,1,OOOOORO,OOOOORR,19.92253567,20.74050628,series_1
,,,,,,,,5fae721319e73f2ff0c6605a,Mężczyzna,20,2021-07-13_22h05.47.924,rantool2,2021.1.4,Win32,59.93048064,5fae721319e73f2ff0c6605a,60d9d14f4a8a35a482e0d9bf,60edf16c4ab58a43952bd520,j,3.284205,0,39,39,45,1,RORRORO,RORRORR,20.78182524,21.22513037,series_1
,,,,,,,,5fae721319e73f2ff0c6605a,Mężczyzna,20,2021-07-13_22h05.47.924,rantool2,2021.1.4,Win32,59.93048064,5fae721319e73f2ff0c6605a,60d9d14f4a8a35a482e0d9bf,60edf16c4ab58a43952bd520,f,3.899085,0,40,40,25,1,ORROORO,ORROORR,21.79500819,22.61624387,series_1
,,,,,,,,5fae721319e73f2ff0c6605a,Mężczyzna,20,2021-07-13_22h05.47.924,rantool2,2021.1.4,Win32,59.93048064,5fae721319e73f2ff0c6605a,60d9d14f4a8a35a482e0d9bf,60edf16c4ab58a43952bd520,f,1.589665,0,41,41,53,1,RRORORO,RRORORR,20.71309134,21.90565814,series_1
,,,,,,,,5fae721319e73f2ff0c6605a,Mężczyzna,20,2021-07-13_22h05.47.924,rantool2,2021.1.4,Win32,59.93048064,5fae721319e73f2ff0c6605a,60d9d14f4a8a35a482e0d9bf,60edf16c4ab58a43952bd520,j,1.82141,0,42,42,27,1,ORRORRO,ORRORRR,21.55250791,22.2428857,series_1
,,,,,,,,5fae721319e73f2ff0c6605a,Mężczyzna,20,2021-07-13_22h05.47.924,rantool2,2021.1.4,Win32,59.93048064,5fae721319e73f2ff0c6605a,60d9d14f4a8a35a482e0d9bf,60edf16c4ab58a43952bd520,f,1.838955,0,43,43,60,1,RRRROOO,RRRROOR,22.10108823,22.15934078,series_1
,,,,,,,,5fae721319e73f2ff0c6605a,Mężczyzna,20,2021-07-13_22h05.47.924,rantool2,2021.1.4,Win32,59.93048064,5fae721319e73f2ff0c6605a,60d9d14f4a8a35a482e0d9bf,60edf16c4ab58a43952bd520,j,1.646955,0,44,44,48,1,RROOOOO,RROOOOR,20.90986523,22.15934078,series_1
,,,,,,,,5fae721319e73f2ff0c6605a,Mężczyzna,20,2021-07-13_22h05.47.924,rantool2,2021.1.4,Win32,59.93048064,5fae721319e73f2ff0c6605a,60d9d14f4a8a35a482e0d9bf,60edf16c4ab58a43952bd520,f,1.72867,0,45,45,40,1,ROROOOO,ROROOOR,20.87963819,21.37121559,series_1
,,,,,,,,5fae721319e73f2ff0c6605a,Mężczyzna,20,2021-07-13_22h05.47.924,rantool2,2021.1.4,Win32,59.93048064,5fae721319e73f2ff0c6605a,60d9d14f4a8a35a482e0d9bf,60edf16c4ab58a43952bd520,f,1.35994,0,46,46,22,1,ORORROO,ORORROR,22.02732763,21.57657071,series_0
,,,,,,,,5fae721319e73f2ff0c6605a,Mężczyzna,20,2021-07-13_22h05.47.924,rantool2,2021.1.4,Win32,59.93048064,5fae721319e73f2ff0c6605a,60d9d14f4a8a35a482e0d9bf,60edf16c4ab58a43952bd520,j,1.77173,0,47,47,34,1,ROOOROO,ROOOROR,21.03750787,21.24781509,series_1
,,,,,,,,5fae721319e73f2ff0c6605a,Mężczyzna,20,2021-07-13_22h05.47.924,rantool2,2021.1.4,Win32,59.93048064,5fae721319e73f2ff0c6605a,60d9d14f4a8a35a482e0d9bf,60edf16c4ab58a43952bd520,j,1.21682,0,48,48,54,1,RRORROO,RRORROR,21.55250791,20.9984461,series_0
,,,,,,,,5fae721319e73f2ff0c6605a,Mężczyzna,20,2021-07-13_22h05.47.924,rantool2,2021.1.4,Win32,59.93048064,5fae721319e73f2ff0c6605a,60d9d14f4a8a35a482e0d9bf,60edf16c4ab58a43952bd520,f,1.17018,0,49,49,0,1,OOOOOOO,OOOOOOR,18.52739004,19.62521613,series_1
,,,,,,,,5fae721319e73f2ff0c6605a,Mężczyzna,20,2021-07-13_22h05.47.924,rantool2,2021.1.4,Win32,59.93048064,5fae721319e73f2ff0c6605a,60d9d14f4a8a35a482e0d9bf,60edf16c4ab58a43952bd520,j,2.27482,0,50,50,24,1,ORROOOO,ORROOOR,21.12383932,22.07102821,series_1
,,,,,,,,5fae721319e73f2ff0c6605a,Mężczyzna,20,2021-07-13_22h05.47.924,rantool2,2021.1.4,Win32,59.93048064,5fae721319e73f2ff0c6605a,60d9d14f4a8a35a482e0d9bf,60edf16c4ab58a43952bd520,f,1.25393,0,51,51,52,1,RROROOO,RROROOR,22.18365867,22.11097995,series_0
,,,,,,,,5fae721319e73f2ff0c6605a,Mężczyzna,20,2021-07-13_22h05.47.924,rantool2,2021.1.4,Win32,59.93048064,5fae721319e73f2ff0c6605a,60d9d14f4a8a35a482e0d9bf,60edf16c4ab58a43952bd520,j,1.806235,0,52,52,4,1,OOOROOO,OOOROOR,19.91402015,21.21223021,series_1
,,,,,,,,5fae721319e73f2ff0c6605a,Mężczyzna,20,2021-07-13_22h05.47.924,rantool2,2021.1.4,Win32,59.93048064,5fae721319e73f2ff0c6605a,60d9d14f4a8a35a482e0d9bf,60edf16c4ab58a43952bd520,j,1.62352,0,53,53,5,1,OOORORO,OOORORR,20.87963819,21.9921709,series_1
,,,,,,,,5fae721319e73f2ff0c6605a,Mężczyzna,20,2021-07-13_22h05.47.924,rantool2,2021.1.4,Win32,59.93048064,5fae721319e73f2ff0c6605a,60d9d14f4a8a35a482e0d9bf,60edf16c4ab58a43952bd520,j,1.522335,0,54,54,18,1,OROOROO,OROOROR,20.84860893,21.22513037,series_1
,,,,,,,,5fae721319e73f2ff0c6605a,Mężczyzna,20,2021-07-13_22h05.47.924,rantool2,2021.1.4,Win32,59.93048064,5fae721319e73f2ff0c6605a,60d9d14f4a8a35a482e0d9bf,60edf16c4ab58a43952bd520,f,2.08452,0,55,55,17,1,OROOORO,OROOORR,21.03750787,22.12173012,series_1
,,,,,,,,5fae721319e73f2ff0c6605a,Mężczyzna,20,2021-07-13_22h05.47.924,rantool2,2021.1.4,Win32,59.93048064,5fae721319e73f2ff0c6605a,60d9d14f4a8a35a482e0d9bf,60edf16c4ab58a43952bd520,j,2.1655,0,56,56,59,1,RRRORRO,RRRORRR,21.56657303,20.89823192,series_0
,,,,,,,,5fae721319e73f2ff0c6605a,Mężczyzna,20,2021-07-13_22h05.47.924,rantool2,2021.1.4,Win32,59.93048064,5fae721319e73f2ff0c6605a,60d9d14f4a8a35a482e0d9bf,60edf16c4ab58a43952bd520,j,2.51322,0,57,57,9,1,OOROORO,OOROORR,21.07991943,22.2428857,series_1
,,,,,,,,5fae721319e73f2ff0c6605a,Mężczyzna,20,2021-07-13_22h05.47.924,rantool2,2021.1.4,Win32,59.93048064,5fae721319e73f2ff0c6605a,60d9d14f4a8a35a482e0d9bf,60edf16c4ab58a43952bd520,j,3.00561,0,58,58,11,1,OORORRO,OORORRR,22.18365867,22.6797523,series_1
,,,,,,,,5fae721319e73f2ff0c6605a,Mężczyzna,20,2021-07-13_22h05.47.924,rantool2,2021.1.4,Win32,59.93048064,5fae721319e73f2ff0c6605a,60d9d14f4a8a35a482e0d9bf,60edf16c4ab58a43952bd520,j,2.250535,0,59,59,16,1,OROOOOO,OROOOOR,20.43051175,21.17347734,series_1
,,,,,,,,5fae721319e73f2ff0c6605a,Mężczyzna,20,2021-07-13_22h05.47.924,rantool2,2021.1.4,Win32,59.93048064,5fae721319e73f2ff0c6605a,60d9d14f4a8a35a482e0d9bf,60edf16c4ab58a43952bd520,j,2.115515,0,60,60,57,1,RRROORO,RRROORR,21.82425538,22.07102821,series_1
,,,,,,,,5fae721319e73f2ff0c6605a,Mężczyzna,20,2021-07-13_22h05.47.924,rantool2,2021.1.4,Win32,59.93048064,5fae721319e73f2ff0c6605a,60d9d14f4a8a35a482e0d9bf,60edf16c4ab58a43952bd520,j,1.983195,0,61,61,47,1,RORRRRO,RORRRRR,21.81333602,21.02936224,series_0
,,,,,,,,5fae721319e73f2ff0c6605a,Mężczyzna,20,2021-07-13_22h05.47.924,rantool2,2021.1.4,Win32,59.93048064,5fae721319e73f2ff0c6605a,60d9d14f4a8a35a482e0d9bf,60edf16c4ab58a43952bd520,j,2.545045,0,62,62,3,1,OOOORRO,OOOORRR,20.90986523,21.74922619,series_1
,,,,,,,,5fae721319e73f2ff0c6605a,Mężczyzna,20,2021-07-13_22h05.47.924,rantool2,2021.1.4,Win32,59.93048064,5fae721319e73f2ff0c6605a,60d9d14f4a8a35a482e0d9bf,60edf16c4ab58a43952bd520,j,0.59698,0,63,63,23,1,ORORRRO,ORORRRR,22.1285618,21.9921709,series_0
