key_resp_5.keys,key_resp_5.corr,key_resp_5.rt,trials.thisRepN,trials.thisTrialN,trials.thisN,trials.thisIndex,trials.ran,id*,Płeć*,Wiek*,date,expName,psychopyVersion,OS,frameRate,id,STUDY_ID,SESSION_ID,key_resp_7.keys,key_resp_7.rt,trials_2.thisRepN,trials_2.thisTrialN,trials_2.thisN,trials_2.thisIndex,trials_2.ran,series_0,series_1,acss_0,acss_1,comparison
"[""period""]",0,[1.432099999999977],0,0,0,0,1,5fc50ebcfb5e8f0ba8c0ece8,Mężczyzna,20,2021-07-13_21h52.40.766,rantool2,2021.1.4,Win32,60.65016982,5fc50ebcfb5e8f0ba8c0ece8,60d9d14f4a8a35a482e0d9bf,60edeef335f36c5acbadd63c,,,,,,,,,,,,
"[""period""]",0,[1.1905000000000001],1,0,1,0,1,5fc50ebcfb5e8f0ba8c0ece8,Mężczyzna,20,2021-07-13_21h52.40.766,rantool2,2021.1.4,Win32,60.65016982,5fc50ebcfb5e8f0ba8c0ece8,60d9d14f4a8a35a482e0d9bf,60edeef335f36c5acbadd63c,,,,,,,,,,,,
"[""period""]",0,[0.8677999999999884],2,0,2,0,1,5fc50ebcfb5e8f0ba8c0ece8,Mężczyzna,20,2021-07-13_21h52.40.766,rantool2,2021.1.4,Win32,60.65016982,5fc50ebcfb5e8f0ba8c0ece8,60d9d14f4a8a35a482e0d9bf,60edeef335f36c5acbadd63c,,,,,,,,,,,,
"[""comma""]",0,[1.0480999999999767],3,0,3,0,1,5fc50ebcfb5e8f0ba8c0ece8,Mężczyzna,20,2021-07-13_21h52.40.766,rantool2,2021.1.4,Win32,60.65016982,5fc50ebcfb5e8f0ba8c0ece8,60d9d14f4a8a35a482e0d9bf,60edeef335f36c5acbadd63c,,,,,,,,,,,,
"[""comma""]",0,[1.0159999999999911],4,0,4,0,1,5fc50ebcfb5e8f0ba8c0ece8,Mężczyzna,20,2021-07-13_21h52.40.766,rantool2,2021.1.4,Win32,60.65016982,5fc50ebcfb5e8f0ba8c0ece8,60d9d14f4a8a35a482e0d9bf,60edeef335f36c5acbadd63c,,,,,,,,,,,,
"[""comma""]",0,[0.9657999999999873],5,0,5,0,1,5fc50ebcfb5e8f0ba8c0ece8,Mężczyzna,20,2021-07-13_21h52.40.766,rantool2,2021.1.4,Win32,60.65016982,5fc50ebcfb5e8f0ba8c0ece8,60d9d14f4a8a35a482e0d9bf,60edeef335f36c5acbadd63c,,,,,,,,,,,,
"[""period""]",0,[1.0502999999999787],6,0,6,0,1,5fc50ebcfb5e8f0ba8c0ece8,Mężczyzna,20,2021-07-13_21h52.40.766,rantool2,2021.1.4,Win32,60.65016982,5fc50ebcfb5e8f0ba8c0ece8,60d9d14f4a8a35a482e0d9bf,60edeef335f36c5acbadd63c,,,,,,,,,,,,
"[""comma""]",0,[1.0369000000000312],7,0,7,0,1,5fc50ebcfb5e8f0ba8c0ece8,Mężczyzna,20,2021-07-13_21h52.40.766,rantool2,2021.1.4,Win32,60.65016982,5fc50ebcfb5e8f0ba8c0ece8,60d9d14f4a8a35a482e0d9bf,60edeef335f36c5acbadd63c,,,,,,,,,,,,
"[""comma""]",0,[1.0275000000000034],8,0,8,0,1,5fc50ebcfb5e8f0ba8c0ece8,Mężczyzna,20,2021-07-13_21h52.40.766,rantool2,2021.1.4,Win32,60.65016982,5fc50ebcfb5e8f0ba8c0ece8,60d9d14f4a8a35a482e0d9bf,60edeef335f36c5acbadd63c,,,,,,,,,,,,
"[""comma""]",0,[1.020800000000051],9,0,9,0,1,5fc50ebcfb5e8f0ba8c0ece8,Mężczyzna,20,2021-07-13_21h52.40.766,rantool2,2021.1.4,Win32,60.65016982,5fc50ebcfb5e8f0ba8c0ece8,60d9d14f4a8a35a482e0d9bf,60edeef335f36c5acbadd63c,,,,,,,,,,,,
"[""period""]",0,[1.0159000000000162],10,0,10,0,1,5fc50ebcfb5e8f0ba8c0ece8,Mężczyzna,20,2021-07-13_21h52.40.766,rantool2,2021.1.4,Win32,60.65016982,5fc50ebcfb5e8f0ba8c0ece8,60d9d14f4a8a35a482e0d9bf,60edeef335f36c5acbadd63c,,,,,,,,,,,,
"[""comma""]",0,[1.0234000000000236],11,0,11,0,1,5fc50ebcfb5e8f0ba8c0ece8,Mężczyzna,20,2021-07-13_21h52.40.766,rantool2,2021.1.4,Win32,60.65016982,5fc50ebcfb5e8f0ba8c0ece8,60d9d14f4a8a35a482e0d9bf,60edeef335f36c5acbadd63c,,,,,,,,,,,,
"[""period""]",0,[0.986800000000045],12,0,12,0,1,5fc50ebcfb5e8f0ba8c0ece8,Mężczyzna,20,2021-07-13_21h52.40.766,rantool2,2021.1.4,Win32,60.65016982,5fc50ebcfb5e8f0ba8c0ece8,60d9d14f4a8a35a482e0d9bf,60edeef335f36c5acbadd63c,,,,,,,,,,,,
"[""comma""]",0,[1.0379000000000218],13,0,13,0,1,5fc50ebcfb5e8f0ba8c0ece8,Mężczyzna,20,2021-07-13_21h52.40.766,rantool2,2021.1.4,Win32,60.65016982,5fc50ebcfb5e8f0ba8c0ece8,60d9d14f4a8a35a482e0d9bf,60edeef335f36c5acbadd63c,,,,,,,,,,,,
"[""period""]",0,[0.9088999999999601],14,0,14,0,1,5fc50ebcfb5e8f0ba8c0ece8,Mężczyzna,20,2021-07-13_21h52.40.766,rantool2,2021.1.4,Win32,60.65016982,5fc50ebcfb5e8f0ba8c0ece8,60d9d14f4a8a35a482e0d9bf,60edeef335f36c5acbadd63c,,,,,,,,,,,,
"[""comma""]",0,[1.017499999999984],15,0,15,0,1,5fc50ebcfb5e8f0ba8c0ece8,Mężczyzna,20,2021-07-13_21h52.40.766,rantool2,2021.1.4,Win32,60.65016982,5fc50ebcfb5e8f0ba8c0ece8,60d9d14f4a8a35a482e0d9bf,60edeef335f36c5acbadd63c,,,,,,,,,,,,
"[""comma""]",0,[0.9934000000000367],16,0,16,0,1,5fc50ebcfb5e8f0ba8c0ece8,Mężczyzna,20,2021-07-13_21h52.40.766,rantool2,2021.1.4,Win32,60.65016982,5fc50ebcfb5e8f0ba8c0ece8,60d9d14f4a8a35a482e0d9bf,60edeef335f36c5acbadd63c,,,,,,,,,,,,
"[""period""]",0,[1.0655999999999892],17,0,17,0,1,5fc50ebcfb5e8f0ba8c0ece8,Mężczyzna,20,2021-07-13_21h52.40.766,rantool2,2021.1.4,Win32,60.65016982,5fc50ebcfb5e8f0ba8c0ece8,60d9d14f4a8a35a482e0d9bf,60edeef335f36c5acbadd63c,,,,,,,,,,,,
"[""comma""]",0,[0.7747000000000241],18,0,18,0,1,5fc50ebcfb5e8f0ba8c0ece8,Mężczyzna,20,2021-07-13_21h52.40.766,rantool2,2021.1.4,Win32,60.65016982,5fc50ebcfb5e8f0ba8c0ece8,60d9d14f4a8a35a482e0d9bf,60edeef335f36c5acbadd63c,,,,,,,,,,,,
"[""period""]",0,[0.2709000000000401],19,0,19,0,1,5fc50ebcfb5e8f0ba8c0ece8,Mężczyzna,20,2021-07-13_21h52.40.766,rantool2,2021.1.4,Win32,60.65016982,5fc50ebcfb5e8f0ba8c0ece8,60d9d14f4a8a35a482e0d9bf,60edeef335f36c5acbadd63c,,,,,,,,,,,,
"[""comma""]",0,[0.7681000000000608],20,0,20,0,1,5fc50ebcfb5e8f0ba8c0ece8,Mężczyzna,20,2021-07-13_21h52.40.766,rantool2,2021.1.4,Win32,60.65016982,5fc50ebcfb5e8f0ba8c0ece8,60d9d14f4a8a35a482e0d9bf,60edeef335f36c5acbadd63c,,,,,,,,,,,,
"[""period""]",0,[0.7673000000000059],21,0,21,0,1,5fc50ebcfb5e8f0ba8c0ece8,Mężczyzna,20,2021-07-13_21h52.40.766,rantool2,2021.1.4,Win32,60.65016982,5fc50ebcfb5e8f0ba8c0ece8,60d9d14f4a8a35a482e0d9bf,60edeef335f36c5acbadd63c,,,,,,,,,,,,
"[""comma""]",0,[0.799699999999973],22,0,22,0,1,5fc50ebcfb5e8f0ba8c0ece8,Mężczyzna,20,2021-07-13_21h52.40.766,rantool2,2021.1.4,Win32,60.65016982,5fc50ebcfb5e8f0ba8c0ece8,60d9d14f4a8a35a482e0d9bf,60edeef335f36c5acbadd63c,,,,,,,,,,,,
"[""comma""]",0,[0.6339999999999861],23,0,23,0,1,5fc50ebcfb5e8f0ba8c0ece8,Mężczyzna,20,2021-07-13_21h52.40.766,rantool2,2021.1.4,Win32,60.65016982,5fc50ebcfb5e8f0ba8c0ece8,60d9d14f4a8a35a482e0d9bf,60edeef335f36c5acbadd63c,,,,,,,,,,,,
"[""comma""]",0,[0.38390000000003965],24,0,24,0,1,5fc50ebcfb5e8f0ba8c0ece8,Mężczyzna,20,2021-07-13_21h52.40.766,rantool2,2021.1.4,Win32,60.65016982,5fc50ebcfb5e8f0ba8c0ece8,60d9d14f4a8a35a482e0d9bf,60edeef335f36c5acbadd63c,,,,,,,,,,,,
"[""period""]",0,[0.8327999999999918],25,0,25,0,1,5fc50ebcfb5e8f0ba8c0ece8,Mężczyzna,20,2021-07-13_21h52.40.766,rantool2,2021.1.4,Win32,60.65016982,5fc50ebcfb5e8f0ba8c0ece8,60d9d14f4a8a35a482e0d9bf,60edeef335f36c5acbadd63c,,,,,,,,,,,,
"[""comma""]",0,[0.5010999999999797],26,0,26,0,1,5fc50ebcfb5e8f0ba8c0ece8,Mężczyzna,20,2021-07-13_21h52.40.766,rantool2,2021.1.4,Win32,60.65016982,5fc50ebcfb5e8f0ba8c0ece8,60d9d14f4a8a35a482e0d9bf,60edeef335f36c5acbadd63c,,,,,,,,,,,,
"[""period"",""comma""]",0,"[0.1677999999999713,1.9176999999999396]",27,0,27,0,1,5fc50ebcfb5e8f0ba8c0ece8,Mężczyzna,20,2021-07-13_21h52.40.766,rantool2,2021.1.4,Win32,60.65016982,5fc50ebcfb5e8f0ba8c0ece8,60d9d14f4a8a35a482e0d9bf,60edeef335f36c5acbadd63c,,,,,,,,,,,,
"[""comma""]",0,[0.5174000000000092],28,0,28,0,1,5fc50ebcfb5e8f0ba8c0ece8,Mężczyzna,20,2021-07-13_21h52.40.766,rantool2,2021.1.4,Win32,60.65016982,5fc50ebcfb5e8f0ba8c0ece8,60d9d14f4a8a35a482e0d9bf,60edeef335f36c5acbadd63c,,,,,,,,,,,,
"[""period""]",0,[0.38409999999998945],29,0,29,0,1,5fc50ebcfb5e8f0ba8c0ece8,Mężczyzna,20,2021-07-13_21h52.40.766,rantool2,2021.1.4,Win32,60.65016982,5fc50ebcfb5e8f0ba8c0ece8,60d9d14f4a8a35a482e0d9bf,60edeef335f36c5acbadd63c,,,,,,,,,,,,
"[""comma""]",0,[0.33500000000000796],30,0,30,0,1,5fc50ebcfb5e8f0ba8c0ece8,Mężczyzna,20,2021-07-13_21h52.40.766,rantool2,2021.1.4,Win32,60.65016982,5fc50ebcfb5e8f0ba8c0ece8,60d9d14f4a8a35a482e0d9bf,60edeef335f36c5acbadd63c,,,,,,,,,,,,
"[""comma""]",0,[0.3334000000000401],31,0,31,0,1,5fc50ebcfb5e8f0ba8c0ece8,Mężczyzna,20,2021-07-13_21h52.40.766,rantool2,2021.1.4,Win32,60.65016982,5fc50ebcfb5e8f0ba8c0ece8,60d9d14f4a8a35a482e0d9bf,60edeef335f36c5acbadd63c,,,,,,,,,,,,
"[""period""]",0,[0.317799999999977],32,0,32,0,1,5fc50ebcfb5e8f0ba8c0ece8,Mężczyzna,20,2021-07-13_21h52.40.766,rantool2,2021.1.4,Win32,60.65016982,5fc50ebcfb5e8f0ba8c0ece8,60d9d14f4a8a35a482e0d9bf,60edeef335f36c5acbadd63c,,,,,,,,,,,,
"[""comma""]",0,[0.2512000000000114],33,0,33,0,1,5fc50ebcfb5e8f0ba8c0ece8,Mężczyzna,20,2021-07-13_21h52.40.766,rantool2,2021.1.4,Win32,60.65016982,5fc50ebcfb5e8f0ba8c0ece8,60d9d14f4a8a35a482e0d9bf,60edeef335f36c5acbadd63c,,,,,,,,,,,,
"[""period""]",0,[0.23400000000000887],34,0,34,0,1,5fc50ebcfb5e8f0ba8c0ece8,Mężczyzna,20,2021-07-13_21h52.40.766,rantool2,2021.1.4,Win32,60.65016982,5fc50ebcfb5e8f0ba8c0ece8,60d9d14f4a8a35a482e0d9bf,60edeef335f36c5acbadd63c,,,,,,,,,,,,
"[""comma""]",0,[0.2837999999999852],35,0,35,0,1,5fc50ebcfb5e8f0ba8c0ece8,Mężczyzna,20,2021-07-13_21h52.40.766,rantool2,2021.1.4,Win32,60.65016982,5fc50ebcfb5e8f0ba8c0ece8,60d9d14f4a8a35a482e0d9bf,60edeef335f36c5acbadd63c,,,,,,,,,,,,
"[""comma""]",0,[0.25029999999998154],36,0,36,0,1,5fc50ebcfb5e8f0ba8c0ece8,Mężczyzna,20,2021-07-13_21h52.40.766,rantool2,2021.1.4,Win32,60.65016982,5fc50ebcfb5e8f0ba8c0ece8,60d9d14f4a8a35a482e0d9bf,60edeef335f36c5acbadd63c,,,,,,,,,,,,
"[""period""]",0,[0.26720000000000255],37,0,37,0,1,5fc50ebcfb5e8f0ba8c0ece8,Mężczyzna,20,2021-07-13_21h52.40.766,rantool2,2021.1.4,Win32,60.65016982,5fc50ebcfb5e8f0ba8c0ece8,60d9d14f4a8a35a482e0d9bf,60edeef335f36c5acbadd63c,,,,,,,,,,,,
"[""period""]",0,[0.2844000000000335],38,0,38,0,1,5fc50ebcfb5e8f0ba8c0ece8,Mężczyzna,20,2021-07-13_21h52.40.766,rantool2,2021.1.4,Win32,60.65016982,5fc50ebcfb5e8f0ba8c0ece8,60d9d14f4a8a35a482e0d9bf,60edeef335f36c5acbadd63c,,,,,,,,,,,,
"[""comma""]",0,[0.3002999999999929],39,0,39,0,1,5fc50ebcfb5e8f0ba8c0ece8,Mężczyzna,20,2021-07-13_21h52.40.766,rantool2,2021.1.4,Win32,60.65016982,5fc50ebcfb5e8f0ba8c0ece8,60d9d14f4a8a35a482e0d9bf,60edeef335f36c5acbadd63c,,,,,,,,,,,,
"[""period""]",0,[0.3177000000000021],40,0,40,0,1,5fc50ebcfb5e8f0ba8c0ece8,Mężczyzna,20,2021-07-13_21h52.40.766,rantool2,2021.1.4,Win32,60.65016982,5fc50ebcfb5e8f0ba8c0ece8,60d9d14f4a8a35a482e0d9bf,60edeef335f36c5acbadd63c,,,,,,,,,,,,
"[""comma""]",0,[0.2512000000000114],41,0,41,0,1,5fc50ebcfb5e8f0ba8c0ece8,Mężczyzna,20,2021-07-13_21h52.40.766,rantool2,2021.1.4,Win32,60.65016982,5fc50ebcfb5e8f0ba8c0ece8,60d9d14f4a8a35a482e0d9bf,60edeef335f36c5acbadd63c,,,,,,,,,,,,
"[""comma""]",0,[0.3177000000000305],42,0,42,0,1,5fc50ebcfb5e8f0ba8c0ece8,Mężczyzna,20,2021-07-13_21h52.40.766,rantool2,2021.1.4,Win32,60.65016982,5fc50ebcfb5e8f0ba8c0ece8,60d9d14f4a8a35a482e0d9bf,60edeef335f36c5acbadd63c,,,,,,,,,,,,
"[""period""]",0,[0.2839999999999918],43,0,43,0,1,5fc50ebcfb5e8f0ba8c0ece8,Mężczyzna,20,2021-07-13_21h52.40.766,rantool2,2021.1.4,Win32,60.65016982,5fc50ebcfb5e8f0ba8c0ece8,60d9d14f4a8a35a482e0d9bf,60edeef335f36c5acbadd63c,,,,,,,,,,,,
"[""period""]",0,[0.3509000000000242],44,0,44,0,1,5fc50ebcfb5e8f0ba8c0ece8,Mężczyzna,20,2021-07-13_21h52.40.766,rantool2,2021.1.4,Win32,60.65016982,5fc50ebcfb5e8f0ba8c0ece8,60d9d14f4a8a35a482e0d9bf,60edeef335f36c5acbadd63c,,,,,,,,,,,,
"[""period""]",0,[0.2834000000000003],45,0,45,0,1,5fc50ebcfb5e8f0ba8c0ece8,Mężczyzna,20,2021-07-13_21h52.40.766,rantool2,2021.1.4,Win32,60.65016982,5fc50ebcfb5e8f0ba8c0ece8,60d9d14f4a8a35a482e0d9bf,60edeef335f36c5acbadd63c,,,,,,,,,,,,
"[""comma""]",0,[0.2670999999999708],46,0,46,0,1,5fc50ebcfb5e8f0ba8c0ece8,Mężczyzna,20,2021-07-13_21h52.40.766,rantool2,2021.1.4,Win32,60.65016982,5fc50ebcfb5e8f0ba8c0ece8,60d9d14f4a8a35a482e0d9bf,60edeef335f36c5acbadd63c,,,,,,,,,,,,
"[""period""]",0,[0.35000000000002274],47,0,47,0,1,5fc50ebcfb5e8f0ba8c0ece8,Mężczyzna,20,2021-07-13_21h52.40.766,rantool2,2021.1.4,Win32,60.65016982,5fc50ebcfb5e8f0ba8c0ece8,60d9d14f4a8a35a482e0d9bf,60edeef335f36c5acbadd63c,,,,,,,,,,,,
"[""comma""]",0,[0.25029999999998154],48,0,48,0,1,5fc50ebcfb5e8f0ba8c0ece8,Mężczyzna,20,2021-07-13_21h52.40.766,rantool2,2021.1.4,Win32,60.65016982,5fc50ebcfb5e8f0ba8c0ece8,60d9d14f4a8a35a482e0d9bf,60edeef335f36c5acbadd63c,,,,,,,,,,,,
"[""period""]",0,[0.26710000000002765],49,0,49,0,1,5fc50ebcfb5e8f0ba8c0ece8,Mężczyzna,20,2021-07-13_21h52.40.766,rantool2,2021.1.4,Win32,60.65016982,5fc50ebcfb5e8f0ba8c0ece8,60d9d14f4a8a35a482e0d9bf,60edeef335f36c5acbadd63c,,,,,,,,,,,,
"[""comma""]",0,[0.4170000000000016],50,0,50,0,1,5fc50ebcfb5e8f0ba8c0ece8,Mężczyzna,20,2021-07-13_21h52.40.766,rantool2,2021.1.4,Win32,60.65016982,5fc50ebcfb5e8f0ba8c0ece8,60d9d14f4a8a35a482e0d9bf,60edeef335f36c5acbadd63c,,,,,,,,,,,,
"[""comma""]",0,[0.5349999999999966],51,0,51,0,1,5fc50ebcfb5e8f0ba8c0ece8,Mężczyzna,20,2021-07-13_21h52.40.766,rantool2,2021.1.4,Win32,60.65016982,5fc50ebcfb5e8f0ba8c0ece8,60d9d14f4a8a35a482e0d9bf,60edeef335f36c5acbadd63c,,,,,,,,,,,,
"[""period""]",0,[0.25209999999998445],52,0,52,0,1,5fc50ebcfb5e8f0ba8c0ece8,Mężczyzna,20,2021-07-13_21h52.40.766,rantool2,2021.1.4,Win32,60.65016982,5fc50ebcfb5e8f0ba8c0ece8,60d9d14f4a8a35a482e0d9bf,60edeef335f36c5acbadd63c,,,,,,,,,,,,
"[""period""]",0,[0.35070000000001755],53,0,53,0,1,5fc50ebcfb5e8f0ba8c0ece8,Mężczyzna,20,2021-07-13_21h52.40.766,rantool2,2021.1.4,Win32,60.65016982,5fc50ebcfb5e8f0ba8c0ece8,60d9d14f4a8a35a482e0d9bf,60edeef335f36c5acbadd63c,,,,,,,,,,,,
"[""period"",""comma""]",0,"[0.26760000000004425,1.9339000000000226]",54,0,54,0,1,5fc50ebcfb5e8f0ba8c0ece8,Mężczyzna,20,2021-07-13_21h52.40.766,rantool2,2021.1.4,Win32,60.65016982,5fc50ebcfb5e8f0ba8c0ece8,60d9d14f4a8a35a482e0d9bf,60edeef335f36c5acbadd63c,,,,,,,,,,,,
0,0,,55,0,55,0,1,5fc50ebcfb5e8f0ba8c0ece8,Mężczyzna,20,2021-07-13_21h52.40.766,rantool2,2021.1.4,Win32,60.65016982,5fc50ebcfb5e8f0ba8c0ece8,60d9d14f4a8a35a482e0d9bf,60edeef335f36c5acbadd63c,,,,,,,,,,,,
"[""period""]",0,[0.03430000000005862],56,0,56,0,1,5fc50ebcfb5e8f0ba8c0ece8,Mężczyzna,20,2021-07-13_21h52.40.766,rantool2,2021.1.4,Win32,60.65016982,5fc50ebcfb5e8f0ba8c0ece8,60d9d14f4a8a35a482e0d9bf,60edeef335f36c5acbadd63c,,,,,,,,,,,,
"[""comma""]",0,[0.10090000000002419],57,0,57,0,1,5fc50ebcfb5e8f0ba8c0ece8,Mężczyzna,20,2021-07-13_21h52.40.766,rantool2,2021.1.4,Win32,60.65016982,5fc50ebcfb5e8f0ba8c0ece8,60d9d14f4a8a35a482e0d9bf,60edeef335f36c5acbadd63c,,,,,,,,,,,,
"[""period""]",0,[0.2342999999999904],58,0,58,0,1,5fc50ebcfb5e8f0ba8c0ece8,Mężczyzna,20,2021-07-13_21h52.40.766,rantool2,2021.1.4,Win32,60.65016982,5fc50ebcfb5e8f0ba8c0ece8,60d9d14f4a8a35a482e0d9bf,60edeef335f36c5acbadd63c,,,,,,,,,,,,
"[""comma""]",0,[0.30119999999999436],59,0,59,0,1,5fc50ebcfb5e8f0ba8c0ece8,Mężczyzna,20,2021-07-13_21h52.40.766,rantool2,2021.1.4,Win32,60.65016982,5fc50ebcfb5e8f0ba8c0ece8,60d9d14f4a8a35a482e0d9bf,60edeef335f36c5acbadd63c,,,,,,,,,,,,
"[""period""]",0,[0.26679999999998927],60,0,60,0,1,5fc50ebcfb5e8f0ba8c0ece8,Mężczyzna,20,2021-07-13_21h52.40.766,rantool2,2021.1.4,Win32,60.65016982,5fc50ebcfb5e8f0ba8c0ece8,60d9d14f4a8a35a482e0d9bf,60edeef335f36c5acbadd63c,,,,,,,,,,,,
"[""comma""]",0,[0.31740000000002055],61,0,61,0,1,5fc50ebcfb5e8f0ba8c0ece8,Mężczyzna,20,2021-07-13_21h52.40.766,rantool2,2021.1.4,Win32,60.65016982,5fc50ebcfb5e8f0ba8c0ece8,60d9d14f4a8a35a482e0d9bf,60edeef335f36c5acbadd63c,,,,,,,,,,,,
"[""period""]",0,[0.2675000000000125],62,0,62,0,1,5fc50ebcfb5e8f0ba8c0ece8,Mężczyzna,20,2021-07-13_21h52.40.766,rantool2,2021.1.4,Win32,60.65016982,5fc50ebcfb5e8f0ba8c0ece8,60d9d14f4a8a35a482e0d9bf,60edeef335f36c5acbadd63c,,,,,,,,,,,,
"[""comma""]",0,[0.26720000000000255],63,0,63,0,1,5fc50ebcfb5e8f0ba8c0ece8,Mężczyzna,20,2021-07-13_21h52.40.766,rantool2,2021.1.4,Win32,60.65016982,5fc50ebcfb5e8f0ba8c0ece8,60d9d14f4a8a35a482e0d9bf,60edeef335f36c5acbadd63c,,,,,,,,,,,,
"[""period""]",0,[0.23399999999998045],64,0,64,0,1,5fc50ebcfb5e8f0ba8c0ece8,Mężczyzna,20,2021-07-13_21h52.40.766,rantool2,2021.1.4,Win32,60.65016982,5fc50ebcfb5e8f0ba8c0ece8,60d9d14f4a8a35a482e0d9bf,60edeef335f36c5acbadd63c,,,,,,,,,,,,
"[""period""]",0,[0.25020000000000664],65,0,65,0,1,5fc50ebcfb5e8f0ba8c0ece8,Mężczyzna,20,2021-07-13_21h52.40.766,rantool2,2021.1.4,Win32,60.65016982,5fc50ebcfb5e8f0ba8c0ece8,60d9d14f4a8a35a482e0d9bf,60edeef335f36c5acbadd63c,,,,,,,,,,,,
"[""comma""]",0,[0.317100000000039],66,0,66,0,1,5fc50ebcfb5e8f0ba8c0ece8,Mężczyzna,20,2021-07-13_21h52.40.766,rantool2,2021.1.4,Win32,60.65016982,5fc50ebcfb5e8f0ba8c0ece8,60d9d14f4a8a35a482e0d9bf,60edeef335f36c5acbadd63c,,,,,,,,,,,,
"[""period""]",0,[0.31800000000001205],67,0,67,0,1,5fc50ebcfb5e8f0ba8c0ece8,Mężczyzna,20,2021-07-13_21h52.40.766,rantool2,2021.1.4,Win32,60.65016982,5fc50ebcfb5e8f0ba8c0ece8,60d9d14f4a8a35a482e0d9bf,60edeef335f36c5acbadd63c,,,,,,,,,,,,
"[""comma""]",0,[0.3678000000000452],68,0,68,0,1,5fc50ebcfb5e8f0ba8c0ece8,Mężczyzna,20,2021-07-13_21h52.40.766,rantool2,2021.1.4,Win32,60.65016982,5fc50ebcfb5e8f0ba8c0ece8,60d9d14f4a8a35a482e0d9bf,60edeef335f36c5acbadd63c,,,,,,,,,,,,
"[""comma""]",0,[0.4335999999999842],69,0,69,0,1,5fc50ebcfb5e8f0ba8c0ece8,Mężczyzna,20,2021-07-13_21h52.40.766,rantool2,2021.1.4,Win32,60.65016982,5fc50ebcfb5e8f0ba8c0ece8,60d9d14f4a8a35a482e0d9bf,60edeef335f36c5acbadd63c,,,,,,,,,,,,
"[""period""]",0,[0.3177000000000305],70,0,70,0,1,5fc50ebcfb5e8f0ba8c0ece8,Mężczyzna,20,2021-07-13_21h52.40.766,rantool2,2021.1.4,Win32,60.65016982,5fc50ebcfb5e8f0ba8c0ece8,60d9d14f4a8a35a482e0d9bf,60edeef335f36c5acbadd63c,,,,,,,,,,,,
"[""comma""]",0,[0.2833999999999719],71,0,71,0,1,5fc50ebcfb5e8f0ba8c0ece8,Mężczyzna,20,2021-07-13_21h52.40.766,rantool2,2021.1.4,Win32,60.65016982,5fc50ebcfb5e8f0ba8c0ece8,60d9d14f4a8a35a482e0d9bf,60edeef335f36c5acbadd63c,,,,,,,,,,,,
"[""period""]",0,[0.26739999999995234],72,0,72,0,1,5fc50ebcfb5e8f0ba8c0ece8,Mężczyzna,20,2021-07-13_21h52.40.766,rantool2,2021.1.4,Win32,60.65016982,5fc50ebcfb5e8f0ba8c0ece8,60d9d14f4a8a35a482e0d9bf,60edeef335f36c5acbadd63c,,,,,,,,,,,,
"[""comma""]",0,[0.40049999999999386],73,0,73,0,1,5fc50ebcfb5e8f0ba8c0ece8,Mężczyzna,20,2021-07-13_21h52.40.766,rantool2,2021.1.4,Win32,60.65016982,5fc50ebcfb5e8f0ba8c0ece8,60d9d14f4a8a35a482e0d9bf,60edeef335f36c5acbadd63c,,,,,,,,,,,,
"[""period""]",0,[0.3336999999999364],74,0,74,0,1,5fc50ebcfb5e8f0ba8c0ece8,Mężczyzna,20,2021-07-13_21h52.40.766,rantool2,2021.1.4,Win32,60.65016982,5fc50ebcfb5e8f0ba8c0ece8,60d9d14f4a8a35a482e0d9bf,60edeef335f36c5acbadd63c,,,,,,,,,,,,
"[""comma""]",0,[0.40030000000004407],75,0,75,0,1,5fc50ebcfb5e8f0ba8c0ece8,Mężczyzna,20,2021-07-13_21h52.40.766,rantool2,2021.1.4,Win32,60.65016982,5fc50ebcfb5e8f0ba8c0ece8,60d9d14f4a8a35a482e0d9bf,60edeef335f36c5acbadd63c,,,,,,,,,,,,
"[""period""]",0,[0.3172000000000139],76,0,76,0,1,5fc50ebcfb5e8f0ba8c0ece8,Mężczyzna,20,2021-07-13_21h52.40.766,rantool2,2021.1.4,Win32,60.65016982,5fc50ebcfb5e8f0ba8c0ece8,60d9d14f4a8a35a482e0d9bf,60edeef335f36c5acbadd63c,,,,,,,,,,,,
"[""period""]",0,[0.35079999999999245],77,0,77,0,1,5fc50ebcfb5e8f0ba8c0ece8,Mężczyzna,20,2021-07-13_21h52.40.766,rantool2,2021.1.4,Win32,60.65016982,5fc50ebcfb5e8f0ba8c0ece8,60d9d14f4a8a35a482e0d9bf,60edeef335f36c5acbadd63c,,,,,,,,,,,,
"[""comma""]",0,[0.3007999999999811],78,0,78,0,1,5fc50ebcfb5e8f0ba8c0ece8,Mężczyzna,20,2021-07-13_21h52.40.766,rantool2,2021.1.4,Win32,60.65016982,5fc50ebcfb5e8f0ba8c0ece8,60d9d14f4a8a35a482e0d9bf,60edeef335f36c5acbadd63c,,,,,,,,,,,,
"[""period""]",0,[0.2839000000000169],79,0,79,0,1,5fc50ebcfb5e8f0ba8c0ece8,Mężczyzna,20,2021-07-13_21h52.40.766,rantool2,2021.1.4,Win32,60.65016982,5fc50ebcfb5e8f0ba8c0ece8,60d9d14f4a8a35a482e0d9bf,60edeef335f36c5acbadd63c,,,,,,,,,,,,
"[""period""]",0,[0.28410000000002356],80,0,80,0,1,5fc50ebcfb5e8f0ba8c0ece8,Mężczyzna,20,2021-07-13_21h52.40.766,rantool2,2021.1.4,Win32,60.65016982,5fc50ebcfb5e8f0ba8c0ece8,60d9d14f4a8a35a482e0d9bf,60edeef335f36c5acbadd63c,,,,,,,,,,,,
"[""comma""]",0,[0.25090000000000146],81,0,81,0,1,5fc50ebcfb5e8f0ba8c0ece8,Mężczyzna,20,2021-07-13_21h52.40.766,rantool2,2021.1.4,Win32,60.65016982,5fc50ebcfb5e8f0ba8c0ece8,60d9d14f4a8a35a482e0d9bf,60edeef335f36c5acbadd63c,,,,,,,,,,,,
"[""comma""]",0,[0.33379999999999654],82,0,82,0,1,5fc50ebcfb5e8f0ba8c0ece8,Mężczyzna,20,2021-07-13_21h52.40.766,rantool2,2021.1.4,Win32,60.65016982,5fc50ebcfb5e8f0ba8c0ece8,60d9d14f4a8a35a482e0d9bf,60edeef335f36c5acbadd63c,,,,,,,,,,,,
"[""period""]",0,[0.2836000000000354],83,0,83,0,1,5fc50ebcfb5e8f0ba8c0ece8,Mężczyzna,20,2021-07-13_21h52.40.766,rantool2,2021.1.4,Win32,60.65016982,5fc50ebcfb5e8f0ba8c0ece8,60d9d14f4a8a35a482e0d9bf,60edeef335f36c5acbadd63c,,,,,,,,,,,,
"[""comma""]",0,[0.5507000000000062],84,0,84,0,1,5fc50ebcfb5e8f0ba8c0ece8,Mężczyzna,20,2021-07-13_21h52.40.766,rantool2,2021.1.4,Win32,60.65016982,5fc50ebcfb5e8f0ba8c0ece8,60d9d14f4a8a35a482e0d9bf,60edeef335f36c5acbadd63c,,,,,,,,,,,,
"[""comma""]",0,[0.3675000000000068],85,0,85,0,1,5fc50ebcfb5e8f0ba8c0ece8,Mężczyzna,20,2021-07-13_21h52.40.766,rantool2,2021.1.4,Win32,60.65016982,5fc50ebcfb5e8f0ba8c0ece8,60d9d14f4a8a35a482e0d9bf,60edeef335f36c5acbadd63c,,,,,,,,,,,,
"[""period""]",0,[0.3007999999999811],86,0,86,0,1,5fc50ebcfb5e8f0ba8c0ece8,Mężczyzna,20,2021-07-13_21h52.40.766,rantool2,2021.1.4,Win32,60.65016982,5fc50ebcfb5e8f0ba8c0ece8,60d9d14f4a8a35a482e0d9bf,60edeef335f36c5acbadd63c,,,,,,,,,,,,
"[""comma""]",0,[0.31759999999997035],87,0,87,0,1,5fc50ebcfb5e8f0ba8c0ece8,Mężczyzna,20,2021-07-13_21h52.40.766,rantool2,2021.1.4,Win32,60.65016982,5fc50ebcfb5e8f0ba8c0ece8,60d9d14f4a8a35a482e0d9bf,60edeef335f36c5acbadd63c,,,,,,,,,,,,
"[""period""]",0,[0.266900000000021],88,0,88,0,1,5fc50ebcfb5e8f0ba8c0ece8,Mężczyzna,20,2021-07-13_21h52.40.766,rantool2,2021.1.4,Win32,60.65016982,5fc50ebcfb5e8f0ba8c0ece8,60d9d14f4a8a35a482e0d9bf,60edeef335f36c5acbadd63c,,,,,,,,,,,,
"[""comma""]",0,[0.2508999999999446],89,0,89,0,1,5fc50ebcfb5e8f0ba8c0ece8,Mężczyzna,20,2021-07-13_21h52.40.766,rantool2,2021.1.4,Win32,60.65016982,5fc50ebcfb5e8f0ba8c0ece8,60d9d14f4a8a35a482e0d9bf,60edeef335f36c5acbadd63c,,,,,,,,,,,,
"[""period""]",0,[0.28369999999995343],90,0,90,0,1,5fc50ebcfb5e8f0ba8c0ece8,Mężczyzna,20,2021-07-13_21h52.40.766,rantool2,2021.1.4,Win32,60.65016982,5fc50ebcfb5e8f0ba8c0ece8,60d9d14f4a8a35a482e0d9bf,60edeef335f36c5acbadd63c,,,,,,,,,,,,
"[""comma""]",0,[0.08389999999997144],91,0,91,0,1,5fc50ebcfb5e8f0ba8c0ece8,Mężczyzna,20,2021-07-13_21h52.40.766,rantool2,2021.1.4,Win32,60.65016982,5fc50ebcfb5e8f0ba8c0ece8,60d9d14f4a8a35a482e0d9bf,60edeef335f36c5acbadd63c,,,,,,,,,,,,
"[""period""]",0,[0.2675000000000409],92,0,92,0,1,5fc50ebcfb5e8f0ba8c0ece8,Mężczyzna,20,2021-07-13_21h52.40.766,rantool2,2021.1.4,Win32,60.65016982,5fc50ebcfb5e8f0ba8c0ece8,60d9d14f4a8a35a482e0d9bf,60edeef335f36c5acbadd63c,,,,,,,,,,,,
"[""comma""]",0,[0.23399999999998045],93,0,93,0,1,5fc50ebcfb5e8f0ba8c0ece8,Mężczyzna,20,2021-07-13_21h52.40.766,rantool2,2021.1.4,Win32,60.65016982,5fc50ebcfb5e8f0ba8c0ece8,60d9d14f4a8a35a482e0d9bf,60edeef335f36c5acbadd63c,,,,,,,,,,,,
"[""period""]",0,[0.3505000000000109],94,0,94,0,1,5fc50ebcfb5e8f0ba8c0ece8,Mężczyzna,20,2021-07-13_21h52.40.766,rantool2,2021.1.4,Win32,60.65016982,5fc50ebcfb5e8f0ba8c0ece8,60d9d14f4a8a35a482e0d9bf,60edeef335f36c5acbadd63c,,,,,,,,,,,,
"[""comma""]",0,[0.550899999999956],95,0,95,0,1,5fc50ebcfb5e8f0ba8c0ece8,Mężczyzna,20,2021-07-13_21h52.40.766,rantool2,2021.1.4,Win32,60.65016982,5fc50ebcfb5e8f0ba8c0ece8,60d9d14f4a8a35a482e0d9bf,60edeef335f36c5acbadd63c,,,,,,,,,,,,
"[""period""]",0,[0.26689999999996417],96,0,96,0,1,5fc50ebcfb5e8f0ba8c0ece8,Mężczyzna,20,2021-07-13_21h52.40.766,rantool2,2021.1.4,Win32,60.65016982,5fc50ebcfb5e8f0ba8c0ece8,60d9d14f4a8a35a482e0d9bf,60edeef335f36c5acbadd63c,,,,,,,,,,,,
"[""comma""]",0,[0.30110000000001946],97,0,97,0,1,5fc50ebcfb5e8f0ba8c0ece8,Mężczyzna,20,2021-07-13_21h52.40.766,rantool2,2021.1.4,Win32,60.65016982,5fc50ebcfb5e8f0ba8c0ece8,60d9d14f4a8a35a482e0d9bf,60edeef335f36c5acbadd63c,,,,,,,,,,,,
"[""period""]",0,[0.4837999999999738],98,0,98,0,1,5fc50ebcfb5e8f0ba8c0ece8,Mężczyzna,20,2021-07-13_21h52.40.766,rantool2,2021.1.4,Win32,60.65016982,5fc50ebcfb5e8f0ba8c0ece8,60d9d14f4a8a35a482e0d9bf,60edeef335f36c5acbadd63c,,,,,,,,,,,,
"[""comma""]",0,[0.8183999999999969],99,0,99,0,1,5fc50ebcfb5e8f0ba8c0ece8,Mężczyzna,20,2021-07-13_21h52.40.766,rantool2,2021.1.4,Win32,60.65016982,5fc50ebcfb5e8f0ba8c0ece8,60d9d14f4a8a35a482e0d9bf,60edeef335f36c5acbadd63c,,,,,,,,,,,,
"[""period""]",0,[0.3663999999999987],100,0,100,0,1,5fc50ebcfb5e8f0ba8c0ece8,Mężczyzna,20,2021-07-13_21h52.40.766,rantool2,2021.1.4,Win32,60.65016982,5fc50ebcfb5e8f0ba8c0ece8,60d9d14f4a8a35a482e0d9bf,60edeef335f36c5acbadd63c,,,,,,,,,,,,
"[""comma""]",0,[0.36779999999998836],101,0,101,0,1,5fc50ebcfb5e8f0ba8c0ece8,Mężczyzna,20,2021-07-13_21h52.40.766,rantool2,2021.1.4,Win32,60.65016982,5fc50ebcfb5e8f0ba8c0ece8,60d9d14f4a8a35a482e0d9bf,60edeef335f36c5acbadd63c,,,,,,,,,,,,
"[""comma""]",0,[0.3673999999999751],102,0,102,0,1,5fc50ebcfb5e8f0ba8c0ece8,Mężczyzna,20,2021-07-13_21h52.40.766,rantool2,2021.1.4,Win32,60.65016982,5fc50ebcfb5e8f0ba8c0ece8,60d9d14f4a8a35a482e0d9bf,60edeef335f36c5acbadd63c,,,,,,,,,,,,
"[""period"",""period""]",0,"[0.3342999999999847,1.900700000000029]",103,0,103,0,1,5fc50ebcfb5e8f0ba8c0ece8,Mężczyzna,20,2021-07-13_21h52.40.766,rantool2,2021.1.4,Win32,60.65016982,5fc50ebcfb5e8f0ba8c0ece8,60d9d14f4a8a35a482e0d9bf,60edeef335f36c5acbadd63c,,,,,,,,,,,,
0,0,,104,0,104,0,1,5fc50ebcfb5e8f0ba8c0ece8,Mężczyzna,20,2021-07-13_21h52.40.766,rantool2,2021.1.4,Win32,60.65016982,5fc50ebcfb5e8f0ba8c0ece8,60d9d14f4a8a35a482e0d9bf,60edeef335f36c5acbadd63c,,,,,,,,,,,,
"[""comma""]",0,[0.317799999999977],105,0,105,0,1,5fc50ebcfb5e8f0ba8c0ece8,Mężczyzna,20,2021-07-13_21h52.40.766,rantool2,2021.1.4,Win32,60.65016982,5fc50ebcfb5e8f0ba8c0ece8,60d9d14f4a8a35a482e0d9bf,60edeef335f36c5acbadd63c,,,,,,,,,,,,
"[""comma""]",0,[0.3009000000000128],106,0,106,0,1,5fc50ebcfb5e8f0ba8c0ece8,Mężczyzna,20,2021-07-13_21h52.40.766,rantool2,2021.1.4,Win32,60.65016982,5fc50ebcfb5e8f0ba8c0ece8,60d9d14f4a8a35a482e0d9bf,60edeef335f36c5acbadd63c,,,,,,,,,,,,
"[""period""]",0,[0.28419999999999845],107,0,107,0,1,5fc50ebcfb5e8f0ba8c0ece8,Mężczyzna,20,2021-07-13_21h52.40.766,rantool2,2021.1.4,Win32,60.65016982,5fc50ebcfb5e8f0ba8c0ece8,60d9d14f4a8a35a482e0d9bf,60edeef335f36c5acbadd63c,,,,,,,,,,,,
"[""comma"",""period""]",0,"[0.20089999999993324,1.9171999999999798]",108,0,108,0,1,5fc50ebcfb5e8f0ba8c0ece8,Mężczyzna,20,2021-07-13_21h52.40.766,rantool2,2021.1.4,Win32,60.65016982,5fc50ebcfb5e8f0ba8c0ece8,60d9d14f4a8a35a482e0d9bf,60edeef335f36c5acbadd63c,,,,,,,,,,,,
0,0,,109,0,109,0,1,5fc50ebcfb5e8f0ba8c0ece8,Mężczyzna,20,2021-07-13_21h52.40.766,rantool2,2021.1.4,Win32,60.65016982,5fc50ebcfb5e8f0ba8c0ece8,60d9d14f4a8a35a482e0d9bf,60edeef335f36c5acbadd63c,,,,,,,,,,,,
"[""comma""]",0,[0.3179000000000656],110,0,110,0,1,5fc50ebcfb5e8f0ba8c0ece8,Mężczyzna,20,2021-07-13_21h52.40.766,rantool2,2021.1.4,Win32,60.65016982,5fc50ebcfb5e8f0ba8c0ece8,60d9d14f4a8a35a482e0d9bf,60edeef335f36c5acbadd63c,,,,,,,,,,,,
"[""period""]",0,[0.42070000000001073],111,0,111,0,1,5fc50ebcfb5e8f0ba8c0ece8,Mężczyzna,20,2021-07-13_21h52.40.766,rantool2,2021.1.4,Win32,60.65016982,5fc50ebcfb5e8f0ba8c0ece8,60d9d14f4a8a35a482e0d9bf,60edeef335f36c5acbadd63c,,,,,,,,,,,,
"[""comma""]",0,[0.40289999999998827],112,0,112,0,1,5fc50ebcfb5e8f0ba8c0ece8,Mężczyzna,20,2021-07-13_21h52.40.766,rantool2,2021.1.4,Win32,60.65016982,5fc50ebcfb5e8f0ba8c0ece8,60d9d14f4a8a35a482e0d9bf,60edeef335f36c5acbadd63c,,,,,,,,,,,,
"[""comma""]",0,[0.4943000000000666],113,0,113,0,1,5fc50ebcfb5e8f0ba8c0ece8,Mężczyzna,20,2021-07-13_21h52.40.766,rantool2,2021.1.4,Win32,60.65016982,5fc50ebcfb5e8f0ba8c0ece8,60d9d14f4a8a35a482e0d9bf,60edeef335f36c5acbadd63c,,,,,,,,,,,,
"[""comma""]",0,[0.3527000000000271],114,0,114,0,1,5fc50ebcfb5e8f0ba8c0ece8,Mężczyzna,20,2021-07-13_21h52.40.766,rantool2,2021.1.4,Win32,60.65016982,5fc50ebcfb5e8f0ba8c0ece8,60d9d14f4a8a35a482e0d9bf,60edeef335f36c5acbadd63c,,,,,,,,,,,,
"[""period""]",0,[0.35859999999996717],115,0,115,0,1,5fc50ebcfb5e8f0ba8c0ece8,Mężczyzna,20,2021-07-13_21h52.40.766,rantool2,2021.1.4,Win32,60.65016982,5fc50ebcfb5e8f0ba8c0ece8,60d9d14f4a8a35a482e0d9bf,60edeef335f36c5acbadd63c,,,,,,,,,,,,
"[""comma""]",0,[0.4685000000000059],116,0,116,0,1,5fc50ebcfb5e8f0ba8c0ece8,Mężczyzna,20,2021-07-13_21h52.40.766,rantool2,2021.1.4,Win32,60.65016982,5fc50ebcfb5e8f0ba8c0ece8,60d9d14f4a8a35a482e0d9bf,60edeef335f36c5acbadd63c,,,,,,,,,,,,
"[""period""]",0,[0.5522999999999456],117,0,117,0,1,5fc50ebcfb5e8f0ba8c0ece8,Mężczyzna,20,2021-07-13_21h52.40.766,rantool2,2021.1.4,Win32,60.65016982,5fc50ebcfb5e8f0ba8c0ece8,60d9d14f4a8a35a482e0d9bf,60edeef335f36c5acbadd63c,,,,,,,,,,,,
"[""period""]",0,[1.0010999999999513],118,0,118,0,1,5fc50ebcfb5e8f0ba8c0ece8,Mężczyzna,20,2021-07-13_21h52.40.766,rantool2,2021.1.4,Win32,60.65016982,5fc50ebcfb5e8f0ba8c0ece8,60d9d14f4a8a35a482e0d9bf,60edeef335f36c5acbadd63c,,,,,,,,,,,,
"[""comma""]",0,[0.45150000000001],119,0,119,0,1,5fc50ebcfb5e8f0ba8c0ece8,Mężczyzna,20,2021-07-13_21h52.40.766,rantool2,2021.1.4,Win32,60.65016982,5fc50ebcfb5e8f0ba8c0ece8,60d9d14f4a8a35a482e0d9bf,60edeef335f36c5acbadd63c,,,,,,,,,,,,
,,,,,,,,5fc50ebcfb5e8f0ba8c0ece8,Mężczyzna,20,2021-07-13_21h52.40.766,rantool2,2021.1.4,Win32,60.65016982,5fc50ebcfb5e8f0ba8c0ece8,60d9d14f4a8a35a482e0d9bf,60edeef335f36c5acbadd63c,j,2.194,0,0,0,51,1,RROORRO,RROORRR,21.89852628,22.02786418,series_1
,,,,,,,,5fc50ebcfb5e8f0ba8c0ece8,Mężczyzna,20,2021-07-13_21h52.40.766,rantool2,2021.1.4,Win32,60.65016982,5fc50ebcfb5e8f0ba8c0ece8,60d9d14f4a8a35a482e0d9bf,60edeef335f36c5acbadd63c,f,1.0672,0,1,1,31,1,ORRRRRO,ORRRRRR,22.16413392,20.74050628,series_0
,,,,,,,,5fc50ebcfb5e8f0ba8c0ece8,Mężczyzna,20,2021-07-13_21h52.40.766,rantool2,2021.1.4,Win32,60.65016982,5fc50ebcfb5e8f0ba8c0ece8,60d9d14f4a8a35a482e0d9bf,60edeef335f36c5acbadd63c,j,1.2266,0,2,2,14,1,OORRROO,OORRROR,22.24142883,22.16977179,series_0
,,,,,,,,5fc50ebcfb5e8f0ba8c0ece8,Mężczyzna,20,2021-07-13_21h52.40.766,rantool2,2021.1.4,Win32,60.65016982,5fc50ebcfb5e8f0ba8c0ece8,60d9d14f4a8a35a482e0d9bf,60edeef335f36c5acbadd63c,j,1.624,0,3,3,4,1,OOOROOO,OOOROOR,19.91402015,21.21223021,series_1
,,,,,,,,5fc50ebcfb5e8f0ba8c0ece8,Mężczyzna,20,2021-07-13_21h52.40.766,rantool2,2021.1.4,Win32,60.65016982,5fc50ebcfb5e8f0ba8c0ece8,60d9d14f4a8a35a482e0d9bf,60edeef335f36c5acbadd63c,f,1.1251,0,4,4,52,1,RROROOO,RROROOR,22.18365867,22.11097995,series_0
,,,,,,,,5fc50ebcfb5e8f0ba8c0ece8,Mężczyzna,20,2021-07-13_21h52.40.766,rantool2,2021.1.4,Win32,60.65016982,5fc50ebcfb5e8f0ba8c0ece8,60d9d14f4a8a35a482e0d9bf,60edeef335f36c5acbadd63c,j,1.4758,0,5,5,53,1,RRORORO,RRORORR,20.71309134,21.90565814,series_1
,,,,,,,,5fc50ebcfb5e8f0ba8c0ece8,Mężczyzna,20,2021-07-13_21h52.40.766,rantool2,2021.1.4,Win32,60.65016982,5fc50ebcfb5e8f0ba8c0ece8,60d9d14f4a8a35a482e0d9bf,60edeef335f36c5acbadd63c,f,1.4625,0,6,6,10,1,OOROROO,OOROROR,21.31236711,21.07490964,series_0
,,,,,,,,5fc50ebcfb5e8f0ba8c0ece8,Mężczyzna,20,2021-07-13_21h52.40.766,rantool2,2021.1.4,Win32,60.65016982,5fc50ebcfb5e8f0ba8c0ece8,60d9d14f4a8a35a482e0d9bf,60edeef335f36c5acbadd63c,f,1.2162,0,7,7,54,1,RRORROO,RRORROR,21.55250791,20.9984461,series_0
,,,,,,,,5fc50ebcfb5e8f0ba8c0ece8,Mężczyzna,20,2021-07-13_21h52.40.766,rantool2,2021.1.4,Win32,60.65016982,5fc50ebcfb5e8f0ba8c0ece8,60d9d14f4a8a35a482e0d9bf,60edeef335f36c5acbadd63c,j,1.094,0,8,8,3,1,OOOORRO,OOOORRR,20.90986523,21.74922619,series_1
,,,,,,,,5fc50ebcfb5e8f0ba8c0ece8,Mężczyzna,20,2021-07-13_21h52.40.766,rantool2,2021.1.4,Win32,60.65016982,5fc50ebcfb5e8f0ba8c0ece8,60d9d14f4a8a35a482e0d9bf,60edeef335f36c5acbadd63c,f,1.1042,0,9,9,29,1,ORRRORO,ORRRORR,22.00300695,22.12173012,series_1
,,,,,,,,5fc50ebcfb5e8f0ba8c0ece8,Mężczyzna,20,2021-07-13_21h52.40.766,rantool2,2021.1.4,Win32,60.65016982,5fc50ebcfb5e8f0ba8c0ece8,60d9d14f4a8a35a482e0d9bf,60edeef335f36c5acbadd63c,j,1.0905,0,10,10,20,1,OROROOO,OROROOR,21.31236711,21.90565814,series_1
,,,,,,,,5fc50ebcfb5e8f0ba8c0ece8,Mężczyzna,20,2021-07-13_21h52.40.766,rantool2,2021.1.4,Win32,60.65016982,5fc50ebcfb5e8f0ba8c0ece8,60d9d14f4a8a35a482e0d9bf,60edeef335f36c5acbadd63c,f,1.3823,0,11,11,57,1,RRROORO,RRROORR,21.82425538,22.07102821,series_1
,,,,,,,,5fc50ebcfb5e8f0ba8c0ece8,Mężczyzna,20,2021-07-13_21h52.40.766,rantool2,2021.1.4,Win32,60.65016982,5fc50ebcfb5e8f0ba8c0ece8,60d9d14f4a8a35a482e0d9bf,60edeef335f36c5acbadd63c,f,1.3763,0,12,12,22,1,ORORROO,ORORROR,22.02732763,21.57657071,series_0
,,,,,,,,5fc50ebcfb5e8f0ba8c0ece8,Mężczyzna,20,2021-07-13_21h52.40.766,rantool2,2021.1.4,Win32,60.65016982,5fc50ebcfb5e8f0ba8c0ece8,60d9d14f4a8a35a482e0d9bf,60edeef335f36c5acbadd63c,j,1.2725,0,13,13,19,1,OROORRO,OROORRR,21.73568164,22.11181017,series_1
,,,,,,,,5fc50ebcfb5e8f0ba8c0ece8,Mężczyzna,20,2021-07-13_21h52.40.766,rantool2,2021.1.4,Win32,60.65016982,5fc50ebcfb5e8f0ba8c0ece8,60d9d14f4a8a35a482e0d9bf,60edeef335f36c5acbadd63c,f,1.3548,0,14,14,12,1,OORROOO,OORROOR,21.30250474,22.02786418,series_1
,,,,,,,,5fc50ebcfb5e8f0ba8c0ece8,Mężczyzna,20,2021-07-13_21h52.40.766,rantool2,2021.1.4,Win32,60.65016982,5fc50ebcfb5e8f0ba8c0ece8,60d9d14f4a8a35a482e0d9bf,60edeef335f36c5acbadd63c,f,1.3748,0,15,15,55,1,RRORRRO,RRORRRR,21.56657303,21.21223021,series_0
,,,,,,,,5fc50ebcfb5e8f0ba8c0ece8,Mężczyzna,20,2021-07-13_21h52.40.766,rantool2,2021.1.4,Win32,60.65016982,5fc50ebcfb5e8f0ba8c0ece8,60d9d14f4a8a35a482e0d9bf,60edeef335f36c5acbadd63c,j,1.2648,0,16,16,49,1,RROOORO,RROOORR,21.76276513,22.53364006,series_1
,,,,,,,,5fc50ebcfb5e8f0ba8c0ece8,Mężczyzna,20,2021-07-13_21h52.40.766,rantool2,2021.1.4,Win32,60.65016982,5fc50ebcfb5e8f0ba8c0ece8,60d9d14f4a8a35a482e0d9bf,60edeef335f36c5acbadd63c,f,1.4987,0,17,17,56,1,RRROOOO,RRROOOR,21.6194508,22.31681875,series_1
,,,,,,,,5fc50ebcfb5e8f0ba8c0ece8,Mężczyzna,20,2021-07-13_21h52.40.766,rantool2,2021.1.4,Win32,60.65016982,5fc50ebcfb5e8f0ba8c0ece8,60d9d14f4a8a35a482e0d9bf,60edeef335f36c5acbadd63c,f,1.3924,0,18,18,26,1,ORROROO,ORROROR,22.02732763,21.71443381,series_0
,,,,,,,,5fc50ebcfb5e8f0ba8c0ece8,Mężczyzna,20,2021-07-13_21h52.40.766,rantool2,2021.1.4,Win32,60.65016982,5fc50ebcfb5e8f0ba8c0ece8,60d9d14f4a8a35a482e0d9bf,60edeef335f36c5acbadd63c,j,1.2777,0,19,19,58,1,RRROROO,RRROROR,22.1285618,21.37121559,series_0
,,,,,,,,5fc50ebcfb5e8f0ba8c0ece8,Mężczyzna,20,2021-07-13_21h52.40.766,rantool2,2021.1.4,Win32,60.65016982,5fc50ebcfb5e8f0ba8c0ece8,60d9d14f4a8a35a482e0d9bf,60edeef335f36c5acbadd63c,f,1.3904,0,20,20,59,1,RRRORRO,RRRORRR,21.56657303,20.89823192,series_0
,,,,,,,,5fc50ebcfb5e8f0ba8c0ece8,Mężczyzna,20,2021-07-13_21h52.40.766,rantool2,2021.1.4,Win32,60.65016982,5fc50ebcfb5e8f0ba8c0ece8,60d9d14f4a8a35a482e0d9bf,60edeef335f36c5acbadd63c,j,1.3184,0,21,21,60,1,RRRROOO,RRRROOR,22.10108823,22.15934078,series_1
,,,,,,,,5fc50ebcfb5e8f0ba8c0ece8,Mężczyzna,20,2021-07-13_21h52.40.766,rantool2,2021.1.4,Win32,60.65016982,5fc50ebcfb5e8f0ba8c0ece8,60d9d14f4a8a35a482e0d9bf,60edeef335f36c5acbadd63c,f,1.2485,0,22,22,23,1,ORORRRO,ORORRRR,22.1285618,21.9921709,series_0
,,,,,,,,5fc50ebcfb5e8f0ba8c0ece8,Mężczyzna,20,2021-07-13_21h52.40.766,rantool2,2021.1.4,Win32,60.65016982,5fc50ebcfb5e8f0ba8c0ece8,60d9d14f4a8a35a482e0d9bf,60edeef335f36c5acbadd63c,f,1.3146,0,23,23,11,1,OORORRO,OORORRR,22.18365867,22.6797523,series_1
,,,,,,,,5fc50ebcfb5e8f0ba8c0ece8,Mężczyzna,20,2021-07-13_21h52.40.766,rantool2,2021.1.4,Win32,60.65016982,5fc50ebcfb5e8f0ba8c0ece8,60d9d14f4a8a35a482e0d9bf,60edeef335f36c5acbadd63c,j,1.2552,0,24,24,6,1,OOORROO,OOORROR,21.12383932,21.38562617,series_1
,,,,,,,,5fc50ebcfb5e8f0ba8c0ece8,Mężczyzna,20,2021-07-13_21h52.40.766,rantool2,2021.1.4,Win32,60.65016982,5fc50ebcfb5e8f0ba8c0ece8,60d9d14f4a8a35a482e0d9bf,60edeef335f36c5acbadd63c,f,1.1896,0,25,25,61,1,RRRRORO,RRRRORR,21.81333602,21.17347734,series_0
,,,,,,,,5fc50ebcfb5e8f0ba8c0ece8,Mężczyzna,20,2021-07-13_21h52.40.766,rantool2,2021.1.4,Win32,60.65016982,5fc50ebcfb5e8f0ba8c0ece8,60d9d14f4a8a35a482e0d9bf,60edeef335f36c5acbadd63c,j,1.076,0,26,26,32,1,ROOOOOO,ROOOOOR,19.92253567,21.27974287,series_1
,,,,,,,,5fc50ebcfb5e8f0ba8c0ece8,Mężczyzna,20,2021-07-13_21h52.40.766,rantool2,2021.1.4,Win32,60.65016982,5fc50ebcfb5e8f0ba8c0ece8,60d9d14f4a8a35a482e0d9bf,60edeef335f36c5acbadd63c,f,1.2343,0,27,27,24,1,ORROOOO,ORROOOR,21.12383932,22.07102821,series_1
,,,,,,,,5fc50ebcfb5e8f0ba8c0ece8,Mężczyzna,20,2021-07-13_21h52.40.766,rantool2,2021.1.4,Win32,60.65016982,5fc50ebcfb5e8f0ba8c0ece8,60d9d14f4a8a35a482e0d9bf,60edeef335f36c5acbadd63c,f,1.569,0,28,28,48,1,RROOOOO,RROOOOR,20.90986523,22.15934078,series_1
,,,,,,,,5fc50ebcfb5e8f0ba8c0ece8,Mężczyzna,20,2021-07-13_21h52.40.766,rantool2,2021.1.4,Win32,60.65016982,5fc50ebcfb5e8f0ba8c0ece8,60d9d14f4a8a35a482e0d9bf,60edeef335f36c5acbadd63c,j,1.0043,0,29,29,37,1,ROORORO,ROORORR,20.42602454,21.57657071,series_1
,,,,,,,,5fc50ebcfb5e8f0ba8c0ece8,Mężczyzna,20,2021-07-13_21h52.40.766,rantool2,2021.1.4,Win32,60.65016982,5fc50ebcfb5e8f0ba8c0ece8,60d9d14f4a8a35a482e0d9bf,60edeef335f36c5acbadd63c,j,0.8706,0,30,30,7,1,OOORRRO,OOORRRR,21.6194508,21.899017,series_1
,,,,,,,,5fc50ebcfb5e8f0ba8c0ece8,Mężczyzna,20,2021-07-13_21h52.40.766,rantool2,2021.1.4,Win32,60.65016982,5fc50ebcfb5e8f0ba8c0ece8,60d9d14f4a8a35a482e0d9bf,60edeef335f36c5acbadd63c,j,0.8504,0,31,31,44,1,RORROOO,RORROOR,21.66733484,22.02566557,series_1
,,,,,,,,5fc50ebcfb5e8f0ba8c0ece8,Mężczyzna,20,2021-07-13_21h52.40.766,rantool2,2021.1.4,Win32,60.65016982,5fc50ebcfb5e8f0ba8c0ece8,60d9d14f4a8a35a482e0d9bf,60edeef335f36c5acbadd63c,f,1.0632,0,32,32,36,1,ROOROOO,ROOROOR,21.07991943,20.9984461,series_0
,,,,,,,,5fc50ebcfb5e8f0ba8c0ece8,Mężczyzna,20,2021-07-13_21h52.40.766,rantool2,2021.1.4,Win32,60.65016982,5fc50ebcfb5e8f0ba8c0ece8,60d9d14f4a8a35a482e0d9bf,60edeef335f36c5acbadd63c,f,0.778,0,33,33,18,1,OROOROO,OROOROR,20.84860893,21.22513037,series_1
,,,,,,,,5fc50ebcfb5e8f0ba8c0ece8,Mężczyzna,20,2021-07-13_21h52.40.766,rantool2,2021.1.4,Win32,60.65016982,5fc50ebcfb5e8f0ba8c0ece8,60d9d14f4a8a35a482e0d9bf,60edeef335f36c5acbadd63c,f,1.1934,0,34,34,0,1,OOOOOOO,OOOOOOR,18.52739004,19.62521613,series_1
,,,,,,,,5fc50ebcfb5e8f0ba8c0ece8,Mężczyzna,20,2021-07-13_21h52.40.766,rantool2,2021.1.4,Win32,60.65016982,5fc50ebcfb5e8f0ba8c0ece8,60d9d14f4a8a35a482e0d9bf,60edeef335f36c5acbadd63c,j,0.919,0,35,35,27,1,ORRORRO,ORRORRR,21.55250791,22.2428857,series_1
,,,,,,,,5fc50ebcfb5e8f0ba8c0ece8,Mężczyzna,20,2021-07-13_21h52.40.766,rantool2,2021.1.4,Win32,60.65016982,5fc50ebcfb5e8f0ba8c0ece8,60d9d14f4a8a35a482e0d9bf,60edeef335f36c5acbadd63c,j,1.1219,0,36,36,34,1,ROOOROO,ROOOROR,21.03750787,21.24781509,series_1
,,,,,,,,5fc50ebcfb5e8f0ba8c0ece8,Mężczyzna,20,2021-07-13_21h52.40.766,rantool2,2021.1.4,Win32,60.65016982,5fc50ebcfb5e8f0ba8c0ece8,60d9d14f4a8a35a482e0d9bf,60edeef335f36c5acbadd63c,f,1.3683,0,37,37,8,1,OOROOOO,OOROOOR,19.91402015,20.89823192,series_1
,,,,,,,,5fc50ebcfb5e8f0ba8c0ece8,Mężczyzna,20,2021-07-13_21h52.40.766,rantool2,2021.1.4,Win32,60.65016982,5fc50ebcfb5e8f0ba8c0ece8,60d9d14f4a8a35a482e0d9bf,60edeef335f36c5acbadd63c,j,0.7178,0,38,38,45,1,RORRORO,RORRORR,20.78182524,21.22513037,series_1
,,,,,,,,5fc50ebcfb5e8f0ba8c0ece8,Mężczyzna,20,2021-07-13_21h52.40.766,rantool2,2021.1.4,Win32,60.65016982,5fc50ebcfb5e8f0ba8c0ece8,60d9d14f4a8a35a482e0d9bf,60edeef335f36c5acbadd63c,j,0.9511,0,39,39,2,1,OOOOROO,OOOOROR,20.43051175,21.02936224,series_1
,,,,,,,,5fc50ebcfb5e8f0ba8c0ece8,Mężczyzna,20,2021-07-13_21h52.40.766,rantool2,2021.1.4,Win32,60.65016982,5fc50ebcfb5e8f0ba8c0ece8,60d9d14f4a8a35a482e0d9bf,60edeef335f36c5acbadd63c,j,0.7732,0,40,40,25,1,ORROORO,ORROORR,21.79500819,22.61624387,series_1
,,,,,,,,5fc50ebcfb5e8f0ba8c0ece8,Mężczyzna,20,2021-07-13_21h52.40.766,rantool2,2021.1.4,Win32,60.65016982,5fc50ebcfb5e8f0ba8c0ece8,60d9d14f4a8a35a482e0d9bf,60edeef335f36c5acbadd63c,f,0.7439,0,41,41,5,1,OOORORO,OOORORR,20.87963819,21.9921709,series_1
,,,,,,,,5fc50ebcfb5e8f0ba8c0ece8,Mężczyzna,20,2021-07-13_21h52.40.766,rantool2,2021.1.4,Win32,60.65016982,5fc50ebcfb5e8f0ba8c0ece8,60d9d14f4a8a35a482e0d9bf,60edeef335f36c5acbadd63c,f,1.3042,0,42,42,47,1,RORRRRO,RORRRRR,21.81333602,21.02936224,series_0
,,,,,,,,5fc50ebcfb5e8f0ba8c0ece8,Mężczyzna,20,2021-07-13_21h52.40.766,rantool2,2021.1.4,Win32,60.65016982,5fc50ebcfb5e8f0ba8c0ece8,60d9d14f4a8a35a482e0d9bf,60edeef335f36c5acbadd63c,f,1.3433,0,43,43,16,1,OROOOOO,OROOOOR,20.43051175,21.17347734,series_1
,,,,,,,,5fc50ebcfb5e8f0ba8c0ece8,Mężczyzna,20,2021-07-13_21h52.40.766,rantool2,2021.1.4,Win32,60.65016982,5fc50ebcfb5e8f0ba8c0ece8,60d9d14f4a8a35a482e0d9bf,60edeef335f36c5acbadd63c,f,1.1367,0,44,44,21,1,ORORORO,ORORORR,20.39515459,22.06781359,series_1
,,,,,,,,5fc50ebcfb5e8f0ba8c0ece8,Mężczyzna,20,2021-07-13_21h52.40.766,rantool2,2021.1.4,Win32,60.65016982,5fc50ebcfb5e8f0ba8c0ece8,60d9d14f4a8a35a482e0d9bf,60edeef335f36c5acbadd63c,j,1.5393,0,45,45,28,1,ORRROOO,ORRROOR,22.24142883,22.53364006,series_1
,,,,,,,,5fc50ebcfb5e8f0ba8c0ece8,Mężczyzna,20,2021-07-13_21h52.40.766,rantool2,2021.1.4,Win32,60.65016982,5fc50ebcfb5e8f0ba8c0ece8,60d9d14f4a8a35a482e0d9bf,60edeef335f36c5acbadd63c,j,0.8044,0,46,46,50,1,RROOROO,RROOROR,21.73568164,22.02566557,series_1
,,,,,,,,5fc50ebcfb5e8f0ba8c0ece8,Mężczyzna,20,2021-07-13_21h52.40.766,rantool2,2021.1.4,Win32,60.65016982,5fc50ebcfb5e8f0ba8c0ece8,60d9d14f4a8a35a482e0d9bf,60edeef335f36c5acbadd63c,f,1.3715,0,47,47,43,1,RORORRO,RORORRR,20.71309134,21.07490964,series_1
,,,,,,,,5fc50ebcfb5e8f0ba8c0ece8,Mężczyzna,20,2021-07-13_21h52.40.766,rantool2,2021.1.4,Win32,60.65016982,5fc50ebcfb5e8f0ba8c0ece8,60d9d14f4a8a35a482e0d9bf,60edeef335f36c5acbadd63c,j,0.8512,0,48,48,40,1,ROROOOO,ROROOOR,20.87963819,21.37121559,series_1
,,,,,,,,5fc50ebcfb5e8f0ba8c0ece8,Mężczyzna,20,2021-07-13_21h52.40.766,rantool2,2021.1.4,Win32,60.65016982,5fc50ebcfb5e8f0ba8c0ece8,60d9d14f4a8a35a482e0d9bf,60edeef335f36c5acbadd63c,f,0.8845,0,49,49,63,1,RRRRRRO,RRRRRRR,21.35278725,19.62521613,series_0
,,,,,,,,5fc50ebcfb5e8f0ba8c0ece8,Mężczyzna,20,2021-07-13_21h52.40.766,rantool2,2021.1.4,Win32,60.65016982,5fc50ebcfb5e8f0ba8c0ece8,60d9d14f4a8a35a482e0d9bf,60edeef335f36c5acbadd63c,j,1.5741,0,50,50,1,1,OOOOORO,OOOOORR,19.92253567,20.74050628,series_1
,,,,,,,,5fc50ebcfb5e8f0ba8c0ece8,Mężczyzna,20,2021-07-13_21h52.40.766,rantool2,2021.1.4,Win32,60.65016982,5fc50ebcfb5e8f0ba8c0ece8,60d9d14f4a8a35a482e0d9bf,60edeef335f36c5acbadd63c,j,0.8011,0,51,51,35,1,ROOORRO,ROOORRR,21.76276513,22.16977179,series_1
,,,,,,,,5fc50ebcfb5e8f0ba8c0ece8,Mężczyzna,20,2021-07-13_21h52.40.766,rantool2,2021.1.4,Win32,60.65016982,5fc50ebcfb5e8f0ba8c0ece8,60d9d14f4a8a35a482e0d9bf,60edeef335f36c5acbadd63c,f,0.7459,0,52,52,30,1,ORRRROO,ORRRROR,22.46748491,22.03072203,series_0
,,,,,,,,5fc50ebcfb5e8f0ba8c0ece8,Mężczyzna,20,2021-07-13_21h52.40.766,rantool2,2021.1.4,Win32,60.65016982,5fc50ebcfb5e8f0ba8c0ece8,60d9d14f4a8a35a482e0d9bf,60edeef335f36c5acbadd63c,f,0.8843,0,53,53,39,1,ROORRRO,ROORRRR,21.82425538,21.38562617,series_0
,,,,,,,,5fc50ebcfb5e8f0ba8c0ece8,Mężczyzna,20,2021-07-13_21h52.40.766,rantool2,2021.1.4,Win32,60.65016982,5fc50ebcfb5e8f0ba8c0ece8,60d9d14f4a8a35a482e0d9bf,60edeef335f36c5acbadd63c,j,0.6381,0,54,54,15,1,OORRRRO,OORRRRR,22.10108823,21.74922619,series_0
,,,,,,,,5fc50ebcfb5e8f0ba8c0ece8,Mężczyzna,20,2021-07-13_21h52.40.766,rantool2,2021.1.4,Win32,60.65016982,5fc50ebcfb5e8f0ba8c0ece8,60d9d14f4a8a35a482e0d9bf,60edeef335f36c5acbadd63c,f,1.2864,0,55,55,41,1,ROROORO,ROROORR,20.42602454,21.71443381,series_1
,,,,,,,,5fc50ebcfb5e8f0ba8c0ece8,Mężczyzna,20,2021-07-13_21h52.40.766,rantool2,2021.1.4,Win32,60.65016982,5fc50ebcfb5e8f0ba8c0ece8,60d9d14f4a8a35a482e0d9bf,60edeef335f36c5acbadd63c,j,1.1253,0,56,56,42,1,ROROROO,ROROROR,20.39515459,19.8361834,series_0
,,,,,,,,5fc50ebcfb5e8f0ba8c0ece8,Mężczyzna,20,2021-07-13_21h52.40.766,rantool2,2021.1.4,Win32,60.65016982,5fc50ebcfb5e8f0ba8c0ece8,60d9d14f4a8a35a482e0d9bf,60edeef335f36c5acbadd63c,j,1.222,0,57,57,62,1,RRRRROO,RRRRROR,22.16413392,21.27974287,series_0
,,,,,,,,5fc50ebcfb5e8f0ba8c0ece8,Mężczyzna,20,2021-07-13_21h52.40.766,rantool2,2021.1.4,Win32,60.65016982,5fc50ebcfb5e8f0ba8c0ece8,60d9d14f4a8a35a482e0d9bf,60edeef335f36c5acbadd63c,f,1.0786,0,58,58,46,1,RORRROO,RORRROR,22.00300695,21.24781509,series_0
,,,,,,,,5fc50ebcfb5e8f0ba8c0ece8,Mężczyzna,20,2021-07-13_21h52.40.766,rantool2,2021.1.4,Win32,60.65016982,5fc50ebcfb5e8f0ba8c0ece8,60d9d14f4a8a35a482e0d9bf,60edeef335f36c5acbadd63c,j,0.7772,0,59,59,17,1,OROOORO,OROOORR,21.03750787,22.12173012,series_1
,,,,,,,,5fc50ebcfb5e8f0ba8c0ece8,Mężczyzna,20,2021-07-13_21h52.40.766,rantool2,2021.1.4,Win32,60.65016982,5fc50ebcfb5e8f0ba8c0ece8,60d9d14f4a8a35a482e0d9bf,60edeef335f36c5acbadd63c,f,0.9507,0,60,60,33,1,ROOOORO,ROOOORR,20.83779602,22.03072203,series_1
,,,,,,,,5fc50ebcfb5e8f0ba8c0ece8,Mężczyzna,20,2021-07-13_21h52.40.766,rantool2,2021.1.4,Win32,60.65016982,5fc50ebcfb5e8f0ba8c0ece8,60d9d14f4a8a35a482e0d9bf,60edeef335f36c5acbadd63c,f,0.8772,0,61,61,9,1,OOROORO,OOROORR,21.07991943,22.2428857,series_1
,,,,,,,,5fc50ebcfb5e8f0ba8c0ece8,Mężczyzna,20,2021-07-13_21h52.40.766,rantool2,2021.1.4,Win32,60.65016982,5fc50ebcfb5e8f0ba8c0ece8,60d9d14f4a8a35a482e0d9bf,60edeef335f36c5acbadd63c,j,0.8344,0,62,62,38,1,ROORROO,ROORROR,21.79500819,21.36812781,series_0
,,,,,,,,5fc50ebcfb5e8f0ba8c0ece8,Mężczyzna,20,2021-07-13_21h52.40.766,rantool2,2021.1.4,Win32,60.65016982,5fc50ebcfb5e8f0ba8c0ece8,60d9d14f4a8a35a482e0d9bf,60edeef335f36c5acbadd63c,f,0.6351,0,63,63,13,1,OORRORO,OORRORR,21.66733484,22.11181017,series_1
