key_resp_7.keys,trials_2.thisRepN,trials_2.thisTrialN,trials_2.thisN,trials_2.thisIndex,trials_2.ran,id,series_0,series_1,acss_0,acss_1,comparison,id*,Płeć*,Wiek*,date,expName,psychopyVersion,OS,frameRate,STUDY_ID,SESSION_ID,key_resp_7.rt,key_resp_5.keys,key_resp_5.corr,key_resp_5.rt,trials.thisRepN,trials.thisTrialN,trials.thisN,trials.thisIndex,trials.ran
,0,0,0,57,1,5eebf73b9d0a1a3a4520d168,RRROORO,RRROORR,21.82425538,22.07102821,series_1,5eebf73b9d0a1a3a4520d168,Kobieta,29,2021-09-06_19h45.39.972,rantool2,2021.1.4,Win32,59.88023952,6135e006383e6ea6c3d06a28,613653a614de2ce740161c7d,,,,,,,,,
j,0,1,1,19,1,5eebf73b9d0a1a3a4520d168,OROORRO,OROORRR,21.73568164,22.11181017,series_1,5eebf73b9d0a1a3a4520d168,Kobieta,29,2021-09-06_19h45.39.972,rantool2,2021.1.4,Win32,59.88023952,6135e006383e6ea6c3d06a28,613653a614de2ce740161c7d,2.906,,,,,,,,
j,0,2,2,52,1,5eebf73b9d0a1a3a4520d168,RROROOO,RROROOR,22.18365867,22.11097995,series_0,5eebf73b9d0a1a3a4520d168,Kobieta,29,2021-09-06_19h45.39.972,rantool2,2021.1.4,Win32,59.88023952,6135e006383e6ea6c3d06a28,613653a614de2ce740161c7d,2.851,,,,,,,,
f,0,3,3,63,1,5eebf73b9d0a1a3a4520d168,RRRRRRO,RRRRRRR,21.35278725,19.62521613,series_0,5eebf73b9d0a1a3a4520d168,Kobieta,29,2021-09-06_19h45.39.972,rantool2,2021.1.4,Win32,59.88023952,6135e006383e6ea6c3d06a28,613653a614de2ce740161c7d,1.792,,,,,,,,
j,0,4,4,18,1,5eebf73b9d0a1a3a4520d168,OROOROO,OROOROR,20.84860893,21.22513037,series_1,5eebf73b9d0a1a3a4520d168,Kobieta,29,2021-09-06_19h45.39.972,rantool2,2021.1.4,Win32,59.88023952,6135e006383e6ea6c3d06a28,613653a614de2ce740161c7d,1.92,,,,,,,,
j,0,5,5,42,1,5eebf73b9d0a1a3a4520d168,ROROROO,ROROROR,20.39515459,19.8361834,series_0,5eebf73b9d0a1a3a4520d168,Kobieta,29,2021-09-06_19h45.39.972,rantool2,2021.1.4,Win32,59.88023952,6135e006383e6ea6c3d06a28,613653a614de2ce740161c7d,2.071,,,,,,,,
f,0,6,6,9,1,5eebf73b9d0a1a3a4520d168,OOROORO,OOROORR,21.07991943,22.2428857,series_1,5eebf73b9d0a1a3a4520d168,Kobieta,29,2021-09-06_19h45.39.972,rantool2,2021.1.4,Win32,59.88023952,6135e006383e6ea6c3d06a28,613653a614de2ce740161c7d,2.186,,,,,,,,
j,0,7,7,44,1,5eebf73b9d0a1a3a4520d168,RORROOO,RORROOR,21.66733484,22.02566557,series_1,5eebf73b9d0a1a3a4520d168,Kobieta,29,2021-09-06_19h45.39.972,rantool2,2021.1.4,Win32,59.88023952,6135e006383e6ea6c3d06a28,613653a614de2ce740161c7d,2.336,,,,,,,,
j,0,8,8,61,1,5eebf73b9d0a1a3a4520d168,RRRRORO,RRRRORR,21.81333602,21.17347734,series_0,5eebf73b9d0a1a3a4520d168,Kobieta,29,2021-09-06_19h45.39.972,rantool2,2021.1.4,Win32,59.88023952,6135e006383e6ea6c3d06a28,613653a614de2ce740161c7d,2.441,,,,,,,,
j,0,9,9,50,1,5eebf73b9d0a1a3a4520d168,RROOROO,RROOROR,21.73568164,22.02566557,series_1,5eebf73b9d0a1a3a4520d168,Kobieta,29,2021-09-06_19h45.39.972,rantool2,2021.1.4,Win32,59.88023952,6135e006383e6ea6c3d06a28,613653a614de2ce740161c7d,1.904,,,,,,,,
f,0,10,10,30,1,5eebf73b9d0a1a3a4520d168,ORRRROO,ORRRROR,22.46748491,22.03072203,series_0,5eebf73b9d0a1a3a4520d168,Kobieta,29,2021-09-06_19h45.39.972,rantool2,2021.1.4,Win32,59.88023952,6135e006383e6ea6c3d06a28,613653a614de2ce740161c7d,1.67,,,,,,,,
j,0,11,11,13,1,5eebf73b9d0a1a3a4520d168,OORRORO,OORRORR,21.66733484,22.11181017,series_1,5eebf73b9d0a1a3a4520d168,Kobieta,29,2021-09-06_19h45.39.972,rantool2,2021.1.4,Win32,59.88023952,6135e006383e6ea6c3d06a28,613653a614de2ce740161c7d,1.804,,,,,,,,
f,0,12,12,62,1,5eebf73b9d0a1a3a4520d168,RRRRROO,RRRRROR,22.16413392,21.27974287,series_0,5eebf73b9d0a1a3a4520d168,Kobieta,29,2021-09-06_19h45.39.972,rantool2,2021.1.4,Win32,59.88023952,6135e006383e6ea6c3d06a28,613653a614de2ce740161c7d,1.72,,,,,,,,
j,0,13,13,47,1,5eebf73b9d0a1a3a4520d168,RORRRRO,RORRRRR,21.81333602,21.02936224,series_0,5eebf73b9d0a1a3a4520d168,Kobieta,29,2021-09-06_19h45.39.972,rantool2,2021.1.4,Win32,59.88023952,6135e006383e6ea6c3d06a28,613653a614de2ce740161c7d,1.752,,,,,,,,
f,0,14,14,39,1,5eebf73b9d0a1a3a4520d168,ROORRRO,ROORRRR,21.82425538,21.38562617,series_0,5eebf73b9d0a1a3a4520d168,Kobieta,29,2021-09-06_19h45.39.972,rantool2,2021.1.4,Win32,59.88023952,6135e006383e6ea6c3d06a28,613653a614de2ce740161c7d,2.371,,,,,,,,
j,0,15,15,37,1,5eebf73b9d0a1a3a4520d168,ROORORO,ROORORR,20.42602454,21.57657071,series_1,5eebf73b9d0a1a3a4520d168,Kobieta,29,2021-09-06_19h45.39.972,rantool2,2021.1.4,Win32,59.88023952,6135e006383e6ea6c3d06a28,613653a614de2ce740161c7d,2.225,,,,,,,,
j,0,16,16,32,1,5eebf73b9d0a1a3a4520d168,ROOOOOO,ROOOOOR,19.92253567,21.27974287,series_1,5eebf73b9d0a1a3a4520d168,Kobieta,29,2021-09-06_19h45.39.972,rantool2,2021.1.4,Win32,59.88023952,6135e006383e6ea6c3d06a28,613653a614de2ce740161c7d,2.021,,,,,,,,
f,0,17,17,34,1,5eebf73b9d0a1a3a4520d168,ROOOROO,ROOOROR,21.03750787,21.24781509,series_1,5eebf73b9d0a1a3a4520d168,Kobieta,29,2021-09-06_19h45.39.972,rantool2,2021.1.4,Win32,59.88023952,6135e006383e6ea6c3d06a28,613653a614de2ce740161c7d,2.375,,,,,,,,
f,0,18,18,38,1,5eebf73b9d0a1a3a4520d168,ROORROO,ROORROR,21.79500819,21.36812781,series_0,5eebf73b9d0a1a3a4520d168,Kobieta,29,2021-09-06_19h45.39.972,rantool2,2021.1.4,Win32,59.88023952,6135e006383e6ea6c3d06a28,613653a614de2ce740161c7d,2.043,,,,,,,,
j,0,19,19,24,1,5eebf73b9d0a1a3a4520d168,ORROOOO,ORROOOR,21.12383932,22.07102821,series_1,5eebf73b9d0a1a3a4520d168,Kobieta,29,2021-09-06_19h45.39.972,rantool2,2021.1.4,Win32,59.88023952,6135e006383e6ea6c3d06a28,613653a614de2ce740161c7d,2.713,,,,,,,,
f,0,20,20,58,1,5eebf73b9d0a1a3a4520d168,RRROROO,RRROROR,22.1285618,21.37121559,series_0,5eebf73b9d0a1a3a4520d168,Kobieta,29,2021-09-06_19h45.39.972,rantool2,2021.1.4,Win32,59.88023952,6135e006383e6ea6c3d06a28,613653a614de2ce740161c7d,1.888,,,,,,,,
j,0,21,21,40,1,5eebf73b9d0a1a3a4520d168,ROROOOO,ROROOOR,20.87963819,21.37121559,series_1,5eebf73b9d0a1a3a4520d168,Kobieta,29,2021-09-06_19h45.39.972,rantool2,2021.1.4,Win32,59.88023952,6135e006383e6ea6c3d06a28,613653a614de2ce740161c7d,2.471,,,,,,,,
f,0,22,22,14,1,5eebf73b9d0a1a3a4520d168,OORRROO,OORRROR,22.24142883,22.16977179,series_0,5eebf73b9d0a1a3a4520d168,Kobieta,29,2021-09-06_19h45.39.972,rantool2,2021.1.4,Win32,59.88023952,6135e006383e6ea6c3d06a28,613653a614de2ce740161c7d,2.436,,,,,,,,
j,0,23,23,59,1,5eebf73b9d0a1a3a4520d168,RRRORRO,RRRORRR,21.56657303,20.89823192,series_0,5eebf73b9d0a1a3a4520d168,Kobieta,29,2021-09-06_19h45.39.972,rantool2,2021.1.4,Win32,59.88023952,6135e006383e6ea6c3d06a28,613653a614de2ce740161c7d,1.442,,,,,,,,
f,0,24,24,56,1,5eebf73b9d0a1a3a4520d168,RRROOOO,RRROOOR,21.6194508,22.31681875,series_1,5eebf73b9d0a1a3a4520d168,Kobieta,29,2021-09-06_19h45.39.972,rantool2,2021.1.4,Win32,59.88023952,6135e006383e6ea6c3d06a28,613653a614de2ce740161c7d,2.302,,,,,,,,
j,0,25,25,21,1,5eebf73b9d0a1a3a4520d168,ORORORO,ORORORR,20.39515459,22.06781359,series_1,5eebf73b9d0a1a3a4520d168,Kobieta,29,2021-09-06_19h45.39.972,rantool2,2021.1.4,Win32,59.88023952,6135e006383e6ea6c3d06a28,613653a614de2ce740161c7d,2.103,,,,,,,,
j,0,26,26,2,1,5eebf73b9d0a1a3a4520d168,OOOOROO,OOOOROR,20.43051175,21.02936224,series_1,5eebf73b9d0a1a3a4520d168,Kobieta,29,2021-09-06_19h45.39.972,rantool2,2021.1.4,Win32,59.88023952,6135e006383e6ea6c3d06a28,613653a614de2ce740161c7d,2.155,,,,,,,,
j,0,27,27,46,1,5eebf73b9d0a1a3a4520d168,RORRROO,RORRROR,22.00300695,21.24781509,series_0,5eebf73b9d0a1a3a4520d168,Kobieta,29,2021-09-06_19h45.39.972,rantool2,2021.1.4,Win32,59.88023952,6135e006383e6ea6c3d06a28,613653a614de2ce740161c7d,2.417,,,,,,,,
j,0,28,28,1,1,5eebf73b9d0a1a3a4520d168,OOOOORO,OOOOORR,19.92253567,20.74050628,series_1,5eebf73b9d0a1a3a4520d168,Kobieta,29,2021-09-06_19h45.39.972,rantool2,2021.1.4,Win32,59.88023952,6135e006383e6ea6c3d06a28,613653a614de2ce740161c7d,1.561,,,,,,,,
f,0,29,29,49,1,5eebf73b9d0a1a3a4520d168,RROOORO,RROOORR,21.76276513,22.53364006,series_1,5eebf73b9d0a1a3a4520d168,Kobieta,29,2021-09-06_19h45.39.972,rantool2,2021.1.4,Win32,59.88023952,6135e006383e6ea6c3d06a28,613653a614de2ce740161c7d,2.086,,,,,,,,
j,0,30,30,53,1,5eebf73b9d0a1a3a4520d168,RRORORO,RRORORR,20.71309134,21.90565814,series_1,5eebf73b9d0a1a3a4520d168,Kobieta,29,2021-09-06_19h45.39.972,rantool2,2021.1.4,Win32,59.88023952,6135e006383e6ea6c3d06a28,613653a614de2ce740161c7d,2.056,,,,,,,,
f,0,31,31,10,1,5eebf73b9d0a1a3a4520d168,OOROROO,OOROROR,21.31236711,21.07490964,series_0,5eebf73b9d0a1a3a4520d168,Kobieta,29,2021-09-06_19h45.39.972,rantool2,2021.1.4,Win32,59.88023952,6135e006383e6ea6c3d06a28,613653a614de2ce740161c7d,2.228,,,,,,,,
f,0,32,32,16,1,5eebf73b9d0a1a3a4520d168,OROOOOO,OROOOOR,20.43051175,21.17347734,series_1,5eebf73b9d0a1a3a4520d168,Kobieta,29,2021-09-06_19h45.39.972,rantool2,2021.1.4,Win32,59.88023952,6135e006383e6ea6c3d06a28,613653a614de2ce740161c7d,2.424,,,,,,,,
f,0,33,33,28,1,5eebf73b9d0a1a3a4520d168,ORRROOO,ORRROOR,22.24142883,22.53364006,series_1,5eebf73b9d0a1a3a4520d168,Kobieta,29,2021-09-06_19h45.39.972,rantool2,2021.1.4,Win32,59.88023952,6135e006383e6ea6c3d06a28,613653a614de2ce740161c7d,1.5,,,,,,,,
j,0,34,34,20,1,5eebf73b9d0a1a3a4520d168,OROROOO,OROROOR,21.31236711,21.90565814,series_1,5eebf73b9d0a1a3a4520d168,Kobieta,29,2021-09-06_19h45.39.972,rantool2,2021.1.4,Win32,59.88023952,6135e006383e6ea6c3d06a28,613653a614de2ce740161c7d,1.97,,,,,,,,
j,0,35,35,6,1,5eebf73b9d0a1a3a4520d168,OOORROO,OOORROR,21.12383932,21.38562617,series_1,5eebf73b9d0a1a3a4520d168,Kobieta,29,2021-09-06_19h45.39.972,rantool2,2021.1.4,Win32,59.88023952,6135e006383e6ea6c3d06a28,613653a614de2ce740161c7d,1.984,,,,,,,,
j,0,36,36,51,1,5eebf73b9d0a1a3a4520d168,RROORRO,RROORRR,21.89852628,22.02786418,series_1,5eebf73b9d0a1a3a4520d168,Kobieta,29,2021-09-06_19h45.39.972,rantool2,2021.1.4,Win32,59.88023952,6135e006383e6ea6c3d06a28,613653a614de2ce740161c7d,1.87,,,,,,,,
f,0,37,37,31,1,5eebf73b9d0a1a3a4520d168,ORRRRRO,ORRRRRR,22.16413392,20.74050628,series_0,5eebf73b9d0a1a3a4520d168,Kobieta,29,2021-09-06_19h45.39.972,rantool2,2021.1.4,Win32,59.88023952,6135e006383e6ea6c3d06a28,613653a614de2ce740161c7d,1.522,,,,,,,,
f,0,38,38,11,1,5eebf73b9d0a1a3a4520d168,OORORRO,OORORRR,22.18365867,22.6797523,series_1,5eebf73b9d0a1a3a4520d168,Kobieta,29,2021-09-06_19h45.39.972,rantool2,2021.1.4,Win32,59.88023952,6135e006383e6ea6c3d06a28,613653a614de2ce740161c7d,1.833,,,,,,,,
j,0,39,39,29,1,5eebf73b9d0a1a3a4520d168,ORRRORO,ORRRORR,22.00300695,22.12173012,series_1,5eebf73b9d0a1a3a4520d168,Kobieta,29,2021-09-06_19h45.39.972,rantool2,2021.1.4,Win32,59.88023952,6135e006383e6ea6c3d06a28,613653a614de2ce740161c7d,1.117,,,,,,,,
j,0,40,40,45,1,5eebf73b9d0a1a3a4520d168,RORRORO,RORRORR,20.78182524,21.22513037,series_1,5eebf73b9d0a1a3a4520d168,Kobieta,29,2021-09-06_19h45.39.972,rantool2,2021.1.4,Win32,59.88023952,6135e006383e6ea6c3d06a28,613653a614de2ce740161c7d,2.069,,,,,,,,
f,0,41,41,12,1,5eebf73b9d0a1a3a4520d168,OORROOO,OORROOR,21.30250474,22.02786418,series_1,5eebf73b9d0a1a3a4520d168,Kobieta,29,2021-09-06_19h45.39.972,rantool2,2021.1.4,Win32,59.88023952,6135e006383e6ea6c3d06a28,613653a614de2ce740161c7d,1.687,,,,,,,,
j,0,42,42,54,1,5eebf73b9d0a1a3a4520d168,RRORROO,RRORROR,21.55250791,20.9984461,series_0,5eebf73b9d0a1a3a4520d168,Kobieta,29,2021-09-06_19h45.39.972,rantool2,2021.1.4,Win32,59.88023952,6135e006383e6ea6c3d06a28,613653a614de2ce740161c7d,2.136,,,,,,,,
f,0,43,43,55,1,5eebf73b9d0a1a3a4520d168,RRORRRO,RRORRRR,21.56657303,21.21223021,series_0,5eebf73b9d0a1a3a4520d168,Kobieta,29,2021-09-06_19h45.39.972,rantool2,2021.1.4,Win32,59.88023952,6135e006383e6ea6c3d06a28,613653a614de2ce740161c7d,2.185,,,,,,,,
j,0,44,44,41,1,5eebf73b9d0a1a3a4520d168,ROROORO,ROROORR,20.42602454,21.71443381,series_1,5eebf73b9d0a1a3a4520d168,Kobieta,29,2021-09-06_19h45.39.972,rantool2,2021.1.4,Win32,59.88023952,6135e006383e6ea6c3d06a28,613653a614de2ce740161c7d,1.467,,,,,,,,
f,0,45,45,35,1,5eebf73b9d0a1a3a4520d168,ROOORRO,ROOORRR,21.76276513,22.16977179,series_1,5eebf73b9d0a1a3a4520d168,Kobieta,29,2021-09-06_19h45.39.972,rantool2,2021.1.4,Win32,59.88023952,6135e006383e6ea6c3d06a28,613653a614de2ce740161c7d,2.068,,,,,,,,
j,0,46,46,7,1,5eebf73b9d0a1a3a4520d168,OOORRRO,OOORRRR,21.6194508,21.899017,series_1,5eebf73b9d0a1a3a4520d168,Kobieta,29,2021-09-06_19h45.39.972,rantool2,2021.1.4,Win32,59.88023952,6135e006383e6ea6c3d06a28,613653a614de2ce740161c7d,2.755,,,,,,,,
f,0,47,47,15,1,5eebf73b9d0a1a3a4520d168,OORRRRO,OORRRRR,22.10108823,21.74922619,series_0,5eebf73b9d0a1a3a4520d168,Kobieta,29,2021-09-06_19h45.39.972,rantool2,2021.1.4,Win32,59.88023952,6135e006383e6ea6c3d06a28,613653a614de2ce740161c7d,1.91,,,,,,,,
f,0,48,48,43,1,5eebf73b9d0a1a3a4520d168,RORORRO,RORORRR,20.71309134,21.07490964,series_1,5eebf73b9d0a1a3a4520d168,Kobieta,29,2021-09-06_19h45.39.972,rantool2,2021.1.4,Win32,59.88023952,6135e006383e6ea6c3d06a28,613653a614de2ce740161c7d,2.027,,,,,,,,
f,0,49,49,48,1,5eebf73b9d0a1a3a4520d168,RROOOOO,RROOOOR,20.90986523,22.15934078,series_1,5eebf73b9d0a1a3a4520d168,Kobieta,29,2021-09-06_19h45.39.972,rantool2,2021.1.4,Win32,59.88023952,6135e006383e6ea6c3d06a28,613653a614de2ce740161c7d,2.305,,,,,,,,
j,0,50,50,5,1,5eebf73b9d0a1a3a4520d168,OOORORO,OOORORR,20.87963819,21.9921709,series_1,5eebf73b9d0a1a3a4520d168,Kobieta,29,2021-09-06_19h45.39.972,rantool2,2021.1.4,Win32,59.88023952,6135e006383e6ea6c3d06a28,613653a614de2ce740161c7d,2.219,,,,,,,,
j,0,51,51,36,1,5eebf73b9d0a1a3a4520d168,ROOROOO,ROOROOR,21.07991943,20.9984461,series_0,5eebf73b9d0a1a3a4520d168,Kobieta,29,2021-09-06_19h45.39.972,rantool2,2021.1.4,Win32,59.88023952,6135e006383e6ea6c3d06a28,613653a614de2ce740161c7d,1.969,,,,,,,,
f,0,52,52,60,1,5eebf73b9d0a1a3a4520d168,RRRROOO,RRRROOR,22.10108823,22.15934078,series_1,5eebf73b9d0a1a3a4520d168,Kobieta,29,2021-09-06_19h45.39.972,rantool2,2021.1.4,Win32,59.88023952,6135e006383e6ea6c3d06a28,613653a614de2ce740161c7d,1.8,,,,,,,,
f,0,53,53,26,1,5eebf73b9d0a1a3a4520d168,ORROROO,ORROROR,22.02732763,21.71443381,series_0,5eebf73b9d0a1a3a4520d168,Kobieta,29,2021-09-06_19h45.39.972,rantool2,2021.1.4,Win32,59.88023952,6135e006383e6ea6c3d06a28,613653a614de2ce740161c7d,1.954,,,,,,,,
j,0,54,54,3,1,5eebf73b9d0a1a3a4520d168,OOOORRO,OOOORRR,20.90986523,21.74922619,series_1,5eebf73b9d0a1a3a4520d168,Kobieta,29,2021-09-06_19h45.39.972,rantool2,2021.1.4,Win32,59.88023952,6135e006383e6ea6c3d06a28,613653a614de2ce740161c7d,2.052,,,,,,,,
j,0,55,55,8,1,5eebf73b9d0a1a3a4520d168,OOROOOO,OOROOOR,19.91402015,20.89823192,series_1,5eebf73b9d0a1a3a4520d168,Kobieta,29,2021-09-06_19h45.39.972,rantool2,2021.1.4,Win32,59.88023952,6135e006383e6ea6c3d06a28,613653a614de2ce740161c7d,1.843,,,,,,,,
f,0,56,56,22,1,5eebf73b9d0a1a3a4520d168,ORORROO,ORORROR,22.02732763,21.57657071,series_0,5eebf73b9d0a1a3a4520d168,Kobieta,29,2021-09-06_19h45.39.972,rantool2,2021.1.4,Win32,59.88023952,6135e006383e6ea6c3d06a28,613653a614de2ce740161c7d,2.371,,,,,,,,
f,0,57,57,4,1,5eebf73b9d0a1a3a4520d168,OOOROOO,OOOROOR,19.91402015,21.21223021,series_1,5eebf73b9d0a1a3a4520d168,Kobieta,29,2021-09-06_19h45.39.972,rantool2,2021.1.4,Win32,59.88023952,6135e006383e6ea6c3d06a28,613653a614de2ce740161c7d,2.11,,,,,,,,
j,0,58,58,33,1,5eebf73b9d0a1a3a4520d168,ROOOORO,ROOOORR,20.83779602,22.03072203,series_1,5eebf73b9d0a1a3a4520d168,Kobieta,29,2021-09-06_19h45.39.972,rantool2,2021.1.4,Win32,59.88023952,6135e006383e6ea6c3d06a28,613653a614de2ce740161c7d,1.811,,,,,,,,
f,0,59,59,17,1,5eebf73b9d0a1a3a4520d168,OROOORO,OROOORR,21.03750787,22.12173012,series_1,5eebf73b9d0a1a3a4520d168,Kobieta,29,2021-09-06_19h45.39.972,rantool2,2021.1.4,Win32,59.88023952,6135e006383e6ea6c3d06a28,613653a614de2ce740161c7d,1.839,,,,,,,,
j,0,60,60,25,1,5eebf73b9d0a1a3a4520d168,ORROORO,ORROORR,21.79500819,22.61624387,series_1,5eebf73b9d0a1a3a4520d168,Kobieta,29,2021-09-06_19h45.39.972,rantool2,2021.1.4,Win32,59.88023952,6135e006383e6ea6c3d06a28,613653a614de2ce740161c7d,1.504,,,,,,,,
f,0,61,61,23,1,5eebf73b9d0a1a3a4520d168,ORORRRO,ORORRRR,22.1285618,21.9921709,series_0,5eebf73b9d0a1a3a4520d168,Kobieta,29,2021-09-06_19h45.39.972,rantool2,2021.1.4,Win32,59.88023952,6135e006383e6ea6c3d06a28,613653a614de2ce740161c7d,1.968,,,,,,,,
j,0,62,62,27,1,5eebf73b9d0a1a3a4520d168,ORRORRO,ORRORRR,21.55250791,22.2428857,series_1,5eebf73b9d0a1a3a4520d168,Kobieta,29,2021-09-06_19h45.39.972,rantool2,2021.1.4,Win32,59.88023952,6135e006383e6ea6c3d06a28,613653a614de2ce740161c7d,1.819,,,,,,,,
f,0,63,63,0,1,5eebf73b9d0a1a3a4520d168,OOOOOOO,OOOOOOR,18.52739004,19.62521613,series_1,5eebf73b9d0a1a3a4520d168,Kobieta,29,2021-09-06_19h45.39.972,rantool2,2021.1.4,Win32,59.88023952,6135e006383e6ea6c3d06a28,613653a614de2ce740161c7d,1.32,,,,,,,,
,,,,,,5eebf73b9d0a1a3a4520d168,,,,,,5eebf73b9d0a1a3a4520d168,Kobieta,29,2021-09-06_19h45.39.972,rantool2,2021.1.4,Win32,59.88023952,6135e006383e6ea6c3d06a28,613653a614de2ce740161c7d,,"[""comma""]",0,[1.1690000000000111],0,0,0,0,1
,,,,,,5eebf73b9d0a1a3a4520d168,,,,,,5eebf73b9d0a1a3a4520d168,Kobieta,29,2021-09-06_19h45.39.972,rantool2,2021.1.4,Win32,59.88023952,6135e006383e6ea6c3d06a28,613653a614de2ce740161c7d,,"[""period""]",0,[0.8850000000000193],1,0,1,0,1
,,,,,,5eebf73b9d0a1a3a4520d168,,,,,,5eebf73b9d0a1a3a4520d168,Kobieta,29,2021-09-06_19h45.39.972,rantool2,2021.1.4,Win32,59.88023952,6135e006383e6ea6c3d06a28,613653a614de2ce740161c7d,,"[""comma""]",0,[0.3930000000000007],2,0,2,0,1
,,,,,,5eebf73b9d0a1a3a4520d168,,,,,,5eebf73b9d0a1a3a4520d168,Kobieta,29,2021-09-06_19h45.39.972,rantool2,2021.1.4,Win32,59.88023952,6135e006383e6ea6c3d06a28,613653a614de2ce740161c7d,,"[""period""]",0,[0.2680000000000007],3,0,3,0,1
,,,,,,5eebf73b9d0a1a3a4520d168,,,,,,5eebf73b9d0a1a3a4520d168,Kobieta,29,2021-09-06_19h45.39.972,rantool2,2021.1.4,Win32,59.88023952,6135e006383e6ea6c3d06a28,613653a614de2ce740161c7d,,"[""comma""]",0,[0.09200000000001296],4,0,4,0,1
,,,,,,5eebf73b9d0a1a3a4520d168,,,,,,5eebf73b9d0a1a3a4520d168,Kobieta,29,2021-09-06_19h45.39.972,rantool2,2021.1.4,Win32,59.88023952,6135e006383e6ea6c3d06a28,613653a614de2ce740161c7d,,"[""period""]",0,[0.2680000000000007],5,0,5,0,1
,,,,,,5eebf73b9d0a1a3a4520d168,,,,,,5eebf73b9d0a1a3a4520d168,Kobieta,29,2021-09-06_19h45.39.972,rantool2,2021.1.4,Win32,59.88023952,6135e006383e6ea6c3d06a28,613653a614de2ce740161c7d,,"[""comma""]",0,[0.008000000000009777],6,0,6,0,1
,,,,,,5eebf73b9d0a1a3a4520d168,,,,,,5eebf73b9d0a1a3a4520d168,Kobieta,29,2021-09-06_19h45.39.972,rantool2,2021.1.4,Win32,59.88023952,6135e006383e6ea6c3d06a28,613653a614de2ce740161c7d,,"[""period""]",0,[0.33600000000001273],7,0,7,0,1
,,,,,,5eebf73b9d0a1a3a4520d168,,,,,,5eebf73b9d0a1a3a4520d168,Kobieta,29,2021-09-06_19h45.39.972,rantool2,2021.1.4,Win32,59.88023952,6135e006383e6ea6c3d06a28,613653a614de2ce740161c7d,,"[""comma""]",0,[0.3020000000000209],8,0,8,0,1
,,,,,,5eebf73b9d0a1a3a4520d168,,,,,,5eebf73b9d0a1a3a4520d168,Kobieta,29,2021-09-06_19h45.39.972,rantool2,2021.1.4,Win32,59.88023952,6135e006383e6ea6c3d06a28,613653a614de2ce740161c7d,,"[""period""]",0,[0.3199999999999932],9,0,9,0,1
,,,,,,5eebf73b9d0a1a3a4520d168,,,,,,5eebf73b9d0a1a3a4520d168,Kobieta,29,2021-09-06_19h45.39.972,rantool2,2021.1.4,Win32,59.88023952,6135e006383e6ea6c3d06a28,613653a614de2ce740161c7d,,"[""comma""]",0,[0.30299999999999727],10,0,10,0,1
,,,,,,5eebf73b9d0a1a3a4520d168,,,,,,5eebf73b9d0a1a3a4520d168,Kobieta,29,2021-09-06_19h45.39.972,rantool2,2021.1.4,Win32,59.88023952,6135e006383e6ea6c3d06a28,613653a614de2ce740161c7d,,"[""period""]",0,[0.375],11,0,11,0,1
,,,,,,5eebf73b9d0a1a3a4520d168,,,,,,5eebf73b9d0a1a3a4520d168,Kobieta,29,2021-09-06_19h45.39.972,rantool2,2021.1.4,Win32,59.88023952,6135e006383e6ea6c3d06a28,613653a614de2ce740161c7d,,"[""comma""]",0,[0.35000000000002274],12,0,12,0,1
,,,,,,5eebf73b9d0a1a3a4520d168,,,,,,5eebf73b9d0a1a3a4520d168,Kobieta,29,2021-09-06_19h45.39.972,rantool2,2021.1.4,Win32,59.88023952,6135e006383e6ea6c3d06a28,613653a614de2ce740161c7d,,"[""period""]",0,[0.3089999999999975],13,0,13,0,1
,,,,,,5eebf73b9d0a1a3a4520d168,,,,,,5eebf73b9d0a1a3a4520d168,Kobieta,29,2021-09-06_19h45.39.972,rantool2,2021.1.4,Win32,59.88023952,6135e006383e6ea6c3d06a28,613653a614de2ce740161c7d,,"[""comma""]",0,[0.4579999999999984],14,0,14,0,1
,,,,,,5eebf73b9d0a1a3a4520d168,,,,,,5eebf73b9d0a1a3a4520d168,Kobieta,29,2021-09-06_19h45.39.972,rantool2,2021.1.4,Win32,59.88023952,6135e006383e6ea6c3d06a28,613653a614de2ce740161c7d,,"[""period""]",0,[0.3690000000000282],15,0,15,0,1
,,,,,,5eebf73b9d0a1a3a4520d168,,,,,,5eebf73b9d0a1a3a4520d168,Kobieta,29,2021-09-06_19h45.39.972,rantool2,2021.1.4,Win32,59.88023952,6135e006383e6ea6c3d06a28,613653a614de2ce740161c7d,,"[""comma""]",0,[0.3499999999999659],16,0,16,0,1
,,,,,,5eebf73b9d0a1a3a4520d168,,,,,,5eebf73b9d0a1a3a4520d168,Kobieta,29,2021-09-06_19h45.39.972,rantool2,2021.1.4,Win32,59.88023952,6135e006383e6ea6c3d06a28,613653a614de2ce740161c7d,,"[""period""]",0,[0.28400000000004866],17,0,17,0,1
,,,,,,5eebf73b9d0a1a3a4520d168,,,,,,5eebf73b9d0a1a3a4520d168,Kobieta,29,2021-09-06_19h45.39.972,rantool2,2021.1.4,Win32,59.88023952,6135e006383e6ea6c3d06a28,613653a614de2ce740161c7d,,"[""comma""]",0,[0.3350000000000364],18,0,18,0,1
,,,,,,5eebf73b9d0a1a3a4520d168,,,,,,5eebf73b9d0a1a3a4520d168,Kobieta,29,2021-09-06_19h45.39.972,rantool2,2021.1.4,Win32,59.88023952,6135e006383e6ea6c3d06a28,613653a614de2ce740161c7d,,"[""period""]",0,[0.4200000000000159],19,0,19,0,1
,,,,,,5eebf73b9d0a1a3a4520d168,,,,,,5eebf73b9d0a1a3a4520d168,Kobieta,29,2021-09-06_19h45.39.972,rantool2,2021.1.4,Win32,59.88023952,6135e006383e6ea6c3d06a28,613653a614de2ce740161c7d,,"[""comma""]",0,[0.33600000000001273],20,0,20,0,1
,,,,,,5eebf73b9d0a1a3a4520d168,,,,,,5eebf73b9d0a1a3a4520d168,Kobieta,29,2021-09-06_19h45.39.972,rantool2,2021.1.4,Win32,59.88023952,6135e006383e6ea6c3d06a28,613653a614de2ce740161c7d,,"[""period""]",0,[0.3520000000000323],21,0,21,0,1
,,,,,,5eebf73b9d0a1a3a4520d168,,,,,,5eebf73b9d0a1a3a4520d168,Kobieta,29,2021-09-06_19h45.39.972,rantool2,2021.1.4,Win32,59.88023952,6135e006383e6ea6c3d06a28,613653a614de2ce740161c7d,,"[""comma""]",0,[0.6860000000000355],22,0,22,0,1
,,,,,,5eebf73b9d0a1a3a4520d168,,,,,,5eebf73b9d0a1a3a4520d168,Kobieta,29,2021-09-06_19h45.39.972,rantool2,2021.1.4,Win32,59.88023952,6135e006383e6ea6c3d06a28,613653a614de2ce740161c7d,,"[""period""]",0,[0.5370000000000346],23,0,23,0,1
,,,,,,5eebf73b9d0a1a3a4520d168,,,,,,5eebf73b9d0a1a3a4520d168,Kobieta,29,2021-09-06_19h45.39.972,rantool2,2021.1.4,Win32,59.88023952,6135e006383e6ea6c3d06a28,613653a614de2ce740161c7d,,"[""comma""]",0,[0.5509999999999877],24,0,24,0,1
,,,,,,5eebf73b9d0a1a3a4520d168,,,,,,5eebf73b9d0a1a3a4520d168,Kobieta,29,2021-09-06_19h45.39.972,rantool2,2021.1.4,Win32,59.88023952,6135e006383e6ea6c3d06a28,613653a614de2ce740161c7d,,"[""period""]",0,[0.5089999999999577],25,0,25,0,1
,,,,,,5eebf73b9d0a1a3a4520d168,,,,,,5eebf73b9d0a1a3a4520d168,Kobieta,29,2021-09-06_19h45.39.972,rantool2,2021.1.4,Win32,59.88023952,6135e006383e6ea6c3d06a28,613653a614de2ce740161c7d,,"[""comma""]",0,[0.35199999999997544],26,0,26,0,1
,,,,,,5eebf73b9d0a1a3a4520d168,,,,,,5eebf73b9d0a1a3a4520d168,Kobieta,29,2021-09-06_19h45.39.972,rantool2,2021.1.4,Win32,59.88023952,6135e006383e6ea6c3d06a28,613653a614de2ce740161c7d,,"[""period""]",0,[0.35300000000000864],27,0,27,0,1
,,,,,,5eebf73b9d0a1a3a4520d168,,,,,,5eebf73b9d0a1a3a4520d168,Kobieta,29,2021-09-06_19h45.39.972,rantool2,2021.1.4,Win32,59.88023952,6135e006383e6ea6c3d06a28,613653a614de2ce740161c7d,,"[""comma""]",0,[0.26799999999997226],28,0,28,0,1
,,,,,,5eebf73b9d0a1a3a4520d168,,,,,,5eebf73b9d0a1a3a4520d168,Kobieta,29,2021-09-06_19h45.39.972,rantool2,2021.1.4,Win32,59.88023952,6135e006383e6ea6c3d06a28,613653a614de2ce740161c7d,,"[""period""]",0,[0.3569999999999709],29,0,29,0,1
,,,,,,5eebf73b9d0a1a3a4520d168,,,,,,5eebf73b9d0a1a3a4520d168,Kobieta,29,2021-09-06_19h45.39.972,rantool2,2021.1.4,Win32,59.88023952,6135e006383e6ea6c3d06a28,613653a614de2ce740161c7d,,"[""comma""]",0,[0.3009999999999877],30,0,30,0,1
,,,,,,5eebf73b9d0a1a3a4520d168,,,,,,5eebf73b9d0a1a3a4520d168,Kobieta,29,2021-09-06_19h45.39.972,rantool2,2021.1.4,Win32,59.88023952,6135e006383e6ea6c3d06a28,613653a614de2ce740161c7d,,"[""period""]",0,[0.31799999999998363],31,0,31,0,1
,,,,,,5eebf73b9d0a1a3a4520d168,,,,,,5eebf73b9d0a1a3a4520d168,Kobieta,29,2021-09-06_19h45.39.972,rantool2,2021.1.4,Win32,59.88023952,6135e006383e6ea6c3d06a28,613653a614de2ce740161c7d,,"[""comma""]",0,[0.25],32,0,32,0,1
,,,,,,5eebf73b9d0a1a3a4520d168,,,,,,5eebf73b9d0a1a3a4520d168,Kobieta,29,2021-09-06_19h45.39.972,rantool2,2021.1.4,Win32,59.88023952,6135e006383e6ea6c3d06a28,613653a614de2ce740161c7d,,"[""period""]",0,[0.353999999999985],33,0,33,0,1
,,,,,,5eebf73b9d0a1a3a4520d168,,,,,,5eebf73b9d0a1a3a4520d168,Kobieta,29,2021-09-06_19h45.39.972,rantool2,2021.1.4,Win32,59.88023952,6135e006383e6ea6c3d06a28,613653a614de2ce740161c7d,,"[""comma""]",0,[0.3180000000000405],34,0,34,0,1
,,,,,,5eebf73b9d0a1a3a4520d168,,,,,,5eebf73b9d0a1a3a4520d168,Kobieta,29,2021-09-06_19h45.39.972,rantool2,2021.1.4,Win32,59.88023952,6135e006383e6ea6c3d06a28,613653a614de2ce740161c7d,,"[""period""]",0,[0.3229999999999791],35,0,35,0,1
,,,,,,5eebf73b9d0a1a3a4520d168,,,,,,5eebf73b9d0a1a3a4520d168,Kobieta,29,2021-09-06_19h45.39.972,rantool2,2021.1.4,Win32,59.88023952,6135e006383e6ea6c3d06a28,613653a614de2ce740161c7d,,"[""comma""]",0,[0.12000000000000455],36,0,36,0,1
,,,,,,5eebf73b9d0a1a3a4520d168,,,,,,5eebf73b9d0a1a3a4520d168,Kobieta,29,2021-09-06_19h45.39.972,rantool2,2021.1.4,Win32,59.88023952,6135e006383e6ea6c3d06a28,613653a614de2ce740161c7d,,"[""period""]",0,[0.28499999999996817],37,0,37,0,1
,,,,,,5eebf73b9d0a1a3a4520d168,,,,,,5eebf73b9d0a1a3a4520d168,Kobieta,29,2021-09-06_19h45.39.972,rantool2,2021.1.4,Win32,59.88023952,6135e006383e6ea6c3d06a28,613653a614de2ce740161c7d,,"[""comma""]",0,[0.2729999999999677],38,0,38,0,1
,,,,,,5eebf73b9d0a1a3a4520d168,,,,,,5eebf73b9d0a1a3a4520d168,Kobieta,29,2021-09-06_19h45.39.972,rantool2,2021.1.4,Win32,59.88023952,6135e006383e6ea6c3d06a28,613653a614de2ce740161c7d,,"[""period""]",0,[0.3020000000000209],39,0,39,0,1
,,,,,,5eebf73b9d0a1a3a4520d168,,,,,,5eebf73b9d0a1a3a4520d168,Kobieta,29,2021-09-06_19h45.39.972,rantool2,2021.1.4,Win32,59.88023952,6135e006383e6ea6c3d06a28,613653a614de2ce740161c7d,,"[""comma""]",0,[0.25200000000000955],40,0,40,0,1
,,,,,,5eebf73b9d0a1a3a4520d168,,,,,,5eebf73b9d0a1a3a4520d168,Kobieta,29,2021-09-06_19h45.39.972,rantool2,2021.1.4,Win32,59.88023952,6135e006383e6ea6c3d06a28,613653a614de2ce740161c7d,,"[""period""]",0,[0.2669999999999959],41,0,41,0,1
,,,,,,5eebf73b9d0a1a3a4520d168,,,,,,5eebf73b9d0a1a3a4520d168,Kobieta,29,2021-09-06_19h45.39.972,rantool2,2021.1.4,Win32,59.88023952,6135e006383e6ea6c3d06a28,613653a614de2ce740161c7d,,"[""comma""]",0,[0.2529999999999859],42,0,42,0,1
,,,,,,5eebf73b9d0a1a3a4520d168,,,,,,5eebf73b9d0a1a3a4520d168,Kobieta,29,2021-09-06_19h45.39.972,rantool2,2021.1.4,Win32,59.88023952,6135e006383e6ea6c3d06a28,613653a614de2ce740161c7d,,"[""period""]",0,[0.3240000000000123],43,0,43,0,1
,,,,,,5eebf73b9d0a1a3a4520d168,,,,,,5eebf73b9d0a1a3a4520d168,Kobieta,29,2021-09-06_19h45.39.972,rantool2,2021.1.4,Win32,59.88023952,6135e006383e6ea6c3d06a28,613653a614de2ce740161c7d,,"[""comma""]",0,[0.27300000000002456],44,0,44,0,1
,,,,,,5eebf73b9d0a1a3a4520d168,,,,,,5eebf73b9d0a1a3a4520d168,Kobieta,29,2021-09-06_19h45.39.972,rantool2,2021.1.4,Win32,59.88023952,6135e006383e6ea6c3d06a28,613653a614de2ce740161c7d,,"[""period""]",0,[0.2529999999999859],45,0,45,0,1
,,,,,,5eebf73b9d0a1a3a4520d168,,,,,,5eebf73b9d0a1a3a4520d168,Kobieta,29,2021-09-06_19h45.39.972,rantool2,2021.1.4,Win32,59.88023952,6135e006383e6ea6c3d06a28,613653a614de2ce740161c7d,,"[""comma""]",0,[0.2189999999999941],46,0,46,0,1
,,,,,,5eebf73b9d0a1a3a4520d168,,,,,,5eebf73b9d0a1a3a4520d168,Kobieta,29,2021-09-06_19h45.39.972,rantool2,2021.1.4,Win32,59.88023952,6135e006383e6ea6c3d06a28,613653a614de2ce740161c7d,,"[""period""]",0,[0.35000000000002274],47,0,47,0,1
,,,,,,5eebf73b9d0a1a3a4520d168,,,,,,5eebf73b9d0a1a3a4520d168,Kobieta,29,2021-09-06_19h45.39.972,rantool2,2021.1.4,Win32,59.88023952,6135e006383e6ea6c3d06a28,613653a614de2ce740161c7d,,"[""comma""]",0,[0.27600000000001046],48,0,48,0,1
,,,,,,5eebf73b9d0a1a3a4520d168,,,,,,5eebf73b9d0a1a3a4520d168,Kobieta,29,2021-09-06_19h45.39.972,rantool2,2021.1.4,Win32,59.88023952,6135e006383e6ea6c3d06a28,613653a614de2ce740161c7d,,"[""period""]",0,[0.3709999999999809],49,0,49,0,1
,,,,,,5eebf73b9d0a1a3a4520d168,,,,,,5eebf73b9d0a1a3a4520d168,Kobieta,29,2021-09-06_19h45.39.972,rantool2,2021.1.4,Win32,59.88023952,6135e006383e6ea6c3d06a28,613653a614de2ce740161c7d,,"[""comma""]",0,[0.3410000000000082],50,0,50,0,1
,,,,,,5eebf73b9d0a1a3a4520d168,,,,,,5eebf73b9d0a1a3a4520d168,Kobieta,29,2021-09-06_19h45.39.972,rantool2,2021.1.4,Win32,59.88023952,6135e006383e6ea6c3d06a28,613653a614de2ce740161c7d,,"[""period""]",0,[0.3760000000000332],51,0,51,0,1
,,,,,,5eebf73b9d0a1a3a4520d168,,,,,,5eebf73b9d0a1a3a4520d168,Kobieta,29,2021-09-06_19h45.39.972,rantool2,2021.1.4,Win32,59.88023952,6135e006383e6ea6c3d06a28,613653a614de2ce740161c7d,,"[""comma""]",0,[0.37599999999997635],52,0,52,0,1
,,,,,,5eebf73b9d0a1a3a4520d168,,,,,,5eebf73b9d0a1a3a4520d168,Kobieta,29,2021-09-06_19h45.39.972,rantool2,2021.1.4,Win32,59.88023952,6135e006383e6ea6c3d06a28,613653a614de2ce740161c7d,,"[""period""]",0,[0.38400000000001455],53,0,53,0,1
,,,,,,5eebf73b9d0a1a3a4520d168,,,,,,5eebf73b9d0a1a3a4520d168,Kobieta,29,2021-09-06_19h45.39.972,rantool2,2021.1.4,Win32,59.88023952,6135e006383e6ea6c3d06a28,613653a614de2ce740161c7d,,"[""comma""]",0,[0.3340000000000032],54,0,54,0,1
,,,,,,5eebf73b9d0a1a3a4520d168,,,,,,5eebf73b9d0a1a3a4520d168,Kobieta,29,2021-09-06_19h45.39.972,rantool2,2021.1.4,Win32,59.88023952,6135e006383e6ea6c3d06a28,613653a614de2ce740161c7d,,"[""period""]",0,[0.3560000000000514],55,0,55,0,1
,,,,,,5eebf73b9d0a1a3a4520d168,,,,,,5eebf73b9d0a1a3a4520d168,Kobieta,29,2021-09-06_19h45.39.972,rantool2,2021.1.4,Win32,59.88023952,6135e006383e6ea6c3d06a28,613653a614de2ce740161c7d,,"[""comma""]",0,[0.2740000000000009],56,0,56,0,1
,,,,,,5eebf73b9d0a1a3a4520d168,,,,,,5eebf73b9d0a1a3a4520d168,Kobieta,29,2021-09-06_19h45.39.972,rantool2,2021.1.4,Win32,59.88023952,6135e006383e6ea6c3d06a28,613653a614de2ce740161c7d,,"[""period""]",0,[0.3229999999999791],57,0,57,0,1
,,,,,,5eebf73b9d0a1a3a4520d168,,,,,,5eebf73b9d0a1a3a4520d168,Kobieta,29,2021-09-06_19h45.39.972,rantool2,2021.1.4,Win32,59.88023952,6135e006383e6ea6c3d06a28,613653a614de2ce740161c7d,,"[""comma""]",0,[0.27499999999997726],58,0,58,0,1
,,,,,,5eebf73b9d0a1a3a4520d168,,,,,,5eebf73b9d0a1a3a4520d168,Kobieta,29,2021-09-06_19h45.39.972,rantool2,2021.1.4,Win32,59.88023952,6135e006383e6ea6c3d06a28,613653a614de2ce740161c7d,,"[""period""]",0,[0.3369999999999891],59,0,59,0,1
,,,,,,5eebf73b9d0a1a3a4520d168,,,,,,5eebf73b9d0a1a3a4520d168,Kobieta,29,2021-09-06_19h45.39.972,rantool2,2021.1.4,Win32,59.88023952,6135e006383e6ea6c3d06a28,613653a614de2ce740161c7d,,"[""comma""]",0,[0.2440000000000282],60,0,60,0,1
,,,,,,5eebf73b9d0a1a3a4520d168,,,,,,5eebf73b9d0a1a3a4520d168,Kobieta,29,2021-09-06_19h45.39.972,rantool2,2021.1.4,Win32,59.88023952,6135e006383e6ea6c3d06a28,613653a614de2ce740161c7d,,"[""period""]",0,[0.33300000000002683],61,0,61,0,1
,,,,,,5eebf73b9d0a1a3a4520d168,,,,,,5eebf73b9d0a1a3a4520d168,Kobieta,29,2021-09-06_19h45.39.972,rantool2,2021.1.4,Win32,59.88023952,6135e006383e6ea6c3d06a28,613653a614de2ce740161c7d,,"[""comma""]",0,[0.25399999999996226],62,0,62,0,1
,,,,,,5eebf73b9d0a1a3a4520d168,,,,,,5eebf73b9d0a1a3a4520d168,Kobieta,29,2021-09-06_19h45.39.972,rantool2,2021.1.4,Win32,59.88023952,6135e006383e6ea6c3d06a28,613653a614de2ce740161c7d,,"[""period""]",0,[0.3050000000000068],63,0,63,0,1
,,,,,,5eebf73b9d0a1a3a4520d168,,,,,,5eebf73b9d0a1a3a4520d168,Kobieta,29,2021-09-06_19h45.39.972,rantool2,2021.1.4,Win32,59.88023952,6135e006383e6ea6c3d06a28,613653a614de2ce740161c7d,,"[""comma""]",0,[0.285000000000025],64,0,64,0,1
,,,,,,5eebf73b9d0a1a3a4520d168,,,,,,5eebf73b9d0a1a3a4520d168,Kobieta,29,2021-09-06_19h45.39.972,rantool2,2021.1.4,Win32,59.88023952,6135e006383e6ea6c3d06a28,613653a614de2ce740161c7d,,"[""period""]",0,[0.26900000000000546],65,0,65,0,1
,,,,,,5eebf73b9d0a1a3a4520d168,,,,,,5eebf73b9d0a1a3a4520d168,Kobieta,29,2021-09-06_19h45.39.972,rantool2,2021.1.4,Win32,59.88023952,6135e006383e6ea6c3d06a28,613653a614de2ce740161c7d,,"[""comma""]",0,[0.27099999999995816],66,0,66,0,1
,,,,,,5eebf73b9d0a1a3a4520d168,,,,,,5eebf73b9d0a1a3a4520d168,Kobieta,29,2021-09-06_19h45.39.972,rantool2,2021.1.4,Win32,59.88023952,6135e006383e6ea6c3d06a28,613653a614de2ce740161c7d,,"[""period""]",0,[0.31799999999998363],67,0,67,0,1
,,,,,,5eebf73b9d0a1a3a4520d168,,,,,,5eebf73b9d0a1a3a4520d168,Kobieta,29,2021-09-06_19h45.39.972,rantool2,2021.1.4,Win32,59.88023952,6135e006383e6ea6c3d06a28,613653a614de2ce740161c7d,,"[""comma""]",0,[0.2669999999999959],68,0,68,0,1
,,,,,,5eebf73b9d0a1a3a4520d168,,,,,,5eebf73b9d0a1a3a4520d168,Kobieta,29,2021-09-06_19h45.39.972,rantool2,2021.1.4,Win32,59.88023952,6135e006383e6ea6c3d06a28,613653a614de2ce740161c7d,,"[""period""]",0,[0.2370000000000232],69,0,69,0,1
,,,,,,5eebf73b9d0a1a3a4520d168,,,,,,5eebf73b9d0a1a3a4520d168,Kobieta,29,2021-09-06_19h45.39.972,rantool2,2021.1.4,Win32,59.88023952,6135e006383e6ea6c3d06a28,613653a614de2ce740161c7d,,"[""comma""]",0,[0.25099999999997635],70,0,70,0,1
,,,,,,5eebf73b9d0a1a3a4520d168,,,,,,5eebf73b9d0a1a3a4520d168,Kobieta,29,2021-09-06_19h45.39.972,rantool2,2021.1.4,Win32,59.88023952,6135e006383e6ea6c3d06a28,613653a614de2ce740161c7d,,"[""period""]",0,[0.2349999999999568],71,0,71,0,1
,,,,,,5eebf73b9d0a1a3a4520d168,,,,,,5eebf73b9d0a1a3a4520d168,Kobieta,29,2021-09-06_19h45.39.972,rantool2,2021.1.4,Win32,59.88023952,6135e006383e6ea6c3d06a28,613653a614de2ce740161c7d,,"[""comma""]",0,[0.04200000000003001],72,0,72,0,1
,,,,,,5eebf73b9d0a1a3a4520d168,,,,,,5eebf73b9d0a1a3a4520d168,Kobieta,29,2021-09-06_19h45.39.972,rantool2,2021.1.4,Win32,59.88023952,6135e006383e6ea6c3d06a28,613653a614de2ce740161c7d,,"[""period""]",0,[0.07200000000000273],73,0,73,0,1
,,,,,,5eebf73b9d0a1a3a4520d168,,,,,,5eebf73b9d0a1a3a4520d168,Kobieta,29,2021-09-06_19h45.39.972,rantool2,2021.1.4,Win32,59.88023952,6135e006383e6ea6c3d06a28,613653a614de2ce740161c7d,,"[""comma""]",0,[0.08499999999997954],74,0,74,0,1
,,,,,,5eebf73b9d0a1a3a4520d168,,,,,,5eebf73b9d0a1a3a4520d168,Kobieta,29,2021-09-06_19h45.39.972,rantool2,2021.1.4,Win32,59.88023952,6135e006383e6ea6c3d06a28,613653a614de2ce740161c7d,,"[""period""]",0,[0.19099999999997408],75,0,75,0,1
,,,,,,5eebf73b9d0a1a3a4520d168,,,,,,5eebf73b9d0a1a3a4520d168,Kobieta,29,2021-09-06_19h45.39.972,rantool2,2021.1.4,Win32,59.88023952,6135e006383e6ea6c3d06a28,613653a614de2ce740161c7d,,"[""comma""]",0,[0.21900000000005093],76,0,76,0,1
,,,,,,5eebf73b9d0a1a3a4520d168,,,,,,5eebf73b9d0a1a3a4520d168,Kobieta,29,2021-09-06_19h45.39.972,rantool2,2021.1.4,Win32,59.88023952,6135e006383e6ea6c3d06a28,613653a614de2ce740161c7d,,"[""period""]",0,[0.18799999999998818],77,0,77,0,1
,,,,,,5eebf73b9d0a1a3a4520d168,,,,,,5eebf73b9d0a1a3a4520d168,Kobieta,29,2021-09-06_19h45.39.972,rantool2,2021.1.4,Win32,59.88023952,6135e006383e6ea6c3d06a28,613653a614de2ce740161c7d,,"[""comma""]",0,[0.2890000000000441],78,0,78,0,1
,,,,,,5eebf73b9d0a1a3a4520d168,,,,,,5eebf73b9d0a1a3a4520d168,Kobieta,29,2021-09-06_19h45.39.972,rantool2,2021.1.4,Win32,59.88023952,6135e006383e6ea6c3d06a28,613653a614de2ce740161c7d,,"[""period""]",0,[0.05500000000000682],79,0,79,0,1
,,,,,,5eebf73b9d0a1a3a4520d168,,,,,,5eebf73b9d0a1a3a4520d168,Kobieta,29,2021-09-06_19h45.39.972,rantool2,2021.1.4,Win32,59.88023952,6135e006383e6ea6c3d06a28,613653a614de2ce740161c7d,,"[""comma""]",0,[0.3059999999999832],80,0,80,0,1
,,,,,,5eebf73b9d0a1a3a4520d168,,,,,,5eebf73b9d0a1a3a4520d168,Kobieta,29,2021-09-06_19h45.39.972,rantool2,2021.1.4,Win32,59.88023952,6135e006383e6ea6c3d06a28,613653a614de2ce740161c7d,,"[""period""]",0,[0.41100000000000136],81,0,81,0,1
,,,,,,5eebf73b9d0a1a3a4520d168,,,,,,5eebf73b9d0a1a3a4520d168,Kobieta,29,2021-09-06_19h45.39.972,rantool2,2021.1.4,Win32,59.88023952,6135e006383e6ea6c3d06a28,613653a614de2ce740161c7d,,"[""comma""]",0,[0.28199999999998226],82,0,82,0,1
,,,,,,5eebf73b9d0a1a3a4520d168,,,,,,5eebf73b9d0a1a3a4520d168,Kobieta,29,2021-09-06_19h45.39.972,rantool2,2021.1.4,Win32,59.88023952,6135e006383e6ea6c3d06a28,613653a614de2ce740161c7d,,"[""period""]",0,[0.31899999999996],83,0,83,0,1
,,,,,,5eebf73b9d0a1a3a4520d168,,,,,,5eebf73b9d0a1a3a4520d168,Kobieta,29,2021-09-06_19h45.39.972,rantool2,2021.1.4,Win32,59.88023952,6135e006383e6ea6c3d06a28,613653a614de2ce740161c7d,,"[""comma""]",0,[0.3180000000000405],84,0,84,0,1
,,,,,,5eebf73b9d0a1a3a4520d168,,,,,,5eebf73b9d0a1a3a4520d168,Kobieta,29,2021-09-06_19h45.39.972,rantool2,2021.1.4,Win32,59.88023952,6135e006383e6ea6c3d06a28,613653a614de2ce740161c7d,,"[""period""]",0,[0.2529999999999859],85,0,85,0,1
,,,,,,5eebf73b9d0a1a3a4520d168,,,,,,5eebf73b9d0a1a3a4520d168,Kobieta,29,2021-09-06_19h45.39.972,rantool2,2021.1.4,Win32,59.88023952,6135e006383e6ea6c3d06a28,613653a614de2ce740161c7d,,"[""comma""]",0,[0.36899999999997135],86,0,86,0,1
,,,,,,5eebf73b9d0a1a3a4520d168,,,,,,5eebf73b9d0a1a3a4520d168,Kobieta,29,2021-09-06_19h45.39.972,rantool2,2021.1.4,Win32,59.88023952,6135e006383e6ea6c3d06a28,613653a614de2ce740161c7d,,"[""period""]",0,[0.09100000000000819],87,0,87,0,1
,,,,,,5eebf73b9d0a1a3a4520d168,,,,,,5eebf73b9d0a1a3a4520d168,Kobieta,29,2021-09-06_19h45.39.972,rantool2,2021.1.4,Win32,59.88023952,6135e006383e6ea6c3d06a28,613653a614de2ce740161c7d,,"[""comma""]",0,[0.22100000000000364],88,0,88,0,1
,,,,,,5eebf73b9d0a1a3a4520d168,,,,,,5eebf73b9d0a1a3a4520d168,Kobieta,29,2021-09-06_19h45.39.972,rantool2,2021.1.4,Win32,59.88023952,6135e006383e6ea6c3d06a28,613653a614de2ce740161c7d,,"[""period""]",0,[0.2580000000000382],89,0,89,0,1
,,,,,,5eebf73b9d0a1a3a4520d168,,,,,,5eebf73b9d0a1a3a4520d168,Kobieta,29,2021-09-06_19h45.39.972,rantool2,2021.1.4,Win32,59.88023952,6135e006383e6ea6c3d06a28,613653a614de2ce740161c7d,,"[""comma""]",0,[0.2529999999999859],90,0,90,0,1
,,,,,,5eebf73b9d0a1a3a4520d168,,,,,,5eebf73b9d0a1a3a4520d168,Kobieta,29,2021-09-06_19h45.39.972,rantool2,2021.1.4,Win32,59.88023952,6135e006383e6ea6c3d06a28,613653a614de2ce740161c7d,,"[""period""]",0,[0.20099999999996498],91,0,91,0,1
,,,,,,5eebf73b9d0a1a3a4520d168,,,,,,5eebf73b9d0a1a3a4520d168,Kobieta,29,2021-09-06_19h45.39.972,rantool2,2021.1.4,Win32,59.88023952,6135e006383e6ea6c3d06a28,613653a614de2ce740161c7d,,"[""comma""]",0,[0.103999999999985],92,0,92,0,1
,,,,,,5eebf73b9d0a1a3a4520d168,,,,,,5eebf73b9d0a1a3a4520d168,Kobieta,29,2021-09-06_19h45.39.972,rantool2,2021.1.4,Win32,59.88023952,6135e006383e6ea6c3d06a28,613653a614de2ce740161c7d,,"[""period""]",0,[0.2529999999999859],93,0,93,0,1
,,,,,,5eebf73b9d0a1a3a4520d168,,,,,,5eebf73b9d0a1a3a4520d168,Kobieta,29,2021-09-06_19h45.39.972,rantool2,2021.1.4,Win32,59.88023952,6135e006383e6ea6c3d06a28,613653a614de2ce740161c7d,,"[""comma""]",0,[0.22000000000002728],94,0,94,0,1
,,,,,,5eebf73b9d0a1a3a4520d168,,,,,,5eebf73b9d0a1a3a4520d168,Kobieta,29,2021-09-06_19h45.39.972,rantool2,2021.1.4,Win32,59.88023952,6135e006383e6ea6c3d06a28,613653a614de2ce740161c7d,,"[""period""]",0,[0.2340000000000373],95,0,95,0,1
,,,,,,5eebf73b9d0a1a3a4520d168,,,,,,5eebf73b9d0a1a3a4520d168,Kobieta,29,2021-09-06_19h45.39.972,rantool2,2021.1.4,Win32,59.88023952,6135e006383e6ea6c3d06a28,613653a614de2ce740161c7d,,"[""comma""]",0,[0.271000000000015],96,0,96,0,1
,,,,,,5eebf73b9d0a1a3a4520d168,,,,,,5eebf73b9d0a1a3a4520d168,Kobieta,29,2021-09-06_19h45.39.972,rantool2,2021.1.4,Win32,59.88023952,6135e006383e6ea6c3d06a28,613653a614de2ce740161c7d,,"[""period""]",0,[0.30299999999999727],97,0,97,0,1
,,,,,,5eebf73b9d0a1a3a4520d168,,,,,,5eebf73b9d0a1a3a4520d168,Kobieta,29,2021-09-06_19h45.39.972,rantool2,2021.1.4,Win32,59.88023952,6135e006383e6ea6c3d06a28,613653a614de2ce740161c7d,,"[""comma""]",0,[0.21699999999998454],98,0,98,0,1
,,,,,,5eebf73b9d0a1a3a4520d168,,,,,,5eebf73b9d0a1a3a4520d168,Kobieta,29,2021-09-06_19h45.39.972,rantool2,2021.1.4,Win32,59.88023952,6135e006383e6ea6c3d06a28,613653a614de2ce740161c7d,,"[""period""]",0,[0.2400000000000091],99,0,99,0,1
,,,,,,5eebf73b9d0a1a3a4520d168,,,,,,5eebf73b9d0a1a3a4520d168,Kobieta,29,2021-09-06_19h45.39.972,rantool2,2021.1.4,Win32,59.88023952,6135e006383e6ea6c3d06a28,613653a614de2ce740161c7d,,"[""comma""]",0,[0.23399999999998045],100,0,100,0,1
,,,,,,5eebf73b9d0a1a3a4520d168,,,,,,5eebf73b9d0a1a3a4520d168,Kobieta,29,2021-09-06_19h45.39.972,rantool2,2021.1.4,Win32,59.88023952,6135e006383e6ea6c3d06a28,613653a614de2ce740161c7d,,"[""period""]",0,[0.22000000000002728],101,0,101,0,1
,,,,,,5eebf73b9d0a1a3a4520d168,,,,,,5eebf73b9d0a1a3a4520d168,Kobieta,29,2021-09-06_19h45.39.972,rantool2,2021.1.4,Win32,59.88023952,6135e006383e6ea6c3d06a28,613653a614de2ce740161c7d,,"[""comma""]",0,[0.2400000000000091],102,0,102,0,1
,,,,,,5eebf73b9d0a1a3a4520d168,,,,,,5eebf73b9d0a1a3a4520d168,Kobieta,29,2021-09-06_19h45.39.972,rantool2,2021.1.4,Win32,59.88023952,6135e006383e6ea6c3d06a28,613653a614de2ce740161c7d,,"[""period""]",0,[0.30299999999999727],103,0,103,0,1
,,,,,,5eebf73b9d0a1a3a4520d168,,,,,,5eebf73b9d0a1a3a4520d168,Kobieta,29,2021-09-06_19h45.39.972,rantool2,2021.1.4,Win32,59.88023952,6135e006383e6ea6c3d06a28,613653a614de2ce740161c7d,,"[""comma""]",0,[0.33600000000001273],104,0,104,0,1
,,,,,,5eebf73b9d0a1a3a4520d168,,,,,,5eebf73b9d0a1a3a4520d168,Kobieta,29,2021-09-06_19h45.39.972,rantool2,2021.1.4,Win32,59.88023952,6135e006383e6ea6c3d06a28,613653a614de2ce740161c7d,,"[""period""]",0,[0.09200000000004138],105,0,105,0,1
,,,,,,5eebf73b9d0a1a3a4520d168,,,,,,5eebf73b9d0a1a3a4520d168,Kobieta,29,2021-09-06_19h45.39.972,rantool2,2021.1.4,Win32,59.88023952,6135e006383e6ea6c3d06a28,613653a614de2ce740161c7d,,"[""comma""]",0,[0.22400000000004638],106,0,106,0,1
,,,,,,5eebf73b9d0a1a3a4520d168,,,,,,5eebf73b9d0a1a3a4520d168,Kobieta,29,2021-09-06_19h45.39.972,rantool2,2021.1.4,Win32,59.88023952,6135e006383e6ea6c3d06a28,613653a614de2ce740161c7d,,"[""period""]",0,[0.2599999999999909],107,0,107,0,1
,,,,,,5eebf73b9d0a1a3a4520d168,,,,,,5eebf73b9d0a1a3a4520d168,Kobieta,29,2021-09-06_19h45.39.972,rantool2,2021.1.4,Win32,59.88023952,6135e006383e6ea6c3d06a28,613653a614de2ce740161c7d,,"[""comma""]",0,[0.26799999999997226],108,0,108,0,1
,,,,,,5eebf73b9d0a1a3a4520d168,,,,,,5eebf73b9d0a1a3a4520d168,Kobieta,29,2021-09-06_19h45.39.972,rantool2,2021.1.4,Win32,59.88023952,6135e006383e6ea6c3d06a28,613653a614de2ce740161c7d,,"[""comma""]",0,[-0.016000000000019554],109,0,109,0,1
,,,,,,5eebf73b9d0a1a3a4520d168,,,,,,5eebf73b9d0a1a3a4520d168,Kobieta,29,2021-09-06_19h45.39.972,rantool2,2021.1.4,Win32,59.88023952,6135e006383e6ea6c3d06a28,613653a614de2ce740161c7d,,"[""period""]",0,[0.2510000000000332],110,0,110,0,1
,,,,,,5eebf73b9d0a1a3a4520d168,,,,,,5eebf73b9d0a1a3a4520d168,Kobieta,29,2021-09-06_19h45.39.972,rantool2,2021.1.4,Win32,59.88023952,6135e006383e6ea6c3d06a28,613653a614de2ce740161c7d,,"[""comma""]",0,[0.3020000000000209],111,0,111,0,1
,,,,,,5eebf73b9d0a1a3a4520d168,,,,,,5eebf73b9d0a1a3a4520d168,Kobieta,29,2021-09-06_19h45.39.972,rantool2,2021.1.4,Win32,59.88023952,6135e006383e6ea6c3d06a28,613653a614de2ce740161c7d,,"[""period""]",0,[0.30700000000001637],112,0,112,0,1
,,,,,,5eebf73b9d0a1a3a4520d168,,,,,,5eebf73b9d0a1a3a4520d168,Kobieta,29,2021-09-06_19h45.39.972,rantool2,2021.1.4,Win32,59.88023952,6135e006383e6ea6c3d06a28,613653a614de2ce740161c7d,,"[""comma""]",0,[0.28899999999998727],113,0,113,0,1
,,,,,,5eebf73b9d0a1a3a4520d168,,,,,,5eebf73b9d0a1a3a4520d168,Kobieta,29,2021-09-06_19h45.39.972,rantool2,2021.1.4,Win32,59.88023952,6135e006383e6ea6c3d06a28,613653a614de2ce740161c7d,,"[""period""]",0,[0.3180000000000405],114,0,114,0,1
,,,,,,5eebf73b9d0a1a3a4520d168,,,,,,5eebf73b9d0a1a3a4520d168,Kobieta,29,2021-09-06_19h45.39.972,rantool2,2021.1.4,Win32,59.88023952,6135e006383e6ea6c3d06a28,613653a614de2ce740161c7d,,"[""comma""]",0,[0.17099999999999227],115,0,115,0,1
,,,,,,5eebf73b9d0a1a3a4520d168,,,,,,5eebf73b9d0a1a3a4520d168,Kobieta,29,2021-09-06_19h45.39.972,rantool2,2021.1.4,Win32,59.88023952,6135e006383e6ea6c3d06a28,613653a614de2ce740161c7d,,"[""period""]",0,[0.22200000000003683],116,0,116,0,1
,,,,,,5eebf73b9d0a1a3a4520d168,,,,,,5eebf73b9d0a1a3a4520d168,Kobieta,29,2021-09-06_19h45.39.972,rantool2,2021.1.4,Win32,59.88023952,6135e006383e6ea6c3d06a28,613653a614de2ce740161c7d,,"[""comma""]",0,[0.16899999999998272],117,0,117,0,1
,,,,,,5eebf73b9d0a1a3a4520d168,,,,,,5eebf73b9d0a1a3a4520d168,Kobieta,29,2021-09-06_19h45.39.972,rantool2,2021.1.4,Win32,59.88023952,6135e006383e6ea6c3d06a28,613653a614de2ce740161c7d,,"[""period""]",0,[0.30600000000004],118,0,118,0,1
,,,,,,5eebf73b9d0a1a3a4520d168,,,,,,5eebf73b9d0a1a3a4520d168,Kobieta,29,2021-09-06_19h45.39.972,rantool2,2021.1.4,Win32,59.88023952,6135e006383e6ea6c3d06a28,613653a614de2ce740161c7d,,"[""comma""]",0,[0.26900000000000546],119,0,119,0,1
