key_resp_5.keys,key_resp_5.corr,key_resp_5.rt,trials.thisRepN,trials.thisTrialN,trials.thisN,trials.thisIndex,trials.ran,id*,Płeć*,Wiek*,date,expName,psychopyVersion,OS,frameRate,id,STUDY_ID,SESSION_ID,key_resp_7.keys,key_resp_7.rt,trials_2.thisRepN,trials_2.thisTrialN,trials_2.thisN,trials_2.thisIndex,trials_2.ran,series_0,series_1,acss_0,acss_1,comparison
0,,,0,0,0,0,1,5f502659e156d519cef558b7,Mężczyzna,24,2021-07-13_21h21.42.896,rantool2,2021.1.4,Win32,56.39839829,5f502659e156d519cef558b7,60d9d14f4a8a35a482e0d9bf,60ede7b64b32b8c5ead7024b,,,,,,,,,,,,
"[""comma""]",0,[0.5396300000011252],1,0,1,0,1,5f502659e156d519cef558b7,Mężczyzna,24,2021-07-13_21h21.42.896,rantool2,2021.1.4,Win32,56.39839829,5f502659e156d519cef558b7,60d9d14f4a8a35a482e0d9bf,60ede7b64b32b8c5ead7024b,,,,,,,,,,,,
"[""period""]",0,[0.5502099999994243],2,0,2,0,1,5f502659e156d519cef558b7,Mężczyzna,24,2021-07-13_21h21.42.896,rantool2,2021.1.4,Win32,56.39839829,5f502659e156d519cef558b7,60d9d14f4a8a35a482e0d9bf,60ede7b64b32b8c5ead7024b,,,,,,,,,,,,
"[""comma""]",0,[0.7332150000002002],3,0,3,0,1,5f502659e156d519cef558b7,Mężczyzna,24,2021-07-13_21h21.42.896,rantool2,2021.1.4,Win32,56.39839829,5f502659e156d519cef558b7,60d9d14f4a8a35a482e0d9bf,60ede7b64b32b8c5ead7024b,,,,,,,,,,,,
"[""comma""]",0,[0.9724000000005617],4,0,4,0,1,5f502659e156d519cef558b7,Mężczyzna,24,2021-07-13_21h21.42.896,rantool2,2021.1.4,Win32,56.39839829,5f502659e156d519cef558b7,60d9d14f4a8a35a482e0d9bf,60ede7b64b32b8c5ead7024b,,,,,,,,,,,,
"[""period""]",0,[0.3660700000000361],5,0,5,0,1,5f502659e156d519cef558b7,Mężczyzna,24,2021-07-13_21h21.42.896,rantool2,2021.1.4,Win32,56.39839829,5f502659e156d519cef558b7,60d9d14f4a8a35a482e0d9bf,60ede7b64b32b8c5ead7024b,,,,,,,,,,,,
"[""comma""]",0,[0.30798499999946216],6,0,6,0,1,5f502659e156d519cef558b7,Mężczyzna,24,2021-07-13_21h21.42.896,rantool2,2021.1.4,Win32,56.39839829,5f502659e156d519cef558b7,60d9d14f4a8a35a482e0d9bf,60ede7b64b32b8c5ead7024b,,,,,,,,,,,,
"[""period""]",0,[0.5879100000001927],7,0,7,0,1,5f502659e156d519cef558b7,Mężczyzna,24,2021-07-13_21h21.42.896,rantool2,2021.1.4,Win32,56.39839829,5f502659e156d519cef558b7,60d9d14f4a8a35a482e0d9bf,60ede7b64b32b8c5ead7024b,,,,,,,,,,,,
"[""comma""]",0,[0.5330350000003818],8,0,8,0,1,5f502659e156d519cef558b7,Mężczyzna,24,2021-07-13_21h21.42.896,rantool2,2021.1.4,Win32,56.39839829,5f502659e156d519cef558b7,60d9d14f4a8a35a482e0d9bf,60ede7b64b32b8c5ead7024b,,,,,,,,,,,,
"[""period""]",0,[0.3344149999993533],9,0,9,0,1,5f502659e156d519cef558b7,Mężczyzna,24,2021-07-13_21h21.42.896,rantool2,2021.1.4,Win32,56.39839829,5f502659e156d519cef558b7,60d9d14f4a8a35a482e0d9bf,60ede7b64b32b8c5ead7024b,,,,,,,,,,,,
"[""comma""]",0,[0.3718600000011065],10,0,10,0,1,5f502659e156d519cef558b7,Mężczyzna,24,2021-07-13_21h21.42.896,rantool2,2021.1.4,Win32,56.39839829,5f502659e156d519cef558b7,60d9d14f4a8a35a482e0d9bf,60ede7b64b32b8c5ead7024b,,,,,,,,,,,,
"[""comma""]",0,[0.4355050000012852],11,0,11,0,1,5f502659e156d519cef558b7,Mężczyzna,24,2021-07-13_21h21.42.896,rantool2,2021.1.4,Win32,56.39839829,5f502659e156d519cef558b7,60d9d14f4a8a35a482e0d9bf,60ede7b64b32b8c5ead7024b,,,,,,,,,,,,
"[""period""]",0,[0.3873149999999441],12,0,12,0,1,5f502659e156d519cef558b7,Mężczyzna,24,2021-07-13_21h21.42.896,rantool2,2021.1.4,Win32,56.39839829,5f502659e156d519cef558b7,60d9d14f4a8a35a482e0d9bf,60ede7b64b32b8c5ead7024b,,,,,,,,,,,,
"[""comma""]",0,[0.5489350000007107],13,0,13,0,1,5f502659e156d519cef558b7,Mężczyzna,24,2021-07-13_21h21.42.896,rantool2,2021.1.4,Win32,56.39839829,5f502659e156d519cef558b7,60d9d14f4a8a35a482e0d9bf,60ede7b64b32b8c5ead7024b,,,,,,,,,,,,
"[""period""]",0,[0.40394500000002154],14,0,14,0,1,5f502659e156d519cef558b7,Mężczyzna,24,2021-07-13_21h21.42.896,rantool2,2021.1.4,Win32,56.39839829,5f502659e156d519cef558b7,60d9d14f4a8a35a482e0d9bf,60ede7b64b32b8c5ead7024b,,,,,,,,,,,,
"[""comma""]",0,[0.33338499999990745],15,0,15,0,1,5f502659e156d519cef558b7,Mężczyzna,24,2021-07-13_21h21.42.896,rantool2,2021.1.4,Win32,56.39839829,5f502659e156d519cef558b7,60d9d14f4a8a35a482e0d9bf,60ede7b64b32b8c5ead7024b,,,,,,,,,,,,
"[""period""]",0,[0.3243750000001455],16,0,16,0,1,5f502659e156d519cef558b7,Mężczyzna,24,2021-07-13_21h21.42.896,rantool2,2021.1.4,Win32,56.39839829,5f502659e156d519cef558b7,60d9d14f4a8a35a482e0d9bf,60ede7b64b32b8c5ead7024b,,,,,,,,,,,,
"[""comma""]",0,[0.3958950000014738],17,0,17,0,1,5f502659e156d519cef558b7,Mężczyzna,24,2021-07-13_21h21.42.896,rantool2,2021.1.4,Win32,56.39839829,5f502659e156d519cef558b7,60d9d14f4a8a35a482e0d9bf,60ede7b64b32b8c5ead7024b,,,,,,,,,,,,
"[""period""]",0,[0.3707699999995384],18,0,18,0,1,5f502659e156d519cef558b7,Mężczyzna,24,2021-07-13_21h21.42.896,rantool2,2021.1.4,Win32,56.39839829,5f502659e156d519cef558b7,60d9d14f4a8a35a482e0d9bf,60ede7b64b32b8c5ead7024b,,,,,,,,,,,,
"[""comma""]",0,[0.41964999999981956],19,0,19,0,1,5f502659e156d519cef558b7,Mężczyzna,24,2021-07-13_21h21.42.896,rantool2,2021.1.4,Win32,56.39839829,5f502659e156d519cef558b7,60d9d14f4a8a35a482e0d9bf,60ede7b64b32b8c5ead7024b,,,,,,,,,,,,
"[""comma""]",0,[0.4843700000001263],20,0,20,0,1,5f502659e156d519cef558b7,Mężczyzna,24,2021-07-13_21h21.42.896,rantool2,2021.1.4,Win32,56.39839829,5f502659e156d519cef558b7,60d9d14f4a8a35a482e0d9bf,60ede7b64b32b8c5ead7024b,,,,,,,,,,,,
"[""period""]",0,[0.37973000000056345],21,0,21,0,1,5f502659e156d519cef558b7,Mężczyzna,24,2021-07-13_21h21.42.896,rantool2,2021.1.4,Win32,56.39839829,5f502659e156d519cef558b7,60d9d14f4a8a35a482e0d9bf,60ede7b64b32b8c5ead7024b,,,,,,,,,,,,
"[""comma""]",0,[0.4114549999994779],22,0,22,0,1,5f502659e156d519cef558b7,Mężczyzna,24,2021-07-13_21h21.42.896,rantool2,2021.1.4,Win32,56.39839829,5f502659e156d519cef558b7,60d9d14f4a8a35a482e0d9bf,60ede7b64b32b8c5ead7024b,,,,,,,,,,,,
"[""period""]",0,[0.42713000000003376],23,0,23,0,1,5f502659e156d519cef558b7,Mężczyzna,24,2021-07-13_21h21.42.896,rantool2,2021.1.4,Win32,56.39839829,5f502659e156d519cef558b7,60d9d14f4a8a35a482e0d9bf,60ede7b64b32b8c5ead7024b,,,,,,,,,,,,
"[""comma""]",0,[0.6029299999991053],24,0,24,0,1,5f502659e156d519cef558b7,Mężczyzna,24,2021-07-13_21h21.42.896,rantool2,2021.1.4,Win32,56.39839829,5f502659e156d519cef558b7,60d9d14f4a8a35a482e0d9bf,60ede7b64b32b8c5ead7024b,,,,,,,,,,,,
"[""period""]",0,[0.395024999999805],25,0,25,0,1,5f502659e156d519cef558b7,Mężczyzna,24,2021-07-13_21h21.42.896,rantool2,2021.1.4,Win32,56.39839829,5f502659e156d519cef558b7,60d9d14f4a8a35a482e0d9bf,60ede7b64b32b8c5ead7024b,,,,,,,,,,,,
"[""comma""]",0,[0.3630350000003091],26,0,26,0,1,5f502659e156d519cef558b7,Mężczyzna,24,2021-07-13_21h21.42.896,rantool2,2021.1.4,Win32,56.39839829,5f502659e156d519cef558b7,60d9d14f4a8a35a482e0d9bf,60ede7b64b32b8c5ead7024b,,,,,,,,,,,,
"[""period""]",0,[0.3789699999997538],27,0,27,0,1,5f502659e156d519cef558b7,Mężczyzna,24,2021-07-13_21h21.42.896,rantool2,2021.1.4,Win32,56.39839829,5f502659e156d519cef558b7,60d9d14f4a8a35a482e0d9bf,60ede7b64b32b8c5ead7024b,,,,,,,,,,,,
"[""comma""]",0,[0.41851000000133354],28,0,28,0,1,5f502659e156d519cef558b7,Mężczyzna,24,2021-07-13_21h21.42.896,rantool2,2021.1.4,Win32,56.39839829,5f502659e156d519cef558b7,60d9d14f4a8a35a482e0d9bf,60ede7b64b32b8c5ead7024b,,,,,,,,,,,,
"[""comma""]",0,[0.4584599999998318],29,0,29,0,1,5f502659e156d519cef558b7,Mężczyzna,24,2021-07-13_21h21.42.896,rantool2,2021.1.4,Win32,56.39839829,5f502659e156d519cef558b7,60d9d14f4a8a35a482e0d9bf,60ede7b64b32b8c5ead7024b,,,,,,,,,,,,
"[""period""]",0,[0.33835499999986496],30,0,30,0,1,5f502659e156d519cef558b7,Mężczyzna,24,2021-07-13_21h21.42.896,rantool2,2021.1.4,Win32,56.39839829,5f502659e156d519cef558b7,60d9d14f4a8a35a482e0d9bf,60ede7b64b32b8c5ead7024b,,,,,,,,,,,,
"[""period""]",0,[0.3624550000004092],31,0,31,0,1,5f502659e156d519cef558b7,Mężczyzna,24,2021-07-13_21h21.42.896,rantool2,2021.1.4,Win32,56.39839829,5f502659e156d519cef558b7,60d9d14f4a8a35a482e0d9bf,60ede7b64b32b8c5ead7024b,,,,,,,,,,,,
"[""comma""]",0,[0.33931500000107917],32,0,32,0,1,5f502659e156d519cef558b7,Mężczyzna,24,2021-07-13_21h21.42.896,rantool2,2021.1.4,Win32,56.39839829,5f502659e156d519cef558b7,60d9d14f4a8a35a482e0d9bf,60ede7b64b32b8c5ead7024b,,,,,,,,,,,,
"[""comma""]",0,[0.2845450000004064],33,0,33,0,1,5f502659e156d519cef558b7,Mężczyzna,24,2021-07-13_21h21.42.896,rantool2,2021.1.4,Win32,56.39839829,5f502659e156d519cef558b7,60d9d14f4a8a35a482e0d9bf,60ede7b64b32b8c5ead7024b,,,,,,,,,,,,
"[""period""]",0,[0.5234250000012537],34,0,34,0,1,5f502659e156d519cef558b7,Mężczyzna,24,2021-07-13_21h21.42.896,rantool2,2021.1.4,Win32,56.39839829,5f502659e156d519cef558b7,60d9d14f4a8a35a482e0d9bf,60ede7b64b32b8c5ead7024b,,,,,,,,,,,,
"[""comma""]",0,[0.28292500000131326],35,0,35,0,1,5f502659e156d519cef558b7,Mężczyzna,24,2021-07-13_21h21.42.896,rantool2,2021.1.4,Win32,56.39839829,5f502659e156d519cef558b7,60d9d14f4a8a35a482e0d9bf,60ede7b64b32b8c5ead7024b,,,,,,,,,,,,
"[""comma""]",0,[0.37060500000001184],36,0,36,0,1,5f502659e156d519cef558b7,Mężczyzna,24,2021-07-13_21h21.42.896,rantool2,2021.1.4,Win32,56.39839829,5f502659e156d519cef558b7,60d9d14f4a8a35a482e0d9bf,60ede7b64b32b8c5ead7024b,,,,,,,,,,,,
"[""comma""]",0,[0.4187149999997928],37,0,37,0,1,5f502659e156d519cef558b7,Mężczyzna,24,2021-07-13_21h21.42.896,rantool2,2021.1.4,Win32,56.39839829,5f502659e156d519cef558b7,60d9d14f4a8a35a482e0d9bf,60ede7b64b32b8c5ead7024b,,,,,,,,,,,,
"[""period""]",0,[0.362689999999958],38,0,38,0,1,5f502659e156d519cef558b7,Mężczyzna,24,2021-07-13_21h21.42.896,rantool2,2021.1.4,Win32,56.39839829,5f502659e156d519cef558b7,60d9d14f4a8a35a482e0d9bf,60ede7b64b32b8c5ead7024b,,,,,,,,,,,,
"[""comma""]",0,[0.3383250000006228],39,0,39,0,1,5f502659e156d519cef558b7,Mężczyzna,24,2021-07-13_21h21.42.896,rantool2,2021.1.4,Win32,56.39839829,5f502659e156d519cef558b7,60d9d14f4a8a35a482e0d9bf,60ede7b64b32b8c5ead7024b,,,,,,,,,,,,
"[""period""]",0,[0.506080000000992],40,0,40,0,1,5f502659e156d519cef558b7,Mężczyzna,24,2021-07-13_21h21.42.896,rantool2,2021.1.4,Win32,56.39839829,5f502659e156d519cef558b7,60d9d14f4a8a35a482e0d9bf,60ede7b64b32b8c5ead7024b,,,,,,,,,,,,
"[""comma""]",0,[0.3780800000003808],41,0,41,0,1,5f502659e156d519cef558b7,Mężczyzna,24,2021-07-13_21h21.42.896,rantool2,2021.1.4,Win32,56.39839829,5f502659e156d519cef558b7,60d9d14f4a8a35a482e0d9bf,60ede7b64b32b8c5ead7024b,,,,,,,,,,,,
"[""period""]",0,[0.37805500000104075],42,0,42,0,1,5f502659e156d519cef558b7,Mężczyzna,24,2021-07-13_21h21.42.896,rantool2,2021.1.4,Win32,56.39839829,5f502659e156d519cef558b7,60d9d14f4a8a35a482e0d9bf,60ede7b64b32b8c5ead7024b,,,,,,,,,,,,
"[""comma""]",0,[0.37013999999908265],43,0,43,0,1,5f502659e156d519cef558b7,Mężczyzna,24,2021-07-13_21h21.42.896,rantool2,2021.1.4,Win32,56.39839829,5f502659e156d519cef558b7,60d9d14f4a8a35a482e0d9bf,60ede7b64b32b8c5ead7024b,,,,,,,,,,,,
"[""period""]",0,[0.3696999999992272],44,0,44,0,1,5f502659e156d519cef558b7,Mężczyzna,24,2021-07-13_21h21.42.896,rantool2,2021.1.4,Win32,56.39839829,5f502659e156d519cef558b7,60d9d14f4a8a35a482e0d9bf,60ede7b64b32b8c5ead7024b,,,,,,,,,,,,
"[""comma""]",0,[0.24954499999876134],45,0,45,0,1,5f502659e156d519cef558b7,Mężczyzna,24,2021-07-13_21h21.42.896,rantool2,2021.1.4,Win32,56.39839829,5f502659e156d519cef558b7,60d9d14f4a8a35a482e0d9bf,60ede7b64b32b8c5ead7024b,,,,,,,,,,,,
"[""period""]",0,[0.4022450000011304],46,0,46,0,1,5f502659e156d519cef558b7,Mężczyzna,24,2021-07-13_21h21.42.896,rantool2,2021.1.4,Win32,56.39839829,5f502659e156d519cef558b7,60d9d14f4a8a35a482e0d9bf,60ede7b64b32b8c5ead7024b,,,,,,,,,,,,
"[""period""]",0,[0.3466349999998499],47,0,47,0,1,5f502659e156d519cef558b7,Mężczyzna,24,2021-07-13_21h21.42.896,rantool2,2021.1.4,Win32,56.39839829,5f502659e156d519cef558b7,60d9d14f4a8a35a482e0d9bf,60ede7b64b32b8c5ead7024b,,,,,,,,,,,,
"[""comma""]",0,[0.3946649999998044],48,0,48,0,1,5f502659e156d519cef558b7,Mężczyzna,24,2021-07-13_21h21.42.896,rantool2,2021.1.4,Win32,56.39839829,5f502659e156d519cef558b7,60d9d14f4a8a35a482e0d9bf,60ede7b64b32b8c5ead7024b,,,,,,,,,,,,
"[""comma""]",0,[0.2902450000001977],49,0,49,0,1,5f502659e156d519cef558b7,Mężczyzna,24,2021-07-13_21h21.42.896,rantool2,2021.1.4,Win32,56.39839829,5f502659e156d519cef558b7,60d9d14f4a8a35a482e0d9bf,60ede7b64b32b8c5ead7024b,,,,,,,,,,,,
"[""comma""]",0,[0.41008499999958303],50,0,50,0,1,5f502659e156d519cef558b7,Mężczyzna,24,2021-07-13_21h21.42.896,rantool2,2021.1.4,Win32,56.39839829,5f502659e156d519cef558b7,60d9d14f4a8a35a482e0d9bf,60ede7b64b32b8c5ead7024b,,,,,,,,,,,,
"[""comma""]",0,[0.41000500000154716],51,0,51,0,1,5f502659e156d519cef558b7,Mężczyzna,24,2021-07-13_21h21.42.896,rantool2,2021.1.4,Win32,56.39839829,5f502659e156d519cef558b7,60d9d14f4a8a35a482e0d9bf,60ede7b64b32b8c5ead7024b,,,,,,,,,,,,
"[""comma""]",0,[0.353779999999432],52,0,52,0,1,5f502659e156d519cef558b7,Mężczyzna,24,2021-07-13_21h21.42.896,rantool2,2021.1.4,Win32,56.39839829,5f502659e156d519cef558b7,60d9d14f4a8a35a482e0d9bf,60ede7b64b32b8c5ead7024b,,,,,,,,,,,,
"[""comma""]",0,[0.36179000000086603],53,0,53,0,1,5f502659e156d519cef558b7,Mężczyzna,24,2021-07-13_21h21.42.896,rantool2,2021.1.4,Win32,56.39839829,5f502659e156d519cef558b7,60d9d14f4a8a35a482e0d9bf,60ede7b64b32b8c5ead7024b,,,,,,,,,,,,
"[""comma""]",0,[0.3937000000005355],54,0,54,0,1,5f502659e156d519cef558b7,Mężczyzna,24,2021-07-13_21h21.42.896,rantool2,2021.1.4,Win32,56.39839829,5f502659e156d519cef558b7,60d9d14f4a8a35a482e0d9bf,60ede7b64b32b8c5ead7024b,,,,,,,,,,,,
"[""comma""]",0,[0.31498999999894295],55,0,55,0,1,5f502659e156d519cef558b7,Mężczyzna,24,2021-07-13_21h21.42.896,rantool2,2021.1.4,Win32,56.39839829,5f502659e156d519cef558b7,60d9d14f4a8a35a482e0d9bf,60ede7b64b32b8c5ead7024b,,,,,,,,,,,,
"[""comma""]",0,[0.40140000000067744],56,0,56,0,1,5f502659e156d519cef558b7,Mężczyzna,24,2021-07-13_21h21.42.896,rantool2,2021.1.4,Win32,56.39839829,5f502659e156d519cef558b7,60d9d14f4a8a35a482e0d9bf,60ede7b64b32b8c5ead7024b,,,,,,,,,,,,
"[""period""]",0,[0.361295000000581],57,0,57,0,1,5f502659e156d519cef558b7,Mężczyzna,24,2021-07-13_21h21.42.896,rantool2,2021.1.4,Win32,56.39839829,5f502659e156d519cef558b7,60d9d14f4a8a35a482e0d9bf,60ede7b64b32b8c5ead7024b,,,,,,,,,,,,
"[""comma""]",0,[0.5211899999994785],58,0,58,0,1,5f502659e156d519cef558b7,Mężczyzna,24,2021-07-13_21h21.42.896,rantool2,2021.1.4,Win32,56.39839829,5f502659e156d519cef558b7,60d9d14f4a8a35a482e0d9bf,60ede7b64b32b8c5ead7024b,,,,,,,,,,,,
"[""period""]",0,[0.4344949999994867],59,0,59,0,1,5f502659e156d519cef558b7,Mężczyzna,24,2021-07-13_21h21.42.896,rantool2,2021.1.4,Win32,56.39839829,5f502659e156d519cef558b7,60d9d14f4a8a35a482e0d9bf,60ede7b64b32b8c5ead7024b,,,,,,,,,,,,
"[""comma""]",0,[0.33807999999950766],60,0,60,0,1,5f502659e156d519cef558b7,Mężczyzna,24,2021-07-13_21h21.42.896,rantool2,2021.1.4,Win32,56.39839829,5f502659e156d519cef558b7,60d9d14f4a8a35a482e0d9bf,60ede7b64b32b8c5ead7024b,,,,,,,,,,,,
"[""period""]",0,[0.32902500000093937],61,0,61,0,1,5f502659e156d519cef558b7,Mężczyzna,24,2021-07-13_21h21.42.896,rantool2,2021.1.4,Win32,56.39839829,5f502659e156d519cef558b7,60d9d14f4a8a35a482e0d9bf,60ede7b64b32b8c5ead7024b,,,,,,,,,,,,
"[""comma""]",0,[0.35392999999928065],62,0,62,0,1,5f502659e156d519cef558b7,Mężczyzna,24,2021-07-13_21h21.42.896,rantool2,2021.1.4,Win32,56.39839829,5f502659e156d519cef558b7,60d9d14f4a8a35a482e0d9bf,60ede7b64b32b8c5ead7024b,,,,,,,,,,,,
"[""period""]",0,[0.3936599999996986],63,0,63,0,1,5f502659e156d519cef558b7,Mężczyzna,24,2021-07-13_21h21.42.896,rantool2,2021.1.4,Win32,56.39839829,5f502659e156d519cef558b7,60d9d14f4a8a35a482e0d9bf,60ede7b64b32b8c5ead7024b,,,,,,,,,,,,
"[""comma""]",0,[0.31595500000005927],64,0,64,0,1,5f502659e156d519cef558b7,Mężczyzna,24,2021-07-13_21h21.42.896,rantool2,2021.1.4,Win32,56.39839829,5f502659e156d519cef558b7,60d9d14f4a8a35a482e0d9bf,60ede7b64b32b8c5ead7024b,,,,,,,,,,,,
"[""period""]",0,[0.28942000000097323],65,0,65,0,1,5f502659e156d519cef558b7,Mężczyzna,24,2021-07-13_21h21.42.896,rantool2,2021.1.4,Win32,56.39839829,5f502659e156d519cef558b7,60d9d14f4a8a35a482e0d9bf,60ede7b64b32b8c5ead7024b,,,,,,,,,,,,
"[""comma""]",0,[0.6012750000008964],66,0,66,0,1,5f502659e156d519cef558b7,Mężczyzna,24,2021-07-13_21h21.42.896,rantool2,2021.1.4,Win32,56.39839829,5f502659e156d519cef558b7,60d9d14f4a8a35a482e0d9bf,60ede7b64b32b8c5ead7024b,,,,,,,,,,,,
"[""period""]",0,[0.45695999999946935],67,0,67,0,1,5f502659e156d519cef558b7,Mężczyzna,24,2021-07-13_21h21.42.896,rantool2,2021.1.4,Win32,56.39839829,5f502659e156d519cef558b7,60d9d14f4a8a35a482e0d9bf,60ede7b64b32b8c5ead7024b,,,,,,,,,,,,
"[""comma""]",0,[0.3450649999994937],68,0,68,0,1,5f502659e156d519cef558b7,Mężczyzna,24,2021-07-13_21h21.42.896,rantool2,2021.1.4,Win32,56.39839829,5f502659e156d519cef558b7,60d9d14f4a8a35a482e0d9bf,60ede7b64b32b8c5ead7024b,,,,,,,,,,,,
"[""period"",""period""]",0,"[-0.006020000000717118,0.38590499999918393]",69,0,69,0,1,5f502659e156d519cef558b7,Mężczyzna,24,2021-07-13_21h21.42.896,rantool2,2021.1.4,Win32,56.39839829,5f502659e156d519cef558b7,60d9d14f4a8a35a482e0d9bf,60ede7b64b32b8c5ead7024b,,,,,,,,,,,,
"[""comma""]",0,[0.3002349999987928],70,0,70,0,1,5f502659e156d519cef558b7,Mężczyzna,24,2021-07-13_21h21.42.896,rantool2,2021.1.4,Win32,56.39839829,5f502659e156d519cef558b7,60d9d14f4a8a35a482e0d9bf,60ede7b64b32b8c5ead7024b,,,,,,,,,,,,
"[""period""]",0,[0.22463500000051795],71,0,71,0,1,5f502659e156d519cef558b7,Mężczyzna,24,2021-07-13_21h21.42.896,rantool2,2021.1.4,Win32,56.39839829,5f502659e156d519cef558b7,60d9d14f4a8a35a482e0d9bf,60ede7b64b32b8c5ead7024b,,,,,,,,,,,,
"[""comma""]",0,[0.3365899999989779],72,0,72,0,1,5f502659e156d519cef558b7,Mężczyzna,24,2021-07-13_21h21.42.896,rantool2,2021.1.4,Win32,56.39839829,5f502659e156d519cef558b7,60d9d14f4a8a35a482e0d9bf,60ede7b64b32b8c5ead7024b,,,,,,,,,,,,
"[""period""]",0,[0.3286049999987313],73,0,73,0,1,5f502659e156d519cef558b7,Mężczyzna,24,2021-07-13_21h21.42.896,rantool2,2021.1.4,Win32,56.39839829,5f502659e156d519cef558b7,60d9d14f4a8a35a482e0d9bf,60ede7b64b32b8c5ead7024b,,,,,,,,,,,,
"[""comma""]",0,[0.3455650000014714],74,0,74,0,1,5f502659e156d519cef558b7,Mężczyzna,24,2021-07-13_21h21.42.896,rantool2,2021.1.4,Win32,56.39839829,5f502659e156d519cef558b7,60d9d14f4a8a35a482e0d9bf,60ede7b64b32b8c5ead7024b,,,,,,,,,,,,
"[""period""]",0,[1.0165200000010373],75,0,75,0,1,5f502659e156d519cef558b7,Mężczyzna,24,2021-07-13_21h21.42.896,rantool2,2021.1.4,Win32,56.39839829,5f502659e156d519cef558b7,60d9d14f4a8a35a482e0d9bf,60ede7b64b32b8c5ead7024b,,,,,,,,,,,,
"[""comma""]",0,[0.39324499999929685],76,0,76,0,1,5f502659e156d519cef558b7,Mężczyzna,24,2021-07-13_21h21.42.896,rantool2,2021.1.4,Win32,56.39839829,5f502659e156d519cef558b7,60d9d14f4a8a35a482e0d9bf,60ede7b64b32b8c5ead7024b,,,,,,,,,,,,
"[""comma""]",0,[0.6249650000008558],77,0,77,0,1,5f502659e156d519cef558b7,Mężczyzna,24,2021-07-13_21h21.42.896,rantool2,2021.1.4,Win32,56.39839829,5f502659e156d519cef558b7,60d9d14f4a8a35a482e0d9bf,60ede7b64b32b8c5ead7024b,,,,,,,,,,,,
"[""period""]",0,[0.3612099999990619],78,0,78,0,1,5f502659e156d519cef558b7,Mężczyzna,24,2021-07-13_21h21.42.896,rantool2,2021.1.4,Win32,56.39839829,5f502659e156d519cef558b7,60d9d14f4a8a35a482e0d9bf,60ede7b64b32b8c5ead7024b,,,,,,,,,,,,
"[""comma""]",0,[0.3047900000001107],79,0,79,0,1,5f502659e156d519cef558b7,Mężczyzna,24,2021-07-13_21h21.42.896,rantool2,2021.1.4,Win32,56.39839829,5f502659e156d519cef558b7,60d9d14f4a8a35a482e0d9bf,60ede7b64b32b8c5ead7024b,,,,,,,,,,,,
"[""comma""]",0,[0.26733000000061224],80,0,80,0,1,5f502659e156d519cef558b7,Mężczyzna,24,2021-07-13_21h21.42.896,rantool2,2021.1.4,Win32,56.39839829,5f502659e156d519cef558b7,60d9d14f4a8a35a482e0d9bf,60ede7b64b32b8c5ead7024b,,,,,,,,,,,,
"[""period""]",0,[0.3206150000006005],81,0,81,0,1,5f502659e156d519cef558b7,Mężczyzna,24,2021-07-13_21h21.42.896,rantool2,2021.1.4,Win32,56.39839829,5f502659e156d519cef558b7,60d9d14f4a8a35a482e0d9bf,60ede7b64b32b8c5ead7024b,,,,,,,,,,,,
"[""comma""]",0,[0.26809500000123876],82,0,82,0,1,5f502659e156d519cef558b7,Mężczyzna,24,2021-07-13_21h21.42.896,rantool2,2021.1.4,Win32,56.39839829,5f502659e156d519cef558b7,60d9d14f4a8a35a482e0d9bf,60ede7b64b32b8c5ead7024b,,,,,,,,,,,,
"[""period""]",0,[0.30543000000034226],83,0,83,0,1,5f502659e156d519cef558b7,Mężczyzna,24,2021-07-13_21h21.42.896,rantool2,2021.1.4,Win32,56.39839829,5f502659e156d519cef558b7,60d9d14f4a8a35a482e0d9bf,60ede7b64b32b8c5ead7024b,,,,,,,,,,,,
"[""comma""]",0,[0.36916999999996847],84,0,84,0,1,5f502659e156d519cef558b7,Mężczyzna,24,2021-07-13_21h21.42.896,rantool2,2021.1.4,Win32,56.39839829,5f502659e156d519cef558b7,60d9d14f4a8a35a482e0d9bf,60ede7b64b32b8c5ead7024b,,,,,,,,,,,,
"[""period""]",0,[0.25618500000021527],85,0,85,0,1,5f502659e156d519cef558b7,Mężczyzna,24,2021-07-13_21h21.42.896,rantool2,2021.1.4,Win32,56.39839829,5f502659e156d519cef558b7,60d9d14f4a8a35a482e0d9bf,60ede7b64b32b8c5ead7024b,,,,,,,,,,,,
"[""period""]",0,[0.29782500000146683],86,0,86,0,1,5f502659e156d519cef558b7,Mężczyzna,24,2021-07-13_21h21.42.896,rantool2,2021.1.4,Win32,56.39839829,5f502659e156d519cef558b7,60d9d14f4a8a35a482e0d9bf,60ede7b64b32b8c5ead7024b,,,,,,,,,,,,
"[""comma""]",0,[0.3533200000001955],87,0,87,0,1,5f502659e156d519cef558b7,Mężczyzna,24,2021-07-13_21h21.42.896,rantool2,2021.1.4,Win32,56.39839829,5f502659e156d519cef558b7,60d9d14f4a8a35a482e0d9bf,60ede7b64b32b8c5ead7024b,,,,,,,,,,,,
"[""comma""]",0,[0.4581949999992503],88,0,88,0,1,5f502659e156d519cef558b7,Mężczyzna,24,2021-07-13_21h21.42.896,rantool2,2021.1.4,Win32,56.39839829,5f502659e156d519cef558b7,60d9d14f4a8a35a482e0d9bf,60ede7b64b32b8c5ead7024b,,,,,,,,,,,,
"[""period""]",0,[0.3869699999995646],89,0,89,0,1,5f502659e156d519cef558b7,Mężczyzna,24,2021-07-13_21h21.42.896,rantool2,2021.1.4,Win32,56.39839829,5f502659e156d519cef558b7,60d9d14f4a8a35a482e0d9bf,60ede7b64b32b8c5ead7024b,,,,,,,,,,,,
"[""comma""]",0,[0.45093000000085226],90,0,90,0,1,5f502659e156d519cef558b7,Mężczyzna,24,2021-07-13_21h21.42.896,rantool2,2021.1.4,Win32,56.39839829,5f502659e156d519cef558b7,60d9d14f4a8a35a482e0d9bf,60ede7b64b32b8c5ead7024b,,,,,,,,,,,,
"[""period""]",0,[0.38594999999992297],91,0,91,0,1,5f502659e156d519cef558b7,Mężczyzna,24,2021-07-13_21h21.42.896,rantool2,2021.1.4,Win32,56.39839829,5f502659e156d519cef558b7,60d9d14f4a8a35a482e0d9bf,60ede7b64b32b8c5ead7024b,,,,,,,,,,,,
"[""period""]",0,[0.4674799999993411],92,0,92,0,1,5f502659e156d519cef558b7,Mężczyzna,24,2021-07-13_21h21.42.896,rantool2,2021.1.4,Win32,56.39839829,5f502659e156d519cef558b7,60d9d14f4a8a35a482e0d9bf,60ede7b64b32b8c5ead7024b,,,,,,,,,,,,
"[""period""]",0,[0.38404500000072517],93,0,93,0,1,5f502659e156d519cef558b7,Mężczyzna,24,2021-07-13_21h21.42.896,rantool2,2021.1.4,Win32,56.39839829,5f502659e156d519cef558b7,60d9d14f4a8a35a482e0d9bf,60ede7b64b32b8c5ead7024b,,,,,,,,,,,,
"[""comma""]",0,[0.3522900000007496],94,0,94,0,1,5f502659e156d519cef558b7,Mężczyzna,24,2021-07-13_21h21.42.896,rantool2,2021.1.4,Win32,56.39839829,5f502659e156d519cef558b7,60d9d14f4a8a35a482e0d9bf,60ede7b64b32b8c5ead7024b,,,,,,,,,,,,
"[""comma""]",0,[0.3428249999997206],95,0,95,0,1,5f502659e156d519cef558b7,Mężczyzna,24,2021-07-13_21h21.42.896,rantool2,2021.1.4,Win32,56.39839829,5f502659e156d519cef558b7,60d9d14f4a8a35a482e0d9bf,60ede7b64b32b8c5ead7024b,,,,,,,,,,,,
"[""period""]",0,[0.4665150000000722],96,0,96,0,1,5f502659e156d519cef558b7,Mężczyzna,24,2021-07-13_21h21.42.896,rantool2,2021.1.4,Win32,56.39839829,5f502659e156d519cef558b7,60d9d14f4a8a35a482e0d9bf,60ede7b64b32b8c5ead7024b,,,,,,,,,,,,
"[""comma""]",0,[0.40645500000027823],97,0,97,0,1,5f502659e156d519cef558b7,Mężczyzna,24,2021-07-13_21h21.42.896,rantool2,2021.1.4,Win32,56.39839829,5f502659e156d519cef558b7,60d9d14f4a8a35a482e0d9bf,60ede7b64b32b8c5ead7024b,,,,,,,,,,,,
"[""comma""]",0,[0.3757999999997992],98,0,98,0,1,5f502659e156d519cef558b7,Mężczyzna,24,2021-07-13_21h21.42.896,rantool2,2021.1.4,Win32,56.39839829,5f502659e156d519cef558b7,60d9d14f4a8a35a482e0d9bf,60ede7b64b32b8c5ead7024b,,,,,,,,,,,,
"[""period""]",0,[0.351520000000221],99,0,99,0,1,5f502659e156d519cef558b7,Mężczyzna,24,2021-07-13_21h21.42.896,rantool2,2021.1.4,Win32,56.39839829,5f502659e156d519cef558b7,60d9d14f4a8a35a482e0d9bf,60ede7b64b32b8c5ead7024b,,,,,,,,,,,,
"[""period""]",0,[0.38435000000026776],100,0,100,0,1,5f502659e156d519cef558b7,Mężczyzna,24,2021-07-13_21h21.42.896,rantool2,2021.1.4,Win32,56.39839829,5f502659e156d519cef558b7,60d9d14f4a8a35a482e0d9bf,60ede7b64b32b8c5ead7024b,,,,,,,,,,,,
"[""comma""]",0,[0.2711699999999837],101,0,101,0,1,5f502659e156d519cef558b7,Mężczyzna,24,2021-07-13_21h21.42.896,rantool2,2021.1.4,Win32,56.39839829,5f502659e156d519cef558b7,60d9d14f4a8a35a482e0d9bf,60ede7b64b32b8c5ead7024b,,,,,,,,,,,,
"[""comma""]",0,[0.2951050000010582],102,0,102,0,1,5f502659e156d519cef558b7,Mężczyzna,24,2021-07-13_21h21.42.896,rantool2,2021.1.4,Win32,56.39839829,5f502659e156d519cef558b7,60d9d14f4a8a35a482e0d9bf,60ede7b64b32b8c5ead7024b,,,,,,,,,,,,
"[""period""]",0,[0.3188000000009197],103,0,103,0,1,5f502659e156d519cef558b7,Mężczyzna,24,2021-07-13_21h21.42.896,rantool2,2021.1.4,Win32,56.39839829,5f502659e156d519cef558b7,60d9d14f4a8a35a482e0d9bf,60ede7b64b32b8c5ead7024b,,,,,,,,,,,,
"[""comma""]",0,[0.3749599999991915],104,0,104,0,1,5f502659e156d519cef558b7,Mężczyzna,24,2021-07-13_21h21.42.896,rantool2,2021.1.4,Win32,56.39839829,5f502659e156d519cef558b7,60d9d14f4a8a35a482e0d9bf,60ede7b64b32b8c5ead7024b,,,,,,,,,,,,
"[""period""]",0,[0.32653999999996586],105,0,105,0,1,5f502659e156d519cef558b7,Mężczyzna,24,2021-07-13_21h21.42.896,rantool2,2021.1.4,Win32,56.39839829,5f502659e156d519cef558b7,60d9d14f4a8a35a482e0d9bf,60ede7b64b32b8c5ead7024b,,,,,,,,,,,,
"[""comma""]",0,[0.2863500000003114],106,0,106,0,1,5f502659e156d519cef558b7,Mężczyzna,24,2021-07-13_21h21.42.896,rantool2,2021.1.4,Win32,56.39839829,5f502659e156d519cef558b7,60d9d14f4a8a35a482e0d9bf,60ede7b64b32b8c5ead7024b,,,,,,,,,,,,
"[""period""]",0,[0.3744950000000813],107,0,107,0,1,5f502659e156d519cef558b7,Mężczyzna,24,2021-07-13_21h21.42.896,rantool2,2021.1.4,Win32,56.39839829,5f502659e156d519cef558b7,60d9d14f4a8a35a482e0d9bf,60ede7b64b32b8c5ead7024b,,,,,,,,,,,,
"[""comma""]",0,[0.2703700000001845],108,0,108,0,1,5f502659e156d519cef558b7,Mężczyzna,24,2021-07-13_21h21.42.896,rantool2,2021.1.4,Win32,56.39839829,5f502659e156d519cef558b7,60d9d14f4a8a35a482e0d9bf,60ede7b64b32b8c5ead7024b,,,,,,,,,,,,
"[""comma""]",0,[0.3182250000008935],109,0,109,0,1,5f502659e156d519cef558b7,Mężczyzna,24,2021-07-13_21h21.42.896,rantool2,2021.1.4,Win32,56.39839829,5f502659e156d519cef558b7,60d9d14f4a8a35a482e0d9bf,60ede7b64b32b8c5ead7024b,,,,,,,,,,,,
"[""period""]",0,[0.32637499999867714],110,0,110,0,1,5f502659e156d519cef558b7,Mężczyzna,24,2021-07-13_21h21.42.896,rantool2,2021.1.4,Win32,56.39839829,5f502659e156d519cef558b7,60d9d14f4a8a35a482e0d9bf,60ede7b64b32b8c5ead7024b,,,,,,,,,,,,
"[""comma""]",0,[0.3751150000007897],111,0,111,0,1,5f502659e156d519cef558b7,Mężczyzna,24,2021-07-13_21h21.42.896,rantool2,2021.1.4,Win32,56.39839829,5f502659e156d519cef558b7,60d9d14f4a8a35a482e0d9bf,60ede7b64b32b8c5ead7024b,,,,,,,,,,,,
"[""period""]",0,[0.3029850000002057],112,0,112,0,1,5f502659e156d519cef558b7,Mężczyzna,24,2021-07-13_21h21.42.896,rantool2,2021.1.4,Win32,56.39839829,5f502659e156d519cef558b7,60d9d14f4a8a35a482e0d9bf,60ede7b64b32b8c5ead7024b,,,,,,,,,,,,
"[""comma""]",0,[0.26744999999937136],113,0,113,0,1,5f502659e156d519cef558b7,Mężczyzna,24,2021-07-13_21h21.42.896,rantool2,2021.1.4,Win32,56.39839829,5f502659e156d519cef558b7,60d9d14f4a8a35a482e0d9bf,60ede7b64b32b8c5ead7024b,,,,,,,,,,,,
"[""comma""]",0,[0.2551000000003114],114,0,114,0,1,5f502659e156d519cef558b7,Mężczyzna,24,2021-07-13_21h21.42.896,rantool2,2021.1.4,Win32,56.39839829,5f502659e156d519cef558b7,60d9d14f4a8a35a482e0d9bf,60ede7b64b32b8c5ead7024b,,,,,,,,,,,,
"[""period""]",0,[0.3105749999995169],115,0,115,0,1,5f502659e156d519cef558b7,Mężczyzna,24,2021-07-13_21h21.42.896,rantool2,2021.1.4,Win32,56.39839829,5f502659e156d519cef558b7,60d9d14f4a8a35a482e0d9bf,60ede7b64b32b8c5ead7024b,,,,,,,,,,,,
"[""comma""]",0,[0.27876500000093074],116,0,116,0,1,5f502659e156d519cef558b7,Mężczyzna,24,2021-07-13_21h21.42.896,rantool2,2021.1.4,Win32,56.39839829,5f502659e156d519cef558b7,60d9d14f4a8a35a482e0d9bf,60ede7b64b32b8c5ead7024b,,,,,,,,,,,,
"[""period""]",0,[0.30254000000064707],117,0,117,0,1,5f502659e156d519cef558b7,Mężczyzna,24,2021-07-13_21h21.42.896,rantool2,2021.1.4,Win32,56.39839829,5f502659e156d519cef558b7,60d9d14f4a8a35a482e0d9bf,60ede7b64b32b8c5ead7024b,,,,,,,,,,,,
"[""comma""]",0,[0.33337500000016007],118,0,118,0,1,5f502659e156d519cef558b7,Mężczyzna,24,2021-07-13_21h21.42.896,rantool2,2021.1.4,Win32,56.39839829,5f502659e156d519cef558b7,60d9d14f4a8a35a482e0d9bf,60ede7b64b32b8c5ead7024b,,,,,,,,,,,,
"[""period""]",0,[0.3020649999998568],119,0,119,0,1,5f502659e156d519cef558b7,Mężczyzna,24,2021-07-13_21h21.42.896,rantool2,2021.1.4,Win32,56.39839829,5f502659e156d519cef558b7,60d9d14f4a8a35a482e0d9bf,60ede7b64b32b8c5ead7024b,,,,,,,,,,,,
,,,,,,,,5f502659e156d519cef558b7,Mężczyzna,24,2021-07-13_21h21.42.896,rantool2,2021.1.4,Win32,56.39839829,5f502659e156d519cef558b7,60d9d14f4a8a35a482e0d9bf,60ede7b64b32b8c5ead7024b,f,1.17513,0,0,0,59,1,RRRORRO,RRRORRR,21.56657303,20.89823192,series_0
,,,,,,,,5f502659e156d519cef558b7,Mężczyzna,24,2021-07-13_21h21.42.896,rantool2,2021.1.4,Win32,56.39839829,5f502659e156d519cef558b7,60d9d14f4a8a35a482e0d9bf,60ede7b64b32b8c5ead7024b,j,1.133505,0,1,1,27,1,ORRORRO,ORRORRR,21.55250791,22.2428857,series_1
,,,,,,,,5f502659e156d519cef558b7,Mężczyzna,24,2021-07-13_21h21.42.896,rantool2,2021.1.4,Win32,56.39839829,5f502659e156d519cef558b7,60d9d14f4a8a35a482e0d9bf,60ede7b64b32b8c5ead7024b,j,1.313405,0,2,2,16,1,OROOOOO,OROOOOR,20.43051175,21.17347734,series_1
,,,,,,,,5f502659e156d519cef558b7,Mężczyzna,24,2021-07-13_21h21.42.896,rantool2,2021.1.4,Win32,56.39839829,5f502659e156d519cef558b7,60d9d14f4a8a35a482e0d9bf,60ede7b64b32b8c5ead7024b,f,1.124185,0,3,3,52,1,RROROOO,RROROOR,22.18365867,22.11097995,series_0
,,,,,,,,5f502659e156d519cef558b7,Mężczyzna,24,2021-07-13_21h21.42.896,rantool2,2021.1.4,Win32,56.39839829,5f502659e156d519cef558b7,60d9d14f4a8a35a482e0d9bf,60ede7b64b32b8c5ead7024b,j,1.294125,0,4,4,40,1,ROROOOO,ROROOOR,20.87963819,21.37121559,series_1
,,,,,,,,5f502659e156d519cef558b7,Mężczyzna,24,2021-07-13_21h21.42.896,rantool2,2021.1.4,Win32,56.39839829,5f502659e156d519cef558b7,60d9d14f4a8a35a482e0d9bf,60ede7b64b32b8c5ead7024b,f,1.25055,0,5,5,28,1,ORRROOO,ORRROOR,22.24142883,22.53364006,series_1
,,,,,,,,5f502659e156d519cef558b7,Mężczyzna,24,2021-07-13_21h21.42.896,rantool2,2021.1.4,Win32,56.39839829,5f502659e156d519cef558b7,60d9d14f4a8a35a482e0d9bf,60ede7b64b32b8c5ead7024b,j,1.36745,0,6,6,38,1,ROORROO,ROORROR,21.79500819,21.36812781,series_0
,,,,,,,,5f502659e156d519cef558b7,Mężczyzna,24,2021-07-13_21h21.42.896,rantool2,2021.1.4,Win32,56.39839829,5f502659e156d519cef558b7,60d9d14f4a8a35a482e0d9bf,60ede7b64b32b8c5ead7024b,f,1.13335,0,7,7,56,1,RRROOOO,RRROOOR,21.6194508,22.31681875,series_1
,,,,,,,,5f502659e156d519cef558b7,Mężczyzna,24,2021-07-13_21h21.42.896,rantool2,2021.1.4,Win32,56.39839829,5f502659e156d519cef558b7,60d9d14f4a8a35a482e0d9bf,60ede7b64b32b8c5ead7024b,j,0.96794,0,8,8,15,1,OORRRRO,OORRRRR,22.10108823,21.74922619,series_0
,,,,,,,,5f502659e156d519cef558b7,Mężczyzna,24,2021-07-13_21h21.42.896,rantool2,2021.1.4,Win32,56.39839829,5f502659e156d519cef558b7,60d9d14f4a8a35a482e0d9bf,60ede7b64b32b8c5ead7024b,f,1.07992,0,9,9,57,1,RRROORO,RRROORR,21.82425538,22.07102821,series_1
,,,,,,,,5f502659e156d519cef558b7,Mężczyzna,24,2021-07-13_21h21.42.896,rantool2,2021.1.4,Win32,56.39839829,5f502659e156d519cef558b7,60d9d14f4a8a35a482e0d9bf,60ede7b64b32b8c5ead7024b,j,0.92366,0,10,10,50,1,RROOROO,RROOROR,21.73568164,22.02566557,series_1
,,,,,,,,5f502659e156d519cef558b7,Mężczyzna,24,2021-07-13_21h21.42.896,rantool2,2021.1.4,Win32,56.39839829,5f502659e156d519cef558b7,60d9d14f4a8a35a482e0d9bf,60ede7b64b32b8c5ead7024b,f,1.050005,0,11,11,44,1,RORROOO,RORROOR,21.66733484,22.02566557,series_1
,,,,,,,,5f502659e156d519cef558b7,Mężczyzna,24,2021-07-13_21h21.42.896,rantool2,2021.1.4,Win32,56.39839829,5f502659e156d519cef558b7,60d9d14f4a8a35a482e0d9bf,60ede7b64b32b8c5ead7024b,j,0.954625,0,12,12,6,1,OOORROO,OOORROR,21.12383932,21.38562617,series_1
,,,,,,,,5f502659e156d519cef558b7,Mężczyzna,24,2021-07-13_21h21.42.896,rantool2,2021.1.4,Win32,56.39839829,5f502659e156d519cef558b7,60d9d14f4a8a35a482e0d9bf,60ede7b64b32b8c5ead7024b,j,1.338565,0,13,13,37,1,ROORORO,ROORORR,20.42602454,21.57657071,series_1
,,,,,,,,5f502659e156d519cef558b7,Mężczyzna,24,2021-07-13_21h21.42.896,rantool2,2021.1.4,Win32,56.39839829,5f502659e156d519cef558b7,60d9d14f4a8a35a482e0d9bf,60ede7b64b32b8c5ead7024b,j,3.44454,0,14,14,13,1,OORRORO,OORRORR,21.66733484,22.11181017,series_1
,,,,,,,,5f502659e156d519cef558b7,Mężczyzna,24,2021-07-13_21h21.42.896,rantool2,2021.1.4,Win32,56.39839829,5f502659e156d519cef558b7,60d9d14f4a8a35a482e0d9bf,60ede7b64b32b8c5ead7024b,f,1.61752,0,15,15,4,1,OOOROOO,OOOROOR,19.91402015,21.21223021,series_1
,,,,,,,,5f502659e156d519cef558b7,Mężczyzna,24,2021-07-13_21h21.42.896,rantool2,2021.1.4,Win32,56.39839829,5f502659e156d519cef558b7,60d9d14f4a8a35a482e0d9bf,60ede7b64b32b8c5ead7024b,j,1.19112,0,16,16,55,1,RRORRRO,RRORRRR,21.56657303,21.21223021,series_0
,,,,,,,,5f502659e156d519cef558b7,Mężczyzna,24,2021-07-13_21h21.42.896,rantool2,2021.1.4,Win32,56.39839829,5f502659e156d519cef558b7,60d9d14f4a8a35a482e0d9bf,60ede7b64b32b8c5ead7024b,f,1.375185,0,17,17,47,1,RORRRRO,RORRRRR,21.81333602,21.02936224,series_0
,,,,,,,,5f502659e156d519cef558b7,Mężczyzna,24,2021-07-13_21h21.42.896,rantool2,2021.1.4,Win32,56.39839829,5f502659e156d519cef558b7,60d9d14f4a8a35a482e0d9bf,60ede7b64b32b8c5ead7024b,f,1.817385,0,18,18,9,1,OOROORO,OOROORR,21.07991943,22.2428857,series_1
,,,,,,,,5f502659e156d519cef558b7,Mężczyzna,24,2021-07-13_21h21.42.896,rantool2,2021.1.4,Win32,56.39839829,5f502659e156d519cef558b7,60d9d14f4a8a35a482e0d9bf,60ede7b64b32b8c5ead7024b,j,0.925015,0,19,19,42,1,ROROROO,ROROROR,20.39515459,19.8361834,series_0
,,,,,,,,5f502659e156d519cef558b7,Mężczyzna,24,2021-07-13_21h21.42.896,rantool2,2021.1.4,Win32,56.39839829,5f502659e156d519cef558b7,60d9d14f4a8a35a482e0d9bf,60ede7b64b32b8c5ead7024b,j,1.08687,0,20,20,35,1,ROOORRO,ROOORRR,21.76276513,22.16977179,series_1
,,,,,,,,5f502659e156d519cef558b7,Mężczyzna,24,2021-07-13_21h21.42.896,rantool2,2021.1.4,Win32,56.39839829,5f502659e156d519cef558b7,60d9d14f4a8a35a482e0d9bf,60ede7b64b32b8c5ead7024b,f,1.024645,0,21,21,2,1,OOOOROO,OOOOROR,20.43051175,21.02936224,series_1
,,,,,,,,5f502659e156d519cef558b7,Mężczyzna,24,2021-07-13_21h21.42.896,rantool2,2021.1.4,Win32,56.39839829,5f502659e156d519cef558b7,60d9d14f4a8a35a482e0d9bf,60ede7b64b32b8c5ead7024b,j,0.73366,0,22,22,34,1,ROOOROO,ROOOROR,21.03750787,21.24781509,series_1
,,,,,,,,5f502659e156d519cef558b7,Mężczyzna,24,2021-07-13_21h21.42.896,rantool2,2021.1.4,Win32,56.39839829,5f502659e156d519cef558b7,60d9d14f4a8a35a482e0d9bf,60ede7b64b32b8c5ead7024b,f,1.48353,0,23,23,63,1,RRRRRRO,RRRRRRR,21.35278725,19.62521613,series_0
,,,,,,,,5f502659e156d519cef558b7,Mężczyzna,24,2021-07-13_21h21.42.896,rantool2,2021.1.4,Win32,56.39839829,5f502659e156d519cef558b7,60d9d14f4a8a35a482e0d9bf,60ede7b64b32b8c5ead7024b,j,1.26991,0,24,24,33,1,ROOOORO,ROOOORR,20.83779602,22.03072203,series_1
,,,,,,,,5f502659e156d519cef558b7,Mężczyzna,24,2021-07-13_21h21.42.896,rantool2,2021.1.4,Win32,56.39839829,5f502659e156d519cef558b7,60d9d14f4a8a35a482e0d9bf,60ede7b64b32b8c5ead7024b,j,1.250455,0,25,25,7,1,OOORRRO,OOORRRR,21.6194508,21.899017,series_1
,,,,,,,,5f502659e156d519cef558b7,Mężczyzna,24,2021-07-13_21h21.42.896,rantool2,2021.1.4,Win32,56.39839829,5f502659e156d519cef558b7,60d9d14f4a8a35a482e0d9bf,60ede7b64b32b8c5ead7024b,f,0.783455,0,26,26,49,1,RROOORO,RROOORR,21.76276513,22.53364006,series_1
,,,,,,,,5f502659e156d519cef558b7,Mężczyzna,24,2021-07-13_21h21.42.896,rantool2,2021.1.4,Win32,56.39839829,5f502659e156d519cef558b7,60d9d14f4a8a35a482e0d9bf,60ede7b64b32b8c5ead7024b,j,0.57436,0,27,27,53,1,RRORORO,RRORORR,20.71309134,21.90565814,series_1
,,,,,,,,5f502659e156d519cef558b7,Mężczyzna,24,2021-07-13_21h21.42.896,rantool2,2021.1.4,Win32,56.39839829,5f502659e156d519cef558b7,60d9d14f4a8a35a482e0d9bf,60ede7b64b32b8c5ead7024b,f,0.617505,0,28,28,5,1,OOORORO,OOORORR,20.87963819,21.9921709,series_1
,,,,,,,,5f502659e156d519cef558b7,Mężczyzna,24,2021-07-13_21h21.42.896,rantool2,2021.1.4,Win32,56.39839829,5f502659e156d519cef558b7,60d9d14f4a8a35a482e0d9bf,60ede7b64b32b8c5ead7024b,j,0.46136,0,29,29,58,1,RRROROO,RRROROR,22.1285618,21.37121559,series_0
,,,,,,,,5f502659e156d519cef558b7,Mężczyzna,24,2021-07-13_21h21.42.896,rantool2,2021.1.4,Win32,56.39839829,5f502659e156d519cef558b7,60d9d14f4a8a35a482e0d9bf,60ede7b64b32b8c5ead7024b,f,0.650165,0,30,30,31,1,ORRRRRO,ORRRRRR,22.16413392,20.74050628,series_0
,,,,,,,,5f502659e156d519cef558b7,Mężczyzna,24,2021-07-13_21h21.42.896,rantool2,2021.1.4,Win32,56.39839829,5f502659e156d519cef558b7,60d9d14f4a8a35a482e0d9bf,60ede7b64b32b8c5ead7024b,f,0.80054,0,31,31,62,1,RRRRROO,RRRRROR,22.16413392,21.27974287,series_0
,,,,,,,,5f502659e156d519cef558b7,Mężczyzna,24,2021-07-13_21h21.42.896,rantool2,2021.1.4,Win32,56.39839829,5f502659e156d519cef558b7,60d9d14f4a8a35a482e0d9bf,60ede7b64b32b8c5ead7024b,f,0.8383,0,32,32,22,1,ORORROO,ORORROR,22.02732763,21.57657071,series_0
,,,,,,,,5f502659e156d519cef558b7,Mężczyzna,24,2021-07-13_21h21.42.896,rantool2,2021.1.4,Win32,56.39839829,5f502659e156d519cef558b7,60d9d14f4a8a35a482e0d9bf,60ede7b64b32b8c5ead7024b,j,0.83634,0,33,33,18,1,OROOROO,OROOROR,20.84860893,21.22513037,series_1
,,,,,,,,5f502659e156d519cef558b7,Mężczyzna,24,2021-07-13_21h21.42.896,rantool2,2021.1.4,Win32,56.39839829,5f502659e156d519cef558b7,60d9d14f4a8a35a482e0d9bf,60ede7b64b32b8c5ead7024b,f,1.06746,0,34,34,46,1,RORRROO,RORRROR,22.00300695,21.24781509,series_0
,,,,,,,,5f502659e156d519cef558b7,Mężczyzna,24,2021-07-13_21h21.42.896,rantool2,2021.1.4,Win32,56.39839829,5f502659e156d519cef558b7,60d9d14f4a8a35a482e0d9bf,60ede7b64b32b8c5ead7024b,j,1.261015,0,35,35,45,1,RORRORO,RORRORR,20.78182524,21.22513037,series_1
,,,,,,,,5f502659e156d519cef558b7,Mężczyzna,24,2021-07-13_21h21.42.896,rantool2,2021.1.4,Win32,56.39839829,5f502659e156d519cef558b7,60d9d14f4a8a35a482e0d9bf,60ede7b64b32b8c5ead7024b,j,1.138195,0,36,36,61,1,RRRRORO,RRRRORR,21.81333602,21.17347734,series_0
,,,,,,,,5f502659e156d519cef558b7,Mężczyzna,24,2021-07-13_21h21.42.896,rantool2,2021.1.4,Win32,56.39839829,5f502659e156d519cef558b7,60d9d14f4a8a35a482e0d9bf,60ede7b64b32b8c5ead7024b,j,1.434675,0,37,37,32,1,ROOOOOO,ROOOOOR,19.92253567,21.27974287,series_1
,,,,,,,,5f502659e156d519cef558b7,Mężczyzna,24,2021-07-13_21h21.42.896,rantool2,2021.1.4,Win32,56.39839829,5f502659e156d519cef558b7,60d9d14f4a8a35a482e0d9bf,60ede7b64b32b8c5ead7024b,j,0.96104,0,38,38,30,1,ORRRROO,ORRRROR,22.46748491,22.03072203,series_0
,,,,,,,,5f502659e156d519cef558b7,Mężczyzna,24,2021-07-13_21h21.42.896,rantool2,2021.1.4,Win32,56.39839829,5f502659e156d519cef558b7,60d9d14f4a8a35a482e0d9bf,60ede7b64b32b8c5ead7024b,j,1.072955,0,39,39,11,1,OORORRO,OORORRR,22.18365867,22.6797523,series_1
,,,,,,,,5f502659e156d519cef558b7,Mężczyzna,24,2021-07-13_21h21.42.896,rantool2,2021.1.4,Win32,56.39839829,5f502659e156d519cef558b7,60d9d14f4a8a35a482e0d9bf,60ede7b64b32b8c5ead7024b,j,1.116715,0,40,40,20,1,OROROOO,OROROOR,21.31236711,21.90565814,series_1
,,,,,,,,5f502659e156d519cef558b7,Mężczyzna,24,2021-07-13_21h21.42.896,rantool2,2021.1.4,Win32,56.39839829,5f502659e156d519cef558b7,60d9d14f4a8a35a482e0d9bf,60ede7b64b32b8c5ead7024b,f,1.207775,0,41,41,48,1,RROOOOO,RROOOOR,20.90986523,22.15934078,series_1
,,,,,,,,5f502659e156d519cef558b7,Mężczyzna,24,2021-07-13_21h21.42.896,rantool2,2021.1.4,Win32,56.39839829,5f502659e156d519cef558b7,60d9d14f4a8a35a482e0d9bf,60ede7b64b32b8c5ead7024b,j,1.126665,0,42,42,51,1,RROORRO,RROORRR,21.89852628,22.02786418,series_1
,,,,,,,,5f502659e156d519cef558b7,Mężczyzna,24,2021-07-13_21h21.42.896,rantool2,2021.1.4,Win32,56.39839829,5f502659e156d519cef558b7,60d9d14f4a8a35a482e0d9bf,60ede7b64b32b8c5ead7024b,j,1.4506,0,43,43,43,1,RORORRO,RORORRR,20.71309134,21.07490964,series_1
,,,,,,,,5f502659e156d519cef558b7,Mężczyzna,24,2021-07-13_21h21.42.896,rantool2,2021.1.4,Win32,56.39839829,5f502659e156d519cef558b7,60d9d14f4a8a35a482e0d9bf,60ede7b64b32b8c5ead7024b,j,1.750475,0,44,44,3,1,OOOORRO,OOOORRR,20.90986523,21.74922619,series_1
,,,,,,,,5f502659e156d519cef558b7,Mężczyzna,24,2021-07-13_21h21.42.896,rantool2,2021.1.4,Win32,56.39839829,5f502659e156d519cef558b7,60d9d14f4a8a35a482e0d9bf,60ede7b64b32b8c5ead7024b,f,1.13332,0,45,45,26,1,ORROROO,ORROROR,22.02732763,21.71443381,series_0
,,,,,,,,5f502659e156d519cef558b7,Mężczyzna,24,2021-07-13_21h21.42.896,rantool2,2021.1.4,Win32,56.39839829,5f502659e156d519cef558b7,60d9d14f4a8a35a482e0d9bf,60ede7b64b32b8c5ead7024b,j,0.733155,0,46,46,39,1,ROORRRO,ROORRRR,21.82425538,21.38562617,series_0
,,,,,,,,5f502659e156d519cef558b7,Mężczyzna,24,2021-07-13_21h21.42.896,rantool2,2021.1.4,Win32,56.39839829,5f502659e156d519cef558b7,60d9d14f4a8a35a482e0d9bf,60ede7b64b32b8c5ead7024b,j,1.386305,0,47,47,12,1,OORROOO,OORROOR,21.30250474,22.02786418,series_1
,,,,,,,,5f502659e156d519cef558b7,Mężczyzna,24,2021-07-13_21h21.42.896,rantool2,2021.1.4,Win32,56.39839829,5f502659e156d519cef558b7,60d9d14f4a8a35a482e0d9bf,60ede7b64b32b8c5ead7024b,f,0.969205,0,48,48,23,1,ORORRRO,ORORRRR,22.1285618,21.9921709,series_0
,,,,,,,,5f502659e156d519cef558b7,Mężczyzna,24,2021-07-13_21h21.42.896,rantool2,2021.1.4,Win32,56.39839829,5f502659e156d519cef558b7,60d9d14f4a8a35a482e0d9bf,60ede7b64b32b8c5ead7024b,f,1.185195,0,49,49,0,1,OOOOOOO,OOOOOOR,18.52739004,19.62521613,series_1
,,,,,,,,5f502659e156d519cef558b7,Mężczyzna,24,2021-07-13_21h21.42.896,rantool2,2021.1.4,Win32,56.39839829,5f502659e156d519cef558b7,60d9d14f4a8a35a482e0d9bf,60ede7b64b32b8c5ead7024b,j,1.105025,0,50,50,19,1,OROORRO,OROORRR,21.73568164,22.11181017,series_1
,,,,,,,,5f502659e156d519cef558b7,Mężczyzna,24,2021-07-13_21h21.42.896,rantool2,2021.1.4,Win32,56.39839829,5f502659e156d519cef558b7,60d9d14f4a8a35a482e0d9bf,60ede7b64b32b8c5ead7024b,f,0.83508,0,51,51,36,1,ROOROOO,ROOROOR,21.07991943,20.9984461,series_0
,,,,,,,,5f502659e156d519cef558b7,Mężczyzna,24,2021-07-13_21h21.42.896,rantool2,2021.1.4,Win32,56.39839829,5f502659e156d519cef558b7,60d9d14f4a8a35a482e0d9bf,60ede7b64b32b8c5ead7024b,f,1.183405,0,52,52,54,1,RRORROO,RRORROR,21.55250791,20.9984461,series_0
,,,,,,,,5f502659e156d519cef558b7,Mężczyzna,24,2021-07-13_21h21.42.896,rantool2,2021.1.4,Win32,56.39839829,5f502659e156d519cef558b7,60d9d14f4a8a35a482e0d9bf,60ede7b64b32b8c5ead7024b,j,0.683355,0,53,53,25,1,ORROORO,ORROORR,21.79500819,22.61624387,series_1
,,,,,,,,5f502659e156d519cef558b7,Mężczyzna,24,2021-07-13_21h21.42.896,rantool2,2021.1.4,Win32,56.39839829,5f502659e156d519cef558b7,60d9d14f4a8a35a482e0d9bf,60ede7b64b32b8c5ead7024b,f,0.80522,0,54,54,24,1,ORROOOO,ORROOOR,21.12383932,22.07102821,series_1
,,,,,,,,5f502659e156d519cef558b7,Mężczyzna,24,2021-07-13_21h21.42.896,rantool2,2021.1.4,Win32,56.39839829,5f502659e156d519cef558b7,60d9d14f4a8a35a482e0d9bf,60ede7b64b32b8c5ead7024b,j,0.65196,0,55,55,1,1,OOOOORO,OOOOORR,19.92253567,20.74050628,series_1
,,,,,,,,5f502659e156d519cef558b7,Mężczyzna,24,2021-07-13_21h21.42.896,rantool2,2021.1.4,Win32,56.39839829,5f502659e156d519cef558b7,60d9d14f4a8a35a482e0d9bf,60ede7b64b32b8c5ead7024b,f,0.712695,0,56,56,21,1,ORORORO,ORORORR,20.39515459,22.06781359,series_1
,,,,,,,,5f502659e156d519cef558b7,Mężczyzna,24,2021-07-13_21h21.42.896,rantool2,2021.1.4,Win32,56.39839829,5f502659e156d519cef558b7,60d9d14f4a8a35a482e0d9bf,60ede7b64b32b8c5ead7024b,j,0.72388,0,57,57,10,1,OOROROO,OOROROR,21.31236711,21.07490964,series_0
,,,,,,,,5f502659e156d519cef558b7,Mężczyzna,24,2021-07-13_21h21.42.896,rantool2,2021.1.4,Win32,56.39839829,5f502659e156d519cef558b7,60d9d14f4a8a35a482e0d9bf,60ede7b64b32b8c5ead7024b,f,0.63786,0,58,58,17,1,OROOORO,OROOORR,21.03750787,22.12173012,series_1
,,,,,,,,5f502659e156d519cef558b7,Mężczyzna,24,2021-07-13_21h21.42.896,rantool2,2021.1.4,Win32,56.39839829,5f502659e156d519cef558b7,60d9d14f4a8a35a482e0d9bf,60ede7b64b32b8c5ead7024b,j,0.917435,0,59,59,8,1,OOROOOO,OOROOOR,19.91402015,20.89823192,series_1
,,,,,,,,5f502659e156d519cef558b7,Mężczyzna,24,2021-07-13_21h21.42.896,rantool2,2021.1.4,Win32,56.39839829,5f502659e156d519cef558b7,60d9d14f4a8a35a482e0d9bf,60ede7b64b32b8c5ead7024b,f,0.55663,0,60,60,60,1,RRRROOO,RRRROOR,22.10108823,22.15934078,series_1
,,,,,,,,5f502659e156d519cef558b7,Mężczyzna,24,2021-07-13_21h21.42.896,rantool2,2021.1.4,Win32,56.39839829,5f502659e156d519cef558b7,60d9d14f4a8a35a482e0d9bf,60ede7b64b32b8c5ead7024b,j,1.069585,0,61,61,41,1,ROROORO,ROROORR,20.42602454,21.71443381,series_1
,,,,,,,,5f502659e156d519cef558b7,Mężczyzna,24,2021-07-13_21h21.42.896,rantool2,2021.1.4,Win32,56.39839829,5f502659e156d519cef558b7,60d9d14f4a8a35a482e0d9bf,60ede7b64b32b8c5ead7024b,f,1.16742,0,62,62,29,1,ORRRORO,ORRRORR,22.00300695,22.12173012,series_1
,,,,,,,,5f502659e156d519cef558b7,Mężczyzna,24,2021-07-13_21h21.42.896,rantool2,2021.1.4,Win32,56.39839829,5f502659e156d519cef558b7,60d9d14f4a8a35a482e0d9bf,60ede7b64b32b8c5ead7024b,j,0.68331,0,63,63,14,1,OORRROO,OORRROR,22.24142883,22.16977179,series_0
