key_resp_5.keys,key_resp_5.corr,key_resp_5.rt,trials.thisRepN,trials.thisTrialN,trials.thisN,trials.thisIndex,trials.ran,id*,Płeć*,Wiek*,date,expName,psychopyVersion,OS,frameRate,id,STUDY_ID,SESSION_ID,key_resp_7.keys,key_resp_7.rt,trials_2.thisRepN,trials_2.thisTrialN,trials_2.thisN,trials_2.thisIndex,trials_2.ran,series_0,series_1,acss_0,acss_1,comparison
"[""comma""]",0,[1.1770000000000067],0,0,0,0,1,605b4d0e89f870e108c5daa3,Mężczyzna,18,2021-07-13_22h06.17.549,rantool2,2021.1.4,Win32,144.092219,605b4d0e89f870e108c5daa3,60d9d14f4a8a35a482e0d9bf,60edf01746ddd9a8f4e7a71c,,,,,,,,,,,,
"[""period""]",0,[0.8419999999999987],1,0,1,0,1,605b4d0e89f870e108c5daa3,Mężczyzna,18,2021-07-13_22h06.17.549,rantool2,2021.1.4,Win32,144.092219,605b4d0e89f870e108c5daa3,60d9d14f4a8a35a482e0d9bf,60edf01746ddd9a8f4e7a71c,,,,,,,,,,,,
"[""period""]",0,[0.47400000000000375],2,0,2,0,1,605b4d0e89f870e108c5daa3,Mężczyzna,18,2021-07-13_22h06.17.549,rantool2,2021.1.4,Win32,144.092219,605b4d0e89f870e108c5daa3,60d9d14f4a8a35a482e0d9bf,60edf01746ddd9a8f4e7a71c,,,,,,,,,,,,
"[""period""]",0,[0.27899999999999636],3,0,3,0,1,605b4d0e89f870e108c5daa3,Mężczyzna,18,2021-07-13_22h06.17.549,rantool2,2021.1.4,Win32,144.092219,605b4d0e89f870e108c5daa3,60d9d14f4a8a35a482e0d9bf,60edf01746ddd9a8f4e7a71c,,,,,,,,,,,,
"[""comma""]",0,[0.22299999999998477],4,0,4,0,1,605b4d0e89f870e108c5daa3,Mężczyzna,18,2021-07-13_22h06.17.549,rantool2,2021.1.4,Win32,144.092219,605b4d0e89f870e108c5daa3,60d9d14f4a8a35a482e0d9bf,60edf01746ddd9a8f4e7a71c,,,,,,,,,,,,
"[""period""]",0,[0.40699999999998226],5,0,5,0,1,605b4d0e89f870e108c5daa3,Mężczyzna,18,2021-07-13_22h06.17.549,rantool2,2021.1.4,Win32,144.092219,605b4d0e89f870e108c5daa3,60d9d14f4a8a35a482e0d9bf,60edf01746ddd9a8f4e7a71c,,,,,,,,,,,,
"[""comma""]",0,[0.30299999999999727],6,0,6,0,1,605b4d0e89f870e108c5daa3,Mężczyzna,18,2021-07-13_22h06.17.549,rantool2,2021.1.4,Win32,144.092219,605b4d0e89f870e108c5daa3,60d9d14f4a8a35a482e0d9bf,60edf01746ddd9a8f4e7a71c,,,,,,,,,,,,
"[""comma""]",0,[0.41799999999997794],7,0,7,0,1,605b4d0e89f870e108c5daa3,Mężczyzna,18,2021-07-13_22h06.17.549,rantool2,2021.1.4,Win32,144.092219,605b4d0e89f870e108c5daa3,60d9d14f4a8a35a482e0d9bf,60edf01746ddd9a8f4e7a71c,,,,,,,,,,,,
"[""period""]",0,[0.24699999999998568],8,0,8,0,1,605b4d0e89f870e108c5daa3,Mężczyzna,18,2021-07-13_22h06.17.549,rantool2,2021.1.4,Win32,144.092219,605b4d0e89f870e108c5daa3,60d9d14f4a8a35a482e0d9bf,60edf01746ddd9a8f4e7a71c,,,,,,,,,,,,
"[""comma""]",0,[0.26400000000001],9,0,9,0,1,605b4d0e89f870e108c5daa3,Mężczyzna,18,2021-07-13_22h06.17.549,rantool2,2021.1.4,Win32,144.092219,605b4d0e89f870e108c5daa3,60d9d14f4a8a35a482e0d9bf,60edf01746ddd9a8f4e7a71c,,,,,,,,,,,,
"[""period"",""comma""]",0,"[0.10400000000001342,0.11400000000000432]",10,0,10,0,1,605b4d0e89f870e108c5daa3,Mężczyzna,18,2021-07-13_22h06.17.549,rantool2,2021.1.4,Win32,144.092219,605b4d0e89f870e108c5daa3,60d9d14f4a8a35a482e0d9bf,60edf01746ddd9a8f4e7a71c,,,,,,,,,,,,
"[""period""]",0,[0.2389999999999759],11,0,11,0,1,605b4d0e89f870e108c5daa3,Mężczyzna,18,2021-07-13_22h06.17.549,rantool2,2021.1.4,Win32,144.092219,605b4d0e89f870e108c5daa3,60d9d14f4a8a35a482e0d9bf,60edf01746ddd9a8f4e7a71c,,,,,,,,,,,,
"[""period""]",0,[0.2529999999999859],12,0,12,0,1,605b4d0e89f870e108c5daa3,Mężczyzna,18,2021-07-13_22h06.17.549,rantool2,2021.1.4,Win32,144.092219,605b4d0e89f870e108c5daa3,60d9d14f4a8a35a482e0d9bf,60edf01746ddd9a8f4e7a71c,,,,,,,,,,,,
"[""comma""]",0,[0.27199999999999136],13,0,13,0,1,605b4d0e89f870e108c5daa3,Mężczyzna,18,2021-07-13_22h06.17.549,rantool2,2021.1.4,Win32,144.092219,605b4d0e89f870e108c5daa3,60d9d14f4a8a35a482e0d9bf,60edf01746ddd9a8f4e7a71c,,,,,,,,,,,,
"[""period""]",0,[0.46999999999999886],14,0,14,0,1,605b4d0e89f870e108c5daa3,Mężczyzna,18,2021-07-13_22h06.17.549,rantool2,2021.1.4,Win32,144.092219,605b4d0e89f870e108c5daa3,60d9d14f4a8a35a482e0d9bf,60edf01746ddd9a8f4e7a71c,,,,,,,,,,,,
"[""comma""]",0,[0.2529999999999859],15,0,15,0,1,605b4d0e89f870e108c5daa3,Mężczyzna,18,2021-07-13_22h06.17.549,rantool2,2021.1.4,Win32,144.092219,605b4d0e89f870e108c5daa3,60d9d14f4a8a35a482e0d9bf,60edf01746ddd9a8f4e7a71c,,,,,,,,,,,,
"[""comma""]",0,[0.23099999999999454],16,0,16,0,1,605b4d0e89f870e108c5daa3,Mężczyzna,18,2021-07-13_22h06.17.549,rantool2,2021.1.4,Win32,144.092219,605b4d0e89f870e108c5daa3,60d9d14f4a8a35a482e0d9bf,60edf01746ddd9a8f4e7a71c,,,,,,,,,,,,
"[""comma""]",0,[0.22399999999998954],17,0,17,0,1,605b4d0e89f870e108c5daa3,Mężczyzna,18,2021-07-13_22h06.17.549,rantool2,2021.1.4,Win32,144.092219,605b4d0e89f870e108c5daa3,60d9d14f4a8a35a482e0d9bf,60edf01746ddd9a8f4e7a71c,,,,,,,,,,,,
"[""period""]",0,[0.21599999999997976],18,0,18,0,1,605b4d0e89f870e108c5daa3,Mężczyzna,18,2021-07-13_22h06.17.549,rantool2,2021.1.4,Win32,144.092219,605b4d0e89f870e108c5daa3,60d9d14f4a8a35a482e0d9bf,60edf01746ddd9a8f4e7a71c,,,,,,,,,,,,
"[""comma""]",0,[0.11999999999997613],19,0,19,0,1,605b4d0e89f870e108c5daa3,Mężczyzna,18,2021-07-13_22h06.17.549,rantool2,2021.1.4,Win32,144.092219,605b4d0e89f870e108c5daa3,60d9d14f4a8a35a482e0d9bf,60edf01746ddd9a8f4e7a71c,,,,,,,,,,,,
"[""comma""]",0,[0.11800000000002342],20,0,20,0,1,605b4d0e89f870e108c5daa3,Mężczyzna,18,2021-07-13_22h06.17.549,rantool2,2021.1.4,Win32,144.092219,605b4d0e89f870e108c5daa3,60d9d14f4a8a35a482e0d9bf,60edf01746ddd9a8f4e7a71c,,,,,,,,,,,,
"[""period""]",0,[0.23900000000000432],21,0,21,0,1,605b4d0e89f870e108c5daa3,Mężczyzna,18,2021-07-13_22h06.17.549,rantool2,2021.1.4,Win32,144.092219,605b4d0e89f870e108c5daa3,60d9d14f4a8a35a482e0d9bf,60edf01746ddd9a8f4e7a71c,,,,,,,,,,,,
"[""period""]",0,[0.4549999999999841],22,0,22,0,1,605b4d0e89f870e108c5daa3,Mężczyzna,18,2021-07-13_22h06.17.549,rantool2,2021.1.4,Win32,144.092219,605b4d0e89f870e108c5daa3,60d9d14f4a8a35a482e0d9bf,60edf01746ddd9a8f4e7a71c,,,,,,,,,,,,
"[""comma""]",0,[0.22399999999998954],23,0,23,0,1,605b4d0e89f870e108c5daa3,Mężczyzna,18,2021-07-13_22h06.17.549,rantool2,2021.1.4,Win32,144.092219,605b4d0e89f870e108c5daa3,60d9d14f4a8a35a482e0d9bf,60edf01746ddd9a8f4e7a71c,,,,,,,,,,,,
"[""period""]",0,[0.09299999999998931],24,0,24,0,1,605b4d0e89f870e108c5daa3,Mężczyzna,18,2021-07-13_22h06.17.549,rantool2,2021.1.4,Win32,144.092219,605b4d0e89f870e108c5daa3,60d9d14f4a8a35a482e0d9bf,60edf01746ddd9a8f4e7a71c,,,,,,,,,,,,
"[""comma""]",0,[0.34899999999998954],25,0,25,0,1,605b4d0e89f870e108c5daa3,Mężczyzna,18,2021-07-13_22h06.17.549,rantool2,2021.1.4,Win32,144.092219,605b4d0e89f870e108c5daa3,60d9d14f4a8a35a482e0d9bf,60edf01746ddd9a8f4e7a71c,,,,,,,,,,,,
"[""period""]",0,[0.21599999999997976],26,0,26,0,1,605b4d0e89f870e108c5daa3,Mężczyzna,18,2021-07-13_22h06.17.549,rantool2,2021.1.4,Win32,144.092219,605b4d0e89f870e108c5daa3,60d9d14f4a8a35a482e0d9bf,60edf01746ddd9a8f4e7a71c,,,,,,,,,,,,
"[""comma""]",0,[0.29299999999997794],27,0,27,0,1,605b4d0e89f870e108c5daa3,Mężczyzna,18,2021-07-13_22h06.17.549,rantool2,2021.1.4,Win32,144.092219,605b4d0e89f870e108c5daa3,60d9d14f4a8a35a482e0d9bf,60edf01746ddd9a8f4e7a71c,,,,,,,,,,,,
"[""comma""]",0,[0.05699999999998795],28,0,28,0,1,605b4d0e89f870e108c5daa3,Mężczyzna,18,2021-07-13_22h06.17.549,rantool2,2021.1.4,Win32,144.092219,605b4d0e89f870e108c5daa3,60d9d14f4a8a35a482e0d9bf,60edf01746ddd9a8f4e7a71c,,,,,,,,,,,,
"[""period""]",0,[0.23699999999999477],29,0,29,0,1,605b4d0e89f870e108c5daa3,Mężczyzna,18,2021-07-13_22h06.17.549,rantool2,2021.1.4,Win32,144.092219,605b4d0e89f870e108c5daa3,60d9d14f4a8a35a482e0d9bf,60edf01746ddd9a8f4e7a71c,,,,,,,,,,,,
"[""comma""]",0,[0.396000000000015],30,0,30,0,1,605b4d0e89f870e108c5daa3,Mężczyzna,18,2021-07-13_22h06.17.549,rantool2,2021.1.4,Win32,144.092219,605b4d0e89f870e108c5daa3,60d9d14f4a8a35a482e0d9bf,60edf01746ddd9a8f4e7a71c,,,,,,,,,,,,
"[""period""]",0,[0.3009999999999877],31,0,31,0,1,605b4d0e89f870e108c5daa3,Mężczyzna,18,2021-07-13_22h06.17.549,rantool2,2021.1.4,Win32,144.092219,605b4d0e89f870e108c5daa3,60d9d14f4a8a35a482e0d9bf,60edf01746ddd9a8f4e7a71c,,,,,,,,,,,,
"[""comma"",""period""]",0,"[0.18099999999998317,0.18199999999998795]",32,0,32,0,1,605b4d0e89f870e108c5daa3,Mężczyzna,18,2021-07-13_22h06.17.549,rantool2,2021.1.4,Win32,144.092219,605b4d0e89f870e108c5daa3,60d9d14f4a8a35a482e0d9bf,60edf01746ddd9a8f4e7a71c,,,,,,,,,,,,
"[""comma"",""period""]",0,"[0.11899999999999977,1.9809999999999945]",33,0,33,0,1,605b4d0e89f870e108c5daa3,Mężczyzna,18,2021-07-13_22h06.17.549,rantool2,2021.1.4,Win32,144.092219,605b4d0e89f870e108c5daa3,60d9d14f4a8a35a482e0d9bf,60edf01746ddd9a8f4e7a71c,,,,,,,,,,,,
0,0,,34,0,34,0,1,605b4d0e89f870e108c5daa3,Mężczyzna,18,2021-07-13_22h06.17.549,rantool2,2021.1.4,Win32,144.092219,605b4d0e89f870e108c5daa3,60d9d14f4a8a35a482e0d9bf,60edf01746ddd9a8f4e7a71c,,,,,,,,,,,,
"[""period""]",0,[0.22399999999998954],35,0,35,0,1,605b4d0e89f870e108c5daa3,Mężczyzna,18,2021-07-13_22h06.17.549,rantool2,2021.1.4,Win32,144.092219,605b4d0e89f870e108c5daa3,60d9d14f4a8a35a482e0d9bf,60edf01746ddd9a8f4e7a71c,,,,,,,,,,,,
"[""period""]",0,[0.2529999999999859],36,0,36,0,1,605b4d0e89f870e108c5daa3,Mężczyzna,18,2021-07-13_22h06.17.549,rantool2,2021.1.4,Win32,144.092219,605b4d0e89f870e108c5daa3,60d9d14f4a8a35a482e0d9bf,60edf01746ddd9a8f4e7a71c,,,,,,,,,,,,
"[""comma""]",0,[0.28600000000000136],37,0,37,0,1,605b4d0e89f870e108c5daa3,Mężczyzna,18,2021-07-13_22h06.17.549,rantool2,2021.1.4,Win32,144.092219,605b4d0e89f870e108c5daa3,60d9d14f4a8a35a482e0d9bf,60edf01746ddd9a8f4e7a71c,,,,,,,,,,,,
"[""comma""]",0,[0.18899999999999295],38,0,38,0,1,605b4d0e89f870e108c5daa3,Mężczyzna,18,2021-07-13_22h06.17.549,rantool2,2021.1.4,Win32,144.092219,605b4d0e89f870e108c5daa3,60d9d14f4a8a35a482e0d9bf,60edf01746ddd9a8f4e7a71c,,,,,,,,,,,,
"[""period""]",0,[0.17499999999998295],39,0,39,0,1,605b4d0e89f870e108c5daa3,Mężczyzna,18,2021-07-13_22h06.17.549,rantool2,2021.1.4,Win32,144.092219,605b4d0e89f870e108c5daa3,60d9d14f4a8a35a482e0d9bf,60edf01746ddd9a8f4e7a71c,,,,,,,,,,,,
"[""comma""]",0,[0.18099999999998317],40,0,40,0,1,605b4d0e89f870e108c5daa3,Mężczyzna,18,2021-07-13_22h06.17.549,rantool2,2021.1.4,Win32,144.092219,605b4d0e89f870e108c5daa3,60d9d14f4a8a35a482e0d9bf,60edf01746ddd9a8f4e7a71c,,,,,,,,,,,,
"[""comma""]",0,[0.17399999999997817],41,0,41,0,1,605b4d0e89f870e108c5daa3,Mężczyzna,18,2021-07-13_22h06.17.549,rantool2,2021.1.4,Win32,144.092219,605b4d0e89f870e108c5daa3,60d9d14f4a8a35a482e0d9bf,60edf01746ddd9a8f4e7a71c,,,,,,,,,,,,
"[""comma""]",0,[0.16899999999998272],42,0,42,0,1,605b4d0e89f870e108c5daa3,Mężczyzna,18,2021-07-13_22h06.17.549,rantool2,2021.1.4,Win32,144.092219,605b4d0e89f870e108c5daa3,60d9d14f4a8a35a482e0d9bf,60edf01746ddd9a8f4e7a71c,,,,,,,,,,,,
"[""comma""]",0,[0.285000000000025],43,0,43,0,1,605b4d0e89f870e108c5daa3,Mężczyzna,18,2021-07-13_22h06.17.549,rantool2,2021.1.4,Win32,144.092219,605b4d0e89f870e108c5daa3,60d9d14f4a8a35a482e0d9bf,60edf01746ddd9a8f4e7a71c,,,,,,,,,,,,
"[""comma""]",0,[0.7589999999999861],44,0,44,0,1,605b4d0e89f870e108c5daa3,Mężczyzna,18,2021-07-13_22h06.17.549,rantool2,2021.1.4,Win32,144.092219,605b4d0e89f870e108c5daa3,60d9d14f4a8a35a482e0d9bf,60edf01746ddd9a8f4e7a71c,,,,,,,,,,,,
"[""period"",""period""]",0,"[0.30000000000001137,1.7800000000000011]",45,0,45,0,1,605b4d0e89f870e108c5daa3,Mężczyzna,18,2021-07-13_22h06.17.549,rantool2,2021.1.4,Win32,144.092219,605b4d0e89f870e108c5daa3,60d9d14f4a8a35a482e0d9bf,60edf01746ddd9a8f4e7a71c,,,,,,,,,,,,
0,0,,46,0,46,0,1,605b4d0e89f870e108c5daa3,Mężczyzna,18,2021-07-13_22h06.17.549,rantool2,2021.1.4,Win32,144.092219,605b4d0e89f870e108c5daa3,60d9d14f4a8a35a482e0d9bf,60edf01746ddd9a8f4e7a71c,,,,,,,,,,,,
"[""comma""]",0,[0.18899999999999295],47,0,47,0,1,605b4d0e89f870e108c5daa3,Mężczyzna,18,2021-07-13_22h06.17.549,rantool2,2021.1.4,Win32,144.092219,605b4d0e89f870e108c5daa3,60d9d14f4a8a35a482e0d9bf,60edf01746ddd9a8f4e7a71c,,,,,,,,,,,,
"[""period""]",0,[0.20499999999998408],48,0,48,0,1,605b4d0e89f870e108c5daa3,Mężczyzna,18,2021-07-13_22h06.17.549,rantool2,2021.1.4,Win32,144.092219,605b4d0e89f870e108c5daa3,60d9d14f4a8a35a482e0d9bf,60edf01746ddd9a8f4e7a71c,,,,,,,,,,,,
"[""comma""]",0,[0.2459999999999809],49,0,49,0,1,605b4d0e89f870e108c5daa3,Mężczyzna,18,2021-07-13_22h06.17.549,rantool2,2021.1.4,Win32,144.092219,605b4d0e89f870e108c5daa3,60d9d14f4a8a35a482e0d9bf,60edf01746ddd9a8f4e7a71c,,,,,,,,,,,,
"[""period""]",0,[0.23699999999999477],50,0,50,0,1,605b4d0e89f870e108c5daa3,Mężczyzna,18,2021-07-13_22h06.17.549,rantool2,2021.1.4,Win32,144.092219,605b4d0e89f870e108c5daa3,60d9d14f4a8a35a482e0d9bf,60edf01746ddd9a8f4e7a71c,,,,,,,,,,,,
"[""period""]",0,[0.20400000000000773],51,0,51,0,1,605b4d0e89f870e108c5daa3,Mężczyzna,18,2021-07-13_22h06.17.549,rantool2,2021.1.4,Win32,144.092219,605b4d0e89f870e108c5daa3,60d9d14f4a8a35a482e0d9bf,60edf01746ddd9a8f4e7a71c,,,,,,,,,,,,
"[""period""]",0,[0.31399999999999295],52,0,52,0,1,605b4d0e89f870e108c5daa3,Mężczyzna,18,2021-07-13_22h06.17.549,rantool2,2021.1.4,Win32,144.092219,605b4d0e89f870e108c5daa3,60d9d14f4a8a35a482e0d9bf,60edf01746ddd9a8f4e7a71c,,,,,,,,,,,,
"[""comma""]",0,[0.24499999999997613],53,0,53,0,1,605b4d0e89f870e108c5daa3,Mężczyzna,18,2021-07-13_22h06.17.549,rantool2,2021.1.4,Win32,144.092219,605b4d0e89f870e108c5daa3,60d9d14f4a8a35a482e0d9bf,60edf01746ddd9a8f4e7a71c,,,,,,,,,,,,
"[""comma"",""period""]",0,"[0.22399999999998954,1.0699999999999932]",54,0,54,0,1,605b4d0e89f870e108c5daa3,Mężczyzna,18,2021-07-13_22h06.17.549,rantool2,2021.1.4,Win32,144.092219,605b4d0e89f870e108c5daa3,60d9d14f4a8a35a482e0d9bf,60edf01746ddd9a8f4e7a71c,,,,,,,,,,,,
0,0,,55,0,55,0,1,605b4d0e89f870e108c5daa3,Mężczyzna,18,2021-07-13_22h06.17.549,rantool2,2021.1.4,Win32,144.092219,605b4d0e89f870e108c5daa3,60d9d14f4a8a35a482e0d9bf,60edf01746ddd9a8f4e7a71c,,,,,,,,,,,,
"[""comma""]",0,[0.27899999999999636],56,0,56,0,1,605b4d0e89f870e108c5daa3,Mężczyzna,18,2021-07-13_22h06.17.549,rantool2,2021.1.4,Win32,144.092219,605b4d0e89f870e108c5daa3,60d9d14f4a8a35a482e0d9bf,60edf01746ddd9a8f4e7a71c,,,,,,,,,,,,
"[""period""]",0,[0.30000000000001137],57,0,57,0,1,605b4d0e89f870e108c5daa3,Mężczyzna,18,2021-07-13_22h06.17.549,rantool2,2021.1.4,Win32,144.092219,605b4d0e89f870e108c5daa3,60d9d14f4a8a35a482e0d9bf,60edf01746ddd9a8f4e7a71c,,,,,,,,,,,,
"[""comma"",""period""]",0,"[0.3009999999999877,0.3019999999999925]",58,0,58,0,1,605b4d0e89f870e108c5daa3,Mężczyzna,18,2021-07-13_22h06.17.549,rantool2,2021.1.4,Win32,144.092219,605b4d0e89f870e108c5daa3,60d9d14f4a8a35a482e0d9bf,60edf01746ddd9a8f4e7a71c,,,,,,,,,,,,
"[""comma"",""period""]",0,"[0.4040000000000248,0.4040000000000248]",59,0,59,0,1,605b4d0e89f870e108c5daa3,Mężczyzna,18,2021-07-13_22h06.17.549,rantool2,2021.1.4,Win32,144.092219,605b4d0e89f870e108c5daa3,60d9d14f4a8a35a482e0d9bf,60edf01746ddd9a8f4e7a71c,,,,,,,,,,,,
"[""comma"",""period""]",0,"[0.5010000000000048,0.5010000000000048]",60,0,60,0,1,605b4d0e89f870e108c5daa3,Mężczyzna,18,2021-07-13_22h06.17.549,rantool2,2021.1.4,Win32,144.092219,605b4d0e89f870e108c5daa3,60d9d14f4a8a35a482e0d9bf,60edf01746ddd9a8f4e7a71c,,,,,,,,,,,,
"[""comma""]",0,[0.3640000000000043],61,0,61,0,1,605b4d0e89f870e108c5daa3,Mężczyzna,18,2021-07-13_22h06.17.549,rantool2,2021.1.4,Win32,144.092219,605b4d0e89f870e108c5daa3,60d9d14f4a8a35a482e0d9bf,60edf01746ddd9a8f4e7a71c,,,,,,,,,,,,
"[""comma"",""period""]",0,"[0.242999999999995,0.2530000000000143]",62,0,62,0,1,605b4d0e89f870e108c5daa3,Mężczyzna,18,2021-07-13_22h06.17.549,rantool2,2021.1.4,Win32,144.092219,605b4d0e89f870e108c5daa3,60d9d14f4a8a35a482e0d9bf,60edf01746ddd9a8f4e7a71c,,,,,,,,,,,,
"[""comma"",""period"",""period""]",0,"[0.028999999999996362,0.14099999999999113,1.9119999999999777]",63,0,63,0,1,605b4d0e89f870e108c5daa3,Mężczyzna,18,2021-07-13_22h06.17.549,rantool2,2021.1.4,Win32,144.092219,605b4d0e89f870e108c5daa3,60d9d14f4a8a35a482e0d9bf,60edf01746ddd9a8f4e7a71c,,,,,,,,,,,,
0,0,,64,0,64,0,1,605b4d0e89f870e108c5daa3,Mężczyzna,18,2021-07-13_22h06.17.549,rantool2,2021.1.4,Win32,144.092219,605b4d0e89f870e108c5daa3,60d9d14f4a8a35a482e0d9bf,60edf01746ddd9a8f4e7a71c,,,,,,,,,,,,
"[""comma""]",0,[0.25200000000000955],65,0,65,0,1,605b4d0e89f870e108c5daa3,Mężczyzna,18,2021-07-13_22h06.17.549,rantool2,2021.1.4,Win32,144.092219,605b4d0e89f870e108c5daa3,60d9d14f4a8a35a482e0d9bf,60edf01746ddd9a8f4e7a71c,,,,,,,,,,,,
"[""comma""]",0,[0.5420000000000016],66,0,66,0,1,605b4d0e89f870e108c5daa3,Mężczyzna,18,2021-07-13_22h06.17.549,rantool2,2021.1.4,Win32,144.092219,605b4d0e89f870e108c5daa3,60d9d14f4a8a35a482e0d9bf,60edf01746ddd9a8f4e7a71c,,,,,,,,,,,,
"[""period""]",0,[0.28499999999996817],67,0,67,0,1,605b4d0e89f870e108c5daa3,Mężczyzna,18,2021-07-13_22h06.17.549,rantool2,2021.1.4,Win32,144.092219,605b4d0e89f870e108c5daa3,60d9d14f4a8a35a482e0d9bf,60edf01746ddd9a8f4e7a71c,,,,,,,,,,,,
"[""comma""]",0,[0.40200000000004366],68,0,68,0,1,605b4d0e89f870e108c5daa3,Mężczyzna,18,2021-07-13_22h06.17.549,rantool2,2021.1.4,Win32,144.092219,605b4d0e89f870e108c5daa3,60d9d14f4a8a35a482e0d9bf,60edf01746ddd9a8f4e7a71c,,,,,,,,,,,,
"[""period""]",0,[0.4390000000000214],69,0,69,0,1,605b4d0e89f870e108c5daa3,Mężczyzna,18,2021-07-13_22h06.17.549,rantool2,2021.1.4,Win32,144.092219,605b4d0e89f870e108c5daa3,60d9d14f4a8a35a482e0d9bf,60edf01746ddd9a8f4e7a71c,,,,,,,,,,,,
"[""period"",""comma""]",0,"[0.23699999999996635,0.24500000000000455]",70,0,70,0,1,605b4d0e89f870e108c5daa3,Mężczyzna,18,2021-07-13_22h06.17.549,rantool2,2021.1.4,Win32,144.092219,605b4d0e89f870e108c5daa3,60d9d14f4a8a35a482e0d9bf,60edf01746ddd9a8f4e7a71c,,,,,,,,,,,,
"[""comma""]",0,[0.2349999999999568],71,0,71,0,1,605b4d0e89f870e108c5daa3,Mężczyzna,18,2021-07-13_22h06.17.549,rantool2,2021.1.4,Win32,144.092219,605b4d0e89f870e108c5daa3,60d9d14f4a8a35a482e0d9bf,60edf01746ddd9a8f4e7a71c,,,,,,,,,,,,
"[""period""]",0,[0.25900000000001455],72,0,72,0,1,605b4d0e89f870e108c5daa3,Mężczyzna,18,2021-07-13_22h06.17.549,rantool2,2021.1.4,Win32,144.092219,605b4d0e89f870e108c5daa3,60d9d14f4a8a35a482e0d9bf,60edf01746ddd9a8f4e7a71c,,,,,,,,,,,,
"[""period""]",0,[0.25200000000000955],73,0,73,0,1,605b4d0e89f870e108c5daa3,Mężczyzna,18,2021-07-13_22h06.17.549,rantool2,2021.1.4,Win32,144.092219,605b4d0e89f870e108c5daa3,60d9d14f4a8a35a482e0d9bf,60edf01746ddd9a8f4e7a71c,,,,,,,,,,,,
"[""comma""]",0,[0.29300000000000637],74,0,74,0,1,605b4d0e89f870e108c5daa3,Mężczyzna,18,2021-07-13_22h06.17.549,rantool2,2021.1.4,Win32,144.092219,605b4d0e89f870e108c5daa3,60d9d14f4a8a35a482e0d9bf,60edf01746ddd9a8f4e7a71c,,,,,,,,,,,,
"[""period"",""comma""]",0,"[0.16399999999998727,0.18099999999998317]",75,0,75,0,1,605b4d0e89f870e108c5daa3,Mężczyzna,18,2021-07-13_22h06.17.549,rantool2,2021.1.4,Win32,144.092219,605b4d0e89f870e108c5daa3,60d9d14f4a8a35a482e0d9bf,60edf01746ddd9a8f4e7a71c,,,,,,,,,,,,
"[""period""]",0,[0.29199999999997317],76,0,76,0,1,605b4d0e89f870e108c5daa3,Mężczyzna,18,2021-07-13_22h06.17.549,rantool2,2021.1.4,Win32,144.092219,605b4d0e89f870e108c5daa3,60d9d14f4a8a35a482e0d9bf,60edf01746ddd9a8f4e7a71c,,,,,,,,,,,,
"[""period""]",0,[0.44700000000000273],77,0,77,0,1,605b4d0e89f870e108c5daa3,Mężczyzna,18,2021-07-13_22h06.17.549,rantool2,2021.1.4,Win32,144.092219,605b4d0e89f870e108c5daa3,60d9d14f4a8a35a482e0d9bf,60edf01746ddd9a8f4e7a71c,,,,,,,,,,,,
"[""period""]",0,[0.2400000000000091],78,0,78,0,1,605b4d0e89f870e108c5daa3,Mężczyzna,18,2021-07-13_22h06.17.549,rantool2,2021.1.4,Win32,144.092219,605b4d0e89f870e108c5daa3,60d9d14f4a8a35a482e0d9bf,60edf01746ddd9a8f4e7a71c,,,,,,,,,,,,
"[""comma"",""comma"",""period""]",0,"[0.21199999999998909,1.835999999999956,1.9879999999999995]",79,0,79,0,1,605b4d0e89f870e108c5daa3,Mężczyzna,18,2021-07-13_22h06.17.549,rantool2,2021.1.4,Win32,144.092219,605b4d0e89f870e108c5daa3,60d9d14f4a8a35a482e0d9bf,60edf01746ddd9a8f4e7a71c,,,,,,,,,,,,
"[""period""]",0,[1.9559999999999604],80,0,80,0,1,605b4d0e89f870e108c5daa3,Mężczyzna,18,2021-07-13_22h06.17.549,rantool2,2021.1.4,Win32,144.092219,605b4d0e89f870e108c5daa3,60d9d14f4a8a35a482e0d9bf,60edf01746ddd9a8f4e7a71c,,,,,,,,,,,,
0,0,,81,0,81,0,1,605b4d0e89f870e108c5daa3,Mężczyzna,18,2021-07-13_22h06.17.549,rantool2,2021.1.4,Win32,144.092219,605b4d0e89f870e108c5daa3,60d9d14f4a8a35a482e0d9bf,60edf01746ddd9a8f4e7a71c,,,,,,,,,,,,
"[""comma""]",0,[0.2909999999999968],82,0,82,0,1,605b4d0e89f870e108c5daa3,Mężczyzna,18,2021-07-13_22h06.17.549,rantool2,2021.1.4,Win32,144.092219,605b4d0e89f870e108c5daa3,60d9d14f4a8a35a482e0d9bf,60edf01746ddd9a8f4e7a71c,,,,,,,,,,,,
"[""period""]",0,[0.7040000000000077],83,0,83,0,1,605b4d0e89f870e108c5daa3,Mężczyzna,18,2021-07-13_22h06.17.549,rantool2,2021.1.4,Win32,144.092219,605b4d0e89f870e108c5daa3,60d9d14f4a8a35a482e0d9bf,60edf01746ddd9a8f4e7a71c,,,,,,,,,,,,
"[""comma""]",0,[0.3569999999999709],84,0,84,0,1,605b4d0e89f870e108c5daa3,Mężczyzna,18,2021-07-13_22h06.17.549,rantool2,2021.1.4,Win32,144.092219,605b4d0e89f870e108c5daa3,60d9d14f4a8a35a482e0d9bf,60edf01746ddd9a8f4e7a71c,,,,,,,,,,,,
"[""comma""]",0,[0.24500000000000455],85,0,85,0,1,605b4d0e89f870e108c5daa3,Mężczyzna,18,2021-07-13_22h06.17.549,rantool2,2021.1.4,Win32,144.092219,605b4d0e89f870e108c5daa3,60d9d14f4a8a35a482e0d9bf,60edf01746ddd9a8f4e7a71c,,,,,,,,,,,,
"[""comma""]",0,[0.2440000000000282],86,0,86,0,1,605b4d0e89f870e108c5daa3,Mężczyzna,18,2021-07-13_22h06.17.549,rantool2,2021.1.4,Win32,144.092219,605b4d0e89f870e108c5daa3,60d9d14f4a8a35a482e0d9bf,60edf01746ddd9a8f4e7a71c,,,,,,,,,,,,
"[""comma""]",0,[0.24399999999997135],87,0,87,0,1,605b4d0e89f870e108c5daa3,Mężczyzna,18,2021-07-13_22h06.17.549,rantool2,2021.1.4,Win32,144.092219,605b4d0e89f870e108c5daa3,60d9d14f4a8a35a482e0d9bf,60edf01746ddd9a8f4e7a71c,,,,,,,,,,,,
"[""comma""]",0,[0.242999999999995],88,0,88,0,1,605b4d0e89f870e108c5daa3,Mężczyzna,18,2021-07-13_22h06.17.549,rantool2,2021.1.4,Win32,144.092219,605b4d0e89f870e108c5daa3,60d9d14f4a8a35a482e0d9bf,60edf01746ddd9a8f4e7a71c,,,,,,,,,,,,
"[""comma""]",0,[0.21999999999997044],89,0,89,0,1,605b4d0e89f870e108c5daa3,Mężczyzna,18,2021-07-13_22h06.17.549,rantool2,2021.1.4,Win32,144.092219,605b4d0e89f870e108c5daa3,60d9d14f4a8a35a482e0d9bf,60edf01746ddd9a8f4e7a71c,,,,,,,,,,,,
"[""period""]",0,[0.12700000000000955],90,0,90,0,1,605b4d0e89f870e108c5daa3,Mężczyzna,18,2021-07-13_22h06.17.549,rantool2,2021.1.4,Win32,144.092219,605b4d0e89f870e108c5daa3,60d9d14f4a8a35a482e0d9bf,60edf01746ddd9a8f4e7a71c,,,,,,,,,,,,
"[""comma""]",0,[0.3149999999999977],91,0,91,0,1,605b4d0e89f870e108c5daa3,Mężczyzna,18,2021-07-13_22h06.17.549,rantool2,2021.1.4,Win32,144.092219,605b4d0e89f870e108c5daa3,60d9d14f4a8a35a482e0d9bf,60edf01746ddd9a8f4e7a71c,,,,,,,,,,,,
"[""period""]",0,[0.20300000000003138],92,0,92,0,1,605b4d0e89f870e108c5daa3,Mężczyzna,18,2021-07-13_22h06.17.549,rantool2,2021.1.4,Win32,144.092219,605b4d0e89f870e108c5daa3,60d9d14f4a8a35a482e0d9bf,60edf01746ddd9a8f4e7a71c,,,,,,,,,,,,
"[""period""]",0,[0.2659999999999627],93,0,93,0,1,605b4d0e89f870e108c5daa3,Mężczyzna,18,2021-07-13_22h06.17.549,rantool2,2021.1.4,Win32,144.092219,605b4d0e89f870e108c5daa3,60d9d14f4a8a35a482e0d9bf,60edf01746ddd9a8f4e7a71c,,,,,,,,,,,,
"[""comma""]",0,[0.2389999999999759],94,0,94,0,1,605b4d0e89f870e108c5daa3,Mężczyzna,18,2021-07-13_22h06.17.549,rantool2,2021.1.4,Win32,144.092219,605b4d0e89f870e108c5daa3,60d9d14f4a8a35a482e0d9bf,60edf01746ddd9a8f4e7a71c,,,,,,,,,,,,
"[""period""]",0,[-0.004000000000019099],95,0,95,0,1,605b4d0e89f870e108c5daa3,Mężczyzna,18,2021-07-13_22h06.17.549,rantool2,2021.1.4,Win32,144.092219,605b4d0e89f870e108c5daa3,60d9d14f4a8a35a482e0d9bf,60edf01746ddd9a8f4e7a71c,,,,,,,,,,,,
"[""comma""]",0,[0.19599999999996953],96,0,96,0,1,605b4d0e89f870e108c5daa3,Mężczyzna,18,2021-07-13_22h06.17.549,rantool2,2021.1.4,Win32,144.092219,605b4d0e89f870e108c5daa3,60d9d14f4a8a35a482e0d9bf,60edf01746ddd9a8f4e7a71c,,,,,,,,,,,,
"[""comma""]",0,[0.021000000000015007],97,0,97,0,1,605b4d0e89f870e108c5daa3,Mężczyzna,18,2021-07-13_22h06.17.549,rantool2,2021.1.4,Win32,144.092219,605b4d0e89f870e108c5daa3,60d9d14f4a8a35a482e0d9bf,60edf01746ddd9a8f4e7a71c,,,,,,,,,,,,
"[""period""]",0,[0.5020000000000095],98,0,98,0,1,605b4d0e89f870e108c5daa3,Mężczyzna,18,2021-07-13_22h06.17.549,rantool2,2021.1.4,Win32,144.092219,605b4d0e89f870e108c5daa3,60d9d14f4a8a35a482e0d9bf,60edf01746ddd9a8f4e7a71c,,,,,,,,,,,,
"[""comma""]",0,[0.9959999999999809],99,0,99,0,1,605b4d0e89f870e108c5daa3,Mężczyzna,18,2021-07-13_22h06.17.549,rantool2,2021.1.4,Win32,144.092219,605b4d0e89f870e108c5daa3,60d9d14f4a8a35a482e0d9bf,60edf01746ddd9a8f4e7a71c,,,,,,,,,,,,
"[""period""]",0,[0.8429999999999609],100,0,100,0,1,605b4d0e89f870e108c5daa3,Mężczyzna,18,2021-07-13_22h06.17.549,rantool2,2021.1.4,Win32,144.092219,605b4d0e89f870e108c5daa3,60d9d14f4a8a35a482e0d9bf,60edf01746ddd9a8f4e7a71c,,,,,,,,,,,,
"[""comma""]",0,[0.5310000000000059],101,0,101,0,1,605b4d0e89f870e108c5daa3,Mężczyzna,18,2021-07-13_22h06.17.549,rantool2,2021.1.4,Win32,144.092219,605b4d0e89f870e108c5daa3,60d9d14f4a8a35a482e0d9bf,60edf01746ddd9a8f4e7a71c,,,,,,,,,,,,
"[""period""]",0,[0.47399999999998954],102,0,102,0,1,605b4d0e89f870e108c5daa3,Mężczyzna,18,2021-07-13_22h06.17.549,rantool2,2021.1.4,Win32,144.092219,605b4d0e89f870e108c5daa3,60d9d14f4a8a35a482e0d9bf,60edf01746ddd9a8f4e7a71c,,,,,,,,,,,,
"[""period""]",0,[0.2189999999999941],103,0,103,0,1,605b4d0e89f870e108c5daa3,Mężczyzna,18,2021-07-13_22h06.17.549,rantool2,2021.1.4,Win32,144.092219,605b4d0e89f870e108c5daa3,60d9d14f4a8a35a482e0d9bf,60edf01746ddd9a8f4e7a71c,,,,,,,,,,,,
"[""comma""]",0,[0.2189999999999941],104,0,104,0,1,605b4d0e89f870e108c5daa3,Mężczyzna,18,2021-07-13_22h06.17.549,rantool2,2021.1.4,Win32,144.092219,605b4d0e89f870e108c5daa3,60d9d14f4a8a35a482e0d9bf,60edf01746ddd9a8f4e7a71c,,,,,,,,,,,,
"[""period""]",0,[0.1479999999999677],105,0,105,0,1,605b4d0e89f870e108c5daa3,Mężczyzna,18,2021-07-13_22h06.17.549,rantool2,2021.1.4,Win32,144.092219,605b4d0e89f870e108c5daa3,60d9d14f4a8a35a482e0d9bf,60edf01746ddd9a8f4e7a71c,,,,,,,,,,,,
"[""comma""]",0,[0.20300000000003138],106,0,106,0,1,605b4d0e89f870e108c5daa3,Mężczyzna,18,2021-07-13_22h06.17.549,rantool2,2021.1.4,Win32,144.092219,605b4d0e89f870e108c5daa3,60d9d14f4a8a35a482e0d9bf,60edf01746ddd9a8f4e7a71c,,,,,,,,,,,,
"[""comma""]",0,[0.24500000000000455],107,0,107,0,1,605b4d0e89f870e108c5daa3,Mężczyzna,18,2021-07-13_22h06.17.549,rantool2,2021.1.4,Win32,144.092219,605b4d0e89f870e108c5daa3,60d9d14f4a8a35a482e0d9bf,60edf01746ddd9a8f4e7a71c,,,,,,,,,,,,
"[""period""]",0,[0.2189999999999941],108,0,108,0,1,605b4d0e89f870e108c5daa3,Mężczyzna,18,2021-07-13_22h06.17.549,rantool2,2021.1.4,Win32,144.092219,605b4d0e89f870e108c5daa3,60d9d14f4a8a35a482e0d9bf,60edf01746ddd9a8f4e7a71c,,,,,,,,,,,,
"[""comma""]",0,[0.37999999999999545],109,0,109,0,1,605b4d0e89f870e108c5daa3,Mężczyzna,18,2021-07-13_22h06.17.549,rantool2,2021.1.4,Win32,144.092219,605b4d0e89f870e108c5daa3,60d9d14f4a8a35a482e0d9bf,60edf01746ddd9a8f4e7a71c,,,,,,,,,,,,
"[""period""]",0,[0.2440000000000282],110,0,110,0,1,605b4d0e89f870e108c5daa3,Mężczyzna,18,2021-07-13_22h06.17.549,rantool2,2021.1.4,Win32,144.092219,605b4d0e89f870e108c5daa3,60d9d14f4a8a35a482e0d9bf,60edf01746ddd9a8f4e7a71c,,,,,,,,,,,,
"[""period""]",0,[0.5159999999999627],111,0,111,0,1,605b4d0e89f870e108c5daa3,Mężczyzna,18,2021-07-13_22h06.17.549,rantool2,2021.1.4,Win32,144.092219,605b4d0e89f870e108c5daa3,60d9d14f4a8a35a482e0d9bf,60edf01746ddd9a8f4e7a71c,,,,,,,,,,,,
"[""comma""]",0,[1.2510000000000332],112,0,112,0,1,605b4d0e89f870e108c5daa3,Mężczyzna,18,2021-07-13_22h06.17.549,rantool2,2021.1.4,Win32,144.092219,605b4d0e89f870e108c5daa3,60d9d14f4a8a35a482e0d9bf,60edf01746ddd9a8f4e7a71c,,,,,,,,,,,,
"[""period""]",0,[1.04200000000003],113,0,113,0,1,605b4d0e89f870e108c5daa3,Mężczyzna,18,2021-07-13_22h06.17.549,rantool2,2021.1.4,Win32,144.092219,605b4d0e89f870e108c5daa3,60d9d14f4a8a35a482e0d9bf,60edf01746ddd9a8f4e7a71c,,,,,,,,,,,,
"[""comma""]",0,[1.0749999999999886],114,0,114,0,1,605b4d0e89f870e108c5daa3,Mężczyzna,18,2021-07-13_22h06.17.549,rantool2,2021.1.4,Win32,144.092219,605b4d0e89f870e108c5daa3,60d9d14f4a8a35a482e0d9bf,60edf01746ddd9a8f4e7a71c,,,,,,,,,,,,
"[""period""]",0,[0.771000000000015],115,0,115,0,1,605b4d0e89f870e108c5daa3,Mężczyzna,18,2021-07-13_22h06.17.549,rantool2,2021.1.4,Win32,144.092219,605b4d0e89f870e108c5daa3,60d9d14f4a8a35a482e0d9bf,60edf01746ddd9a8f4e7a71c,,,,,,,,,,,,
"[""comma""]",0,[0.91700000000003],116,0,116,0,1,605b4d0e89f870e108c5daa3,Mężczyzna,18,2021-07-13_22h06.17.549,rantool2,2021.1.4,Win32,144.092219,605b4d0e89f870e108c5daa3,60d9d14f4a8a35a482e0d9bf,60edf01746ddd9a8f4e7a71c,,,,,,,,,,,,
"[""comma"",""period""]",0,"[0.9800000000000182,0.9890000000000327]",117,0,117,0,1,605b4d0e89f870e108c5daa3,Mężczyzna,18,2021-07-13_22h06.17.549,rantool2,2021.1.4,Win32,144.092219,605b4d0e89f870e108c5daa3,60d9d14f4a8a35a482e0d9bf,60edf01746ddd9a8f4e7a71c,,,,,,,,,,,,
"[""comma""]",0,[0.5389999999999873],118,0,118,0,1,605b4d0e89f870e108c5daa3,Mężczyzna,18,2021-07-13_22h06.17.549,rantool2,2021.1.4,Win32,144.092219,605b4d0e89f870e108c5daa3,60d9d14f4a8a35a482e0d9bf,60edf01746ddd9a8f4e7a71c,,,,,,,,,,,,
"[""comma""]",0,[0.7789999999999964],119,0,119,0,1,605b4d0e89f870e108c5daa3,Mężczyzna,18,2021-07-13_22h06.17.549,rantool2,2021.1.4,Win32,144.092219,605b4d0e89f870e108c5daa3,60d9d14f4a8a35a482e0d9bf,60edf01746ddd9a8f4e7a71c,,,,,,,,,,,,
,,,,,,,,605b4d0e89f870e108c5daa3,Mężczyzna,18,2021-07-13_22h06.17.549,rantool2,2021.1.4,Win32,144.092219,605b4d0e89f870e108c5daa3,60d9d14f4a8a35a482e0d9bf,60edf01746ddd9a8f4e7a71c,f,1.402,0,0,0,51,1,RROORRO,RROORRR,21.89852628,22.02786418,series_1
,,,,,,,,605b4d0e89f870e108c5daa3,Mężczyzna,18,2021-07-13_22h06.17.549,rantool2,2021.1.4,Win32,144.092219,605b4d0e89f870e108c5daa3,60d9d14f4a8a35a482e0d9bf,60edf01746ddd9a8f4e7a71c,j,3.299,0,1,1,28,1,ORRROOO,ORRROOR,22.24142883,22.53364006,series_1
,,,,,,,,605b4d0e89f870e108c5daa3,Mężczyzna,18,2021-07-13_22h06.17.549,rantool2,2021.1.4,Win32,144.092219,605b4d0e89f870e108c5daa3,60d9d14f4a8a35a482e0d9bf,60edf01746ddd9a8f4e7a71c,j,2.314,0,2,2,56,1,RRROOOO,RRROOOR,21.6194508,22.31681875,series_1
,,,,,,,,605b4d0e89f870e108c5daa3,Mężczyzna,18,2021-07-13_22h06.17.549,rantool2,2021.1.4,Win32,144.092219,605b4d0e89f870e108c5daa3,60d9d14f4a8a35a482e0d9bf,60edf01746ddd9a8f4e7a71c,f,2.306,0,3,3,26,1,ORROROO,ORROROR,22.02732763,21.71443381,series_0
,,,,,,,,605b4d0e89f870e108c5daa3,Mężczyzna,18,2021-07-13_22h06.17.549,rantool2,2021.1.4,Win32,144.092219,605b4d0e89f870e108c5daa3,60d9d14f4a8a35a482e0d9bf,60edf01746ddd9a8f4e7a71c,j,2.251,0,4,4,32,1,ROOOOOO,ROOOOOR,19.92253567,21.27974287,series_1
,,,,,,,,605b4d0e89f870e108c5daa3,Mężczyzna,18,2021-07-13_22h06.17.549,rantool2,2021.1.4,Win32,144.092219,605b4d0e89f870e108c5daa3,60d9d14f4a8a35a482e0d9bf,60edf01746ddd9a8f4e7a71c,f,2.008,0,5,5,11,1,OORORRO,OORORRR,22.18365867,22.6797523,series_1
,,,,,,,,605b4d0e89f870e108c5daa3,Mężczyzna,18,2021-07-13_22h06.17.549,rantool2,2021.1.4,Win32,144.092219,605b4d0e89f870e108c5daa3,60d9d14f4a8a35a482e0d9bf,60edf01746ddd9a8f4e7a71c,j,1.445,0,6,6,14,1,OORRROO,OORRROR,22.24142883,22.16977179,series_0
,,,,,,,,605b4d0e89f870e108c5daa3,Mężczyzna,18,2021-07-13_22h06.17.549,rantool2,2021.1.4,Win32,144.092219,605b4d0e89f870e108c5daa3,60d9d14f4a8a35a482e0d9bf,60edf01746ddd9a8f4e7a71c,f,2.05,0,7,7,60,1,RRRROOO,RRRROOR,22.10108823,22.15934078,series_1
,,,,,,,,605b4d0e89f870e108c5daa3,Mężczyzna,18,2021-07-13_22h06.17.549,rantool2,2021.1.4,Win32,144.092219,605b4d0e89f870e108c5daa3,60d9d14f4a8a35a482e0d9bf,60edf01746ddd9a8f4e7a71c,j,2.52,0,8,8,16,1,OROOOOO,OROOOOR,20.43051175,21.17347734,series_1
,,,,,,,,605b4d0e89f870e108c5daa3,Mężczyzna,18,2021-07-13_22h06.17.549,rantool2,2021.1.4,Win32,144.092219,605b4d0e89f870e108c5daa3,60d9d14f4a8a35a482e0d9bf,60edf01746ddd9a8f4e7a71c,f,2.107,0,9,9,4,1,OOOROOO,OOOROOR,19.91402015,21.21223021,series_1
,,,,,,,,605b4d0e89f870e108c5daa3,Mężczyzna,18,2021-07-13_22h06.17.549,rantool2,2021.1.4,Win32,144.092219,605b4d0e89f870e108c5daa3,60d9d14f4a8a35a482e0d9bf,60edf01746ddd9a8f4e7a71c,j,1.793,0,10,10,29,1,ORRRORO,ORRRORR,22.00300695,22.12173012,series_1
,,,,,,,,605b4d0e89f870e108c5daa3,Mężczyzna,18,2021-07-13_22h06.17.549,rantool2,2021.1.4,Win32,144.092219,605b4d0e89f870e108c5daa3,60d9d14f4a8a35a482e0d9bf,60edf01746ddd9a8f4e7a71c,f,2.177,0,11,11,12,1,OORROOO,OORROOR,21.30250474,22.02786418,series_1
,,,,,,,,605b4d0e89f870e108c5daa3,Mężczyzna,18,2021-07-13_22h06.17.549,rantool2,2021.1.4,Win32,144.092219,605b4d0e89f870e108c5daa3,60d9d14f4a8a35a482e0d9bf,60edf01746ddd9a8f4e7a71c,j,2.669,0,12,12,62,1,RRRRROO,RRRRROR,22.16413392,21.27974287,series_0
,,,,,,,,605b4d0e89f870e108c5daa3,Mężczyzna,18,2021-07-13_22h06.17.549,rantool2,2021.1.4,Win32,144.092219,605b4d0e89f870e108c5daa3,60d9d14f4a8a35a482e0d9bf,60edf01746ddd9a8f4e7a71c,j,3.182,0,13,13,15,1,OORRRRO,OORRRRR,22.10108823,21.74922619,series_0
,,,,,,,,605b4d0e89f870e108c5daa3,Mężczyzna,18,2021-07-13_22h06.17.549,rantool2,2021.1.4,Win32,144.092219,605b4d0e89f870e108c5daa3,60d9d14f4a8a35a482e0d9bf,60edf01746ddd9a8f4e7a71c,j,2.192,0,14,14,18,1,OROOROO,OROOROR,20.84860893,21.22513037,series_1
,,,,,,,,605b4d0e89f870e108c5daa3,Mężczyzna,18,2021-07-13_22h06.17.549,rantool2,2021.1.4,Win32,144.092219,605b4d0e89f870e108c5daa3,60d9d14f4a8a35a482e0d9bf,60edf01746ddd9a8f4e7a71c,f,2.838,0,15,15,59,1,RRRORRO,RRRORRR,21.56657303,20.89823192,series_0
,,,,,,,,605b4d0e89f870e108c5daa3,Mężczyzna,18,2021-07-13_22h06.17.549,rantool2,2021.1.4,Win32,144.092219,605b4d0e89f870e108c5daa3,60d9d14f4a8a35a482e0d9bf,60edf01746ddd9a8f4e7a71c,j,1.494,0,16,16,39,1,ROORRRO,ROORRRR,21.82425538,21.38562617,series_0
,,,,,,,,605b4d0e89f870e108c5daa3,Mężczyzna,18,2021-07-13_22h06.17.549,rantool2,2021.1.4,Win32,144.092219,605b4d0e89f870e108c5daa3,60d9d14f4a8a35a482e0d9bf,60edf01746ddd9a8f4e7a71c,f,1.523,0,17,17,36,1,ROOROOO,ROOROOR,21.07991943,20.9984461,series_0
,,,,,,,,605b4d0e89f870e108c5daa3,Mężczyzna,18,2021-07-13_22h06.17.549,rantool2,2021.1.4,Win32,144.092219,605b4d0e89f870e108c5daa3,60d9d14f4a8a35a482e0d9bf,60edf01746ddd9a8f4e7a71c,j,1.571,0,18,18,0,1,OOOOOOO,OOOOOOR,18.52739004,19.62521613,series_1
,,,,,,,,605b4d0e89f870e108c5daa3,Mężczyzna,18,2021-07-13_22h06.17.549,rantool2,2021.1.4,Win32,144.092219,605b4d0e89f870e108c5daa3,60d9d14f4a8a35a482e0d9bf,60edf01746ddd9a8f4e7a71c,j,1.779,0,19,19,38,1,ROORROO,ROORROR,21.79500819,21.36812781,series_0
,,,,,,,,605b4d0e89f870e108c5daa3,Mężczyzna,18,2021-07-13_22h06.17.549,rantool2,2021.1.4,Win32,144.092219,605b4d0e89f870e108c5daa3,60d9d14f4a8a35a482e0d9bf,60edf01746ddd9a8f4e7a71c,j,1.591,0,20,20,61,1,RRRRORO,RRRRORR,21.81333602,21.17347734,series_0
,,,,,,,,605b4d0e89f870e108c5daa3,Mężczyzna,18,2021-07-13_22h06.17.549,rantool2,2021.1.4,Win32,144.092219,605b4d0e89f870e108c5daa3,60d9d14f4a8a35a482e0d9bf,60edf01746ddd9a8f4e7a71c,j,1.661,0,21,21,52,1,RROROOO,RROROOR,22.18365867,22.11097995,series_0
,,,,,,,,605b4d0e89f870e108c5daa3,Mężczyzna,18,2021-07-13_22h06.17.549,rantool2,2021.1.4,Win32,144.092219,605b4d0e89f870e108c5daa3,60d9d14f4a8a35a482e0d9bf,60edf01746ddd9a8f4e7a71c,f,1.106,0,22,22,55,1,RRORRRO,RRORRRR,21.56657303,21.21223021,series_0
,,,,,,,,605b4d0e89f870e108c5daa3,Mężczyzna,18,2021-07-13_22h06.17.549,rantool2,2021.1.4,Win32,144.092219,605b4d0e89f870e108c5daa3,60d9d14f4a8a35a482e0d9bf,60edf01746ddd9a8f4e7a71c,j,1.368,0,23,23,5,1,OOORORO,OOORORR,20.87963819,21.9921709,series_1
,,,,,,,,605b4d0e89f870e108c5daa3,Mężczyzna,18,2021-07-13_22h06.17.549,rantool2,2021.1.4,Win32,144.092219,605b4d0e89f870e108c5daa3,60d9d14f4a8a35a482e0d9bf,60edf01746ddd9a8f4e7a71c,f,1.226,0,24,24,54,1,RRORROO,RRORROR,21.55250791,20.9984461,series_0
,,,,,,,,605b4d0e89f870e108c5daa3,Mężczyzna,18,2021-07-13_22h06.17.549,rantool2,2021.1.4,Win32,144.092219,605b4d0e89f870e108c5daa3,60d9d14f4a8a35a482e0d9bf,60edf01746ddd9a8f4e7a71c,f,1.749,0,25,25,27,1,ORRORRO,ORRORRR,21.55250791,22.2428857,series_1
,,,,,,,,605b4d0e89f870e108c5daa3,Mężczyzna,18,2021-07-13_22h06.17.549,rantool2,2021.1.4,Win32,144.092219,605b4d0e89f870e108c5daa3,60d9d14f4a8a35a482e0d9bf,60edf01746ddd9a8f4e7a71c,j,1.794,0,26,26,3,1,OOOORRO,OOOORRR,20.90986523,21.74922619,series_1
,,,,,,,,605b4d0e89f870e108c5daa3,Mężczyzna,18,2021-07-13_22h06.17.549,rantool2,2021.1.4,Win32,144.092219,605b4d0e89f870e108c5daa3,60d9d14f4a8a35a482e0d9bf,60edf01746ddd9a8f4e7a71c,f,1.434,0,27,27,8,1,OOROOOO,OOROOOR,19.91402015,20.89823192,series_1
,,,,,,,,605b4d0e89f870e108c5daa3,Mężczyzna,18,2021-07-13_22h06.17.549,rantool2,2021.1.4,Win32,144.092219,605b4d0e89f870e108c5daa3,60d9d14f4a8a35a482e0d9bf,60edf01746ddd9a8f4e7a71c,j,1.612,0,28,28,33,1,ROOOORO,ROOOORR,20.83779602,22.03072203,series_1
,,,,,,,,605b4d0e89f870e108c5daa3,Mężczyzna,18,2021-07-13_22h06.17.549,rantool2,2021.1.4,Win32,144.092219,605b4d0e89f870e108c5daa3,60d9d14f4a8a35a482e0d9bf,60edf01746ddd9a8f4e7a71c,j,1.577,0,29,29,9,1,OOROORO,OOROORR,21.07991943,22.2428857,series_1
,,,,,,,,605b4d0e89f870e108c5daa3,Mężczyzna,18,2021-07-13_22h06.17.549,rantool2,2021.1.4,Win32,144.092219,605b4d0e89f870e108c5daa3,60d9d14f4a8a35a482e0d9bf,60edf01746ddd9a8f4e7a71c,f,0.842,0,30,30,30,1,ORRRROO,ORRRROR,22.46748491,22.03072203,series_0
,,,,,,,,605b4d0e89f870e108c5daa3,Mężczyzna,18,2021-07-13_22h06.17.549,rantool2,2021.1.4,Win32,144.092219,605b4d0e89f870e108c5daa3,60d9d14f4a8a35a482e0d9bf,60edf01746ddd9a8f4e7a71c,j,1.29,0,31,31,1,1,OOOOORO,OOOOORR,19.92253567,20.74050628,series_1
,,,,,,,,605b4d0e89f870e108c5daa3,Mężczyzna,18,2021-07-13_22h06.17.549,rantool2,2021.1.4,Win32,144.092219,605b4d0e89f870e108c5daa3,60d9d14f4a8a35a482e0d9bf,60edf01746ddd9a8f4e7a71c,j,3.194,0,32,32,17,1,OROOORO,OROOORR,21.03750787,22.12173012,series_1
,,,,,,,,605b4d0e89f870e108c5daa3,Mężczyzna,18,2021-07-13_22h06.17.549,rantool2,2021.1.4,Win32,144.092219,605b4d0e89f870e108c5daa3,60d9d14f4a8a35a482e0d9bf,60edf01746ddd9a8f4e7a71c,f,1.307,0,33,33,40,1,ROROOOO,ROROOOR,20.87963819,21.37121559,series_1
,,,,,,,,605b4d0e89f870e108c5daa3,Mężczyzna,18,2021-07-13_22h06.17.549,rantool2,2021.1.4,Win32,144.092219,605b4d0e89f870e108c5daa3,60d9d14f4a8a35a482e0d9bf,60edf01746ddd9a8f4e7a71c,j,3.265,0,34,34,20,1,OROROOO,OROROOR,21.31236711,21.90565814,series_1
,,,,,,,,605b4d0e89f870e108c5daa3,Mężczyzna,18,2021-07-13_22h06.17.549,rantool2,2021.1.4,Win32,144.092219,605b4d0e89f870e108c5daa3,60d9d14f4a8a35a482e0d9bf,60edf01746ddd9a8f4e7a71c,f,1.364,0,35,35,50,1,RROOROO,RROOROR,21.73568164,22.02566557,series_1
,,,,,,,,605b4d0e89f870e108c5daa3,Mężczyzna,18,2021-07-13_22h06.17.549,rantool2,2021.1.4,Win32,144.092219,605b4d0e89f870e108c5daa3,60d9d14f4a8a35a482e0d9bf,60edf01746ddd9a8f4e7a71c,j,1.24,0,36,36,49,1,RROOORO,RROOORR,21.76276513,22.53364006,series_1
,,,,,,,,605b4d0e89f870e108c5daa3,Mężczyzna,18,2021-07-13_22h06.17.549,rantool2,2021.1.4,Win32,144.092219,605b4d0e89f870e108c5daa3,60d9d14f4a8a35a482e0d9bf,60edf01746ddd9a8f4e7a71c,j,1.495,0,37,37,25,1,ORROORO,ORROORR,21.79500819,22.61624387,series_1
,,,,,,,,605b4d0e89f870e108c5daa3,Mężczyzna,18,2021-07-13_22h06.17.549,rantool2,2021.1.4,Win32,144.092219,605b4d0e89f870e108c5daa3,60d9d14f4a8a35a482e0d9bf,60edf01746ddd9a8f4e7a71c,f,0.938,0,38,38,24,1,ORROOOO,ORROOOR,21.12383932,22.07102821,series_1
,,,,,,,,605b4d0e89f870e108c5daa3,Mężczyzna,18,2021-07-13_22h06.17.549,rantool2,2021.1.4,Win32,144.092219,605b4d0e89f870e108c5daa3,60d9d14f4a8a35a482e0d9bf,60edf01746ddd9a8f4e7a71c,j,2.376,0,39,39,41,1,ROROORO,ROROORR,20.42602454,21.71443381,series_1
,,,,,,,,605b4d0e89f870e108c5daa3,Mężczyzna,18,2021-07-13_22h06.17.549,rantool2,2021.1.4,Win32,144.092219,605b4d0e89f870e108c5daa3,60d9d14f4a8a35a482e0d9bf,60edf01746ddd9a8f4e7a71c,j,3.995,0,40,40,45,1,RORRORO,RORRORR,20.78182524,21.22513037,series_1
,,,,,,,,605b4d0e89f870e108c5daa3,Mężczyzna,18,2021-07-13_22h06.17.549,rantool2,2021.1.4,Win32,144.092219,605b4d0e89f870e108c5daa3,60d9d14f4a8a35a482e0d9bf,60edf01746ddd9a8f4e7a71c,f,3.649,0,41,41,2,1,OOOOROO,OOOOROR,20.43051175,21.02936224,series_1
,,,,,,,,605b4d0e89f870e108c5daa3,Mężczyzna,18,2021-07-13_22h06.17.549,rantool2,2021.1.4,Win32,144.092219,605b4d0e89f870e108c5daa3,60d9d14f4a8a35a482e0d9bf,60edf01746ddd9a8f4e7a71c,j,2.639,0,42,42,46,1,RORRROO,RORRROR,22.00300695,21.24781509,series_0
,,,,,,,,605b4d0e89f870e108c5daa3,Mężczyzna,18,2021-07-13_22h06.17.549,rantool2,2021.1.4,Win32,144.092219,605b4d0e89f870e108c5daa3,60d9d14f4a8a35a482e0d9bf,60edf01746ddd9a8f4e7a71c,f,1.69,0,43,43,47,1,RORRRRO,RORRRRR,21.81333602,21.02936224,series_0
,,,,,,,,605b4d0e89f870e108c5daa3,Mężczyzna,18,2021-07-13_22h06.17.549,rantool2,2021.1.4,Win32,144.092219,605b4d0e89f870e108c5daa3,60d9d14f4a8a35a482e0d9bf,60edf01746ddd9a8f4e7a71c,j,1.544,0,44,44,43,1,RORORRO,RORORRR,20.71309134,21.07490964,series_1
,,,,,,,,605b4d0e89f870e108c5daa3,Mężczyzna,18,2021-07-13_22h06.17.549,rantool2,2021.1.4,Win32,144.092219,605b4d0e89f870e108c5daa3,60d9d14f4a8a35a482e0d9bf,60edf01746ddd9a8f4e7a71c,f,1.807,0,45,45,34,1,ROOOROO,ROOOROR,21.03750787,21.24781509,series_1
,,,,,,,,605b4d0e89f870e108c5daa3,Mężczyzna,18,2021-07-13_22h06.17.549,rantool2,2021.1.4,Win32,144.092219,605b4d0e89f870e108c5daa3,60d9d14f4a8a35a482e0d9bf,60edf01746ddd9a8f4e7a71c,j,2.889,0,46,46,57,1,RRROORO,RRROORR,21.82425538,22.07102821,series_1
,,,,,,,,605b4d0e89f870e108c5daa3,Mężczyzna,18,2021-07-13_22h06.17.549,rantool2,2021.1.4,Win32,144.092219,605b4d0e89f870e108c5daa3,60d9d14f4a8a35a482e0d9bf,60edf01746ddd9a8f4e7a71c,f,1.545,0,47,47,48,1,RROOOOO,RROOOOR,20.90986523,22.15934078,series_1
,,,,,,,,605b4d0e89f870e108c5daa3,Mężczyzna,18,2021-07-13_22h06.17.549,rantool2,2021.1.4,Win32,144.092219,605b4d0e89f870e108c5daa3,60d9d14f4a8a35a482e0d9bf,60edf01746ddd9a8f4e7a71c,j,1.918,0,48,48,58,1,RRROROO,RRROROR,22.1285618,21.37121559,series_0
,,,,,,,,605b4d0e89f870e108c5daa3,Mężczyzna,18,2021-07-13_22h06.17.549,rantool2,2021.1.4,Win32,144.092219,605b4d0e89f870e108c5daa3,60d9d14f4a8a35a482e0d9bf,60edf01746ddd9a8f4e7a71c,j,2.279,0,49,49,22,1,ORORROO,ORORROR,22.02732763,21.57657071,series_0
,,,,,,,,605b4d0e89f870e108c5daa3,Mężczyzna,18,2021-07-13_22h06.17.549,rantool2,2021.1.4,Win32,144.092219,605b4d0e89f870e108c5daa3,60d9d14f4a8a35a482e0d9bf,60edf01746ddd9a8f4e7a71c,f,1.286,0,50,50,6,1,OOORROO,OOORROR,21.12383932,21.38562617,series_1
,,,,,,,,605b4d0e89f870e108c5daa3,Mężczyzna,18,2021-07-13_22h06.17.549,rantool2,2021.1.4,Win32,144.092219,605b4d0e89f870e108c5daa3,60d9d14f4a8a35a482e0d9bf,60edf01746ddd9a8f4e7a71c,j,2.168,0,51,51,19,1,OROORRO,OROORRR,21.73568164,22.11181017,series_1
,,,,,,,,605b4d0e89f870e108c5daa3,Mężczyzna,18,2021-07-13_22h06.17.549,rantool2,2021.1.4,Win32,144.092219,605b4d0e89f870e108c5daa3,60d9d14f4a8a35a482e0d9bf,60edf01746ddd9a8f4e7a71c,j,1.362,0,52,52,23,1,ORORRRO,ORORRRR,22.1285618,21.9921709,series_0
,,,,,,,,605b4d0e89f870e108c5daa3,Mężczyzna,18,2021-07-13_22h06.17.549,rantool2,2021.1.4,Win32,144.092219,605b4d0e89f870e108c5daa3,60d9d14f4a8a35a482e0d9bf,60edf01746ddd9a8f4e7a71c,j,1.876,0,53,53,37,1,ROORORO,ROORORR,20.42602454,21.57657071,series_1
,,,,,,,,605b4d0e89f870e108c5daa3,Mężczyzna,18,2021-07-13_22h06.17.549,rantool2,2021.1.4,Win32,144.092219,605b4d0e89f870e108c5daa3,60d9d14f4a8a35a482e0d9bf,60edf01746ddd9a8f4e7a71c,f,1.352,0,54,54,42,1,ROROROO,ROROROR,20.39515459,19.8361834,series_0
,,,,,,,,605b4d0e89f870e108c5daa3,Mężczyzna,18,2021-07-13_22h06.17.549,rantool2,2021.1.4,Win32,144.092219,605b4d0e89f870e108c5daa3,60d9d14f4a8a35a482e0d9bf,60edf01746ddd9a8f4e7a71c,j,1.328,0,55,55,10,1,OOROROO,OOROROR,21.31236711,21.07490964,series_0
,,,,,,,,605b4d0e89f870e108c5daa3,Mężczyzna,18,2021-07-13_22h06.17.549,rantool2,2021.1.4,Win32,144.092219,605b4d0e89f870e108c5daa3,60d9d14f4a8a35a482e0d9bf,60edf01746ddd9a8f4e7a71c,j,1.809,0,56,56,21,1,ORORORO,ORORORR,20.39515459,22.06781359,series_1
,,,,,,,,605b4d0e89f870e108c5daa3,Mężczyzna,18,2021-07-13_22h06.17.549,rantool2,2021.1.4,Win32,144.092219,605b4d0e89f870e108c5daa3,60d9d14f4a8a35a482e0d9bf,60edf01746ddd9a8f4e7a71c,f,2.196,0,57,57,7,1,OOORRRO,OOORRRR,21.6194508,21.899017,series_1
,,,,,,,,605b4d0e89f870e108c5daa3,Mężczyzna,18,2021-07-13_22h06.17.549,rantool2,2021.1.4,Win32,144.092219,605b4d0e89f870e108c5daa3,60d9d14f4a8a35a482e0d9bf,60edf01746ddd9a8f4e7a71c,j,2.378,0,58,58,13,1,OORRORO,OORRORR,21.66733484,22.11181017,series_1
,,,,,,,,605b4d0e89f870e108c5daa3,Mężczyzna,18,2021-07-13_22h06.17.549,rantool2,2021.1.4,Win32,144.092219,605b4d0e89f870e108c5daa3,60d9d14f4a8a35a482e0d9bf,60edf01746ddd9a8f4e7a71c,f,2.016,0,59,59,44,1,RORROOO,RORROOR,21.66733484,22.02566557,series_1
,,,,,,,,605b4d0e89f870e108c5daa3,Mężczyzna,18,2021-07-13_22h06.17.549,rantool2,2021.1.4,Win32,144.092219,605b4d0e89f870e108c5daa3,60d9d14f4a8a35a482e0d9bf,60edf01746ddd9a8f4e7a71c,j,2.607,0,60,60,63,1,RRRRRRO,RRRRRRR,21.35278725,19.62521613,series_0
,,,,,,,,605b4d0e89f870e108c5daa3,Mężczyzna,18,2021-07-13_22h06.17.549,rantool2,2021.1.4,Win32,144.092219,605b4d0e89f870e108c5daa3,60d9d14f4a8a35a482e0d9bf,60edf01746ddd9a8f4e7a71c,f,1.919,0,61,61,31,1,ORRRRRO,ORRRRRR,22.16413392,20.74050628,series_0
,,,,,,,,605b4d0e89f870e108c5daa3,Mężczyzna,18,2021-07-13_22h06.17.549,rantool2,2021.1.4,Win32,144.092219,605b4d0e89f870e108c5daa3,60d9d14f4a8a35a482e0d9bf,60edf01746ddd9a8f4e7a71c,j,2,0,62,62,35,1,ROOORRO,ROOORRR,21.76276513,22.16977179,series_1
,,,,,,,,605b4d0e89f870e108c5daa3,Mężczyzna,18,2021-07-13_22h06.17.549,rantool2,2021.1.4,Win32,144.092219,605b4d0e89f870e108c5daa3,60d9d14f4a8a35a482e0d9bf,60edf01746ddd9a8f4e7a71c,f,1.877,0,63,63,53,1,RRORORO,RRORORR,20.71309134,21.90565814,series_1
