key_resp_7.keys,key_resp_7.rt,trials_2.thisRepN,trials_2.thisTrialN,trials_2.thisN,trials_2.thisIndex,trials_2.ran,id,series_0,series_1,acss_0,acss_1,comparison,id*,Płeć*,Wiek*,date,expName,psychopyVersion,OS,frameRate,STUDY_ID,SESSION_ID,key_resp_5.keys,key_resp_5.corr,key_resp_5.rt,trials.thisRepN,trials.thisTrialN,trials.thisN,trials.thisIndex,trials.ran
j,2.906,0,0,0,6,1,612f34a45efd99b1fedaff98,OOORROO,OOORROR,21.12383932,21.38562617,series_1,612f34a45efd99b1fedaff98,Kobieta,23,2021-09-06_19h11.02.175,rantool2,2021.1.4,Win32,60.31363088,6135e006383e6ea6c3d06a28,61364b599f7bf727510175b0,,,,,,,,
f,2.456,0,1,1,17,1,612f34a45efd99b1fedaff98,OROOORO,OROOORR,21.03750787,22.12173012,series_1,612f34a45efd99b1fedaff98,Kobieta,23,2021-09-06_19h11.02.175,rantool2,2021.1.4,Win32,60.31363088,6135e006383e6ea6c3d06a28,61364b599f7bf727510175b0,,,,,,,,
j,2.736,0,2,2,49,1,612f34a45efd99b1fedaff98,RROOORO,RROOORR,21.76276513,22.53364006,series_1,612f34a45efd99b1fedaff98,Kobieta,23,2021-09-06_19h11.02.175,rantool2,2021.1.4,Win32,60.31363088,6135e006383e6ea6c3d06a28,61364b599f7bf727510175b0,,,,,,,,
f,3.467,0,3,3,28,1,612f34a45efd99b1fedaff98,ORRROOO,ORRROOR,22.24142883,22.53364006,series_1,612f34a45efd99b1fedaff98,Kobieta,23,2021-09-06_19h11.02.175,rantool2,2021.1.4,Win32,60.31363088,6135e006383e6ea6c3d06a28,61364b599f7bf727510175b0,,,,,,,,
,,0,4,4,38,1,612f34a45efd99b1fedaff98,ROORROO,ROORROR,21.79500819,21.36812781,series_0,612f34a45efd99b1fedaff98,Kobieta,23,2021-09-06_19h11.02.175,rantool2,2021.1.4,Win32,60.31363088,6135e006383e6ea6c3d06a28,61364b599f7bf727510175b0,,,,,,,,
j,2.377,0,5,5,42,1,612f34a45efd99b1fedaff98,ROROROO,ROROROR,20.39515459,19.8361834,series_0,612f34a45efd99b1fedaff98,Kobieta,23,2021-09-06_19h11.02.175,rantool2,2021.1.4,Win32,60.31363088,6135e006383e6ea6c3d06a28,61364b599f7bf727510175b0,,,,,,,,
j,2.338,0,6,6,51,1,612f34a45efd99b1fedaff98,RROORRO,RROORRR,21.89852628,22.02786418,series_1,612f34a45efd99b1fedaff98,Kobieta,23,2021-09-06_19h11.02.175,rantool2,2021.1.4,Win32,60.31363088,6135e006383e6ea6c3d06a28,61364b599f7bf727510175b0,,,,,,,,
j,1.828,0,7,7,5,1,612f34a45efd99b1fedaff98,OOORORO,OOORORR,20.87963819,21.9921709,series_1,612f34a45efd99b1fedaff98,Kobieta,23,2021-09-06_19h11.02.175,rantool2,2021.1.4,Win32,60.31363088,6135e006383e6ea6c3d06a28,61364b599f7bf727510175b0,,,,,,,,
f,2.82,0,8,8,19,1,612f34a45efd99b1fedaff98,OROORRO,OROORRR,21.73568164,22.11181017,series_1,612f34a45efd99b1fedaff98,Kobieta,23,2021-09-06_19h11.02.175,rantool2,2021.1.4,Win32,60.31363088,6135e006383e6ea6c3d06a28,61364b599f7bf727510175b0,,,,,,,,
f,2.355,0,9,9,59,1,612f34a45efd99b1fedaff98,RRRORRO,RRRORRR,21.56657303,20.89823192,series_0,612f34a45efd99b1fedaff98,Kobieta,23,2021-09-06_19h11.02.175,rantool2,2021.1.4,Win32,60.31363088,6135e006383e6ea6c3d06a28,61364b599f7bf727510175b0,,,,,,,,
j,1.792,0,10,10,10,1,612f34a45efd99b1fedaff98,OOROROO,OOROROR,21.31236711,21.07490964,series_0,612f34a45efd99b1fedaff98,Kobieta,23,2021-09-06_19h11.02.175,rantool2,2021.1.4,Win32,60.31363088,6135e006383e6ea6c3d06a28,61364b599f7bf727510175b0,,,,,,,,
f,2.622,0,11,11,3,1,612f34a45efd99b1fedaff98,OOOORRO,OOOORRR,20.90986523,21.74922619,series_1,612f34a45efd99b1fedaff98,Kobieta,23,2021-09-06_19h11.02.175,rantool2,2021.1.4,Win32,60.31363088,6135e006383e6ea6c3d06a28,61364b599f7bf727510175b0,,,,,,,,
j,1.663,0,12,12,14,1,612f34a45efd99b1fedaff98,OORRROO,OORRROR,22.24142883,22.16977179,series_0,612f34a45efd99b1fedaff98,Kobieta,23,2021-09-06_19h11.02.175,rantool2,2021.1.4,Win32,60.31363088,6135e006383e6ea6c3d06a28,61364b599f7bf727510175b0,,,,,,,,
f,1.942,0,13,13,4,1,612f34a45efd99b1fedaff98,OOOROOO,OOOROOR,19.91402015,21.21223021,series_1,612f34a45efd99b1fedaff98,Kobieta,23,2021-09-06_19h11.02.175,rantool2,2021.1.4,Win32,60.31363088,6135e006383e6ea6c3d06a28,61364b599f7bf727510175b0,,,,,,,,
j,2.873,0,14,14,24,1,612f34a45efd99b1fedaff98,ORROOOO,ORROOOR,21.12383932,22.07102821,series_1,612f34a45efd99b1fedaff98,Kobieta,23,2021-09-06_19h11.02.175,rantool2,2021.1.4,Win32,60.31363088,6135e006383e6ea6c3d06a28,61364b599f7bf727510175b0,,,,,,,,
j,2.308,0,15,15,27,1,612f34a45efd99b1fedaff98,ORRORRO,ORRORRR,21.55250791,22.2428857,series_1,612f34a45efd99b1fedaff98,Kobieta,23,2021-09-06_19h11.02.175,rantool2,2021.1.4,Win32,60.31363088,6135e006383e6ea6c3d06a28,61364b599f7bf727510175b0,,,,,,,,
f,3.02,0,16,16,58,1,612f34a45efd99b1fedaff98,RRROROO,RRROROR,22.1285618,21.37121559,series_0,612f34a45efd99b1fedaff98,Kobieta,23,2021-09-06_19h11.02.175,rantool2,2021.1.4,Win32,60.31363088,6135e006383e6ea6c3d06a28,61364b599f7bf727510175b0,,,,,,,,
j,3.958,0,17,17,35,1,612f34a45efd99b1fedaff98,ROOORRO,ROOORRR,21.76276513,22.16977179,series_1,612f34a45efd99b1fedaff98,Kobieta,23,2021-09-06_19h11.02.175,rantool2,2021.1.4,Win32,60.31363088,6135e006383e6ea6c3d06a28,61364b599f7bf727510175b0,,,,,,,,
f,2.256,0,18,18,33,1,612f34a45efd99b1fedaff98,ROOOORO,ROOOORR,20.83779602,22.03072203,series_1,612f34a45efd99b1fedaff98,Kobieta,23,2021-09-06_19h11.02.175,rantool2,2021.1.4,Win32,60.31363088,6135e006383e6ea6c3d06a28,61364b599f7bf727510175b0,,,,,,,,
f,2.539,0,19,19,20,1,612f34a45efd99b1fedaff98,OROROOO,OROROOR,21.31236711,21.90565814,series_1,612f34a45efd99b1fedaff98,Kobieta,23,2021-09-06_19h11.02.175,rantool2,2021.1.4,Win32,60.31363088,6135e006383e6ea6c3d06a28,61364b599f7bf727510175b0,,,,,,,,
j,2.191,0,20,20,52,1,612f34a45efd99b1fedaff98,RROROOO,RROROOR,22.18365867,22.11097995,series_0,612f34a45efd99b1fedaff98,Kobieta,23,2021-09-06_19h11.02.175,rantool2,2021.1.4,Win32,60.31363088,6135e006383e6ea6c3d06a28,61364b599f7bf727510175b0,,,,,,,,
f,1.678,0,21,21,26,1,612f34a45efd99b1fedaff98,ORROROO,ORROROR,22.02732763,21.71443381,series_0,612f34a45efd99b1fedaff98,Kobieta,23,2021-09-06_19h11.02.175,rantool2,2021.1.4,Win32,60.31363088,6135e006383e6ea6c3d06a28,61364b599f7bf727510175b0,,,,,,,,
f,1.509,0,22,22,8,1,612f34a45efd99b1fedaff98,OOROOOO,OOROOOR,19.91402015,20.89823192,series_1,612f34a45efd99b1fedaff98,Kobieta,23,2021-09-06_19h11.02.175,rantool2,2021.1.4,Win32,60.31363088,6135e006383e6ea6c3d06a28,61364b599f7bf727510175b0,,,,,,,,
f,2.272,0,23,23,53,1,612f34a45efd99b1fedaff98,RRORORO,RRORORR,20.71309134,21.90565814,series_1,612f34a45efd99b1fedaff98,Kobieta,23,2021-09-06_19h11.02.175,rantool2,2021.1.4,Win32,60.31363088,6135e006383e6ea6c3d06a28,61364b599f7bf727510175b0,,,,,,,,
j,2.392,0,24,24,9,1,612f34a45efd99b1fedaff98,OOROORO,OOROORR,21.07991943,22.2428857,series_1,612f34a45efd99b1fedaff98,Kobieta,23,2021-09-06_19h11.02.175,rantool2,2021.1.4,Win32,60.31363088,6135e006383e6ea6c3d06a28,61364b599f7bf727510175b0,,,,,,,,
f,2.39,0,25,25,25,1,612f34a45efd99b1fedaff98,ORROORO,ORROORR,21.79500819,22.61624387,series_1,612f34a45efd99b1fedaff98,Kobieta,23,2021-09-06_19h11.02.175,rantool2,2021.1.4,Win32,60.31363088,6135e006383e6ea6c3d06a28,61364b599f7bf727510175b0,,,,,,,,
j,1.362,0,26,26,32,1,612f34a45efd99b1fedaff98,ROOOOOO,ROOOOOR,19.92253567,21.27974287,series_1,612f34a45efd99b1fedaff98,Kobieta,23,2021-09-06_19h11.02.175,rantool2,2021.1.4,Win32,60.31363088,6135e006383e6ea6c3d06a28,61364b599f7bf727510175b0,,,,,,,,
j,2.451,0,27,27,23,1,612f34a45efd99b1fedaff98,ORORRRO,ORORRRR,22.1285618,21.9921709,series_0,612f34a45efd99b1fedaff98,Kobieta,23,2021-09-06_19h11.02.175,rantool2,2021.1.4,Win32,60.31363088,6135e006383e6ea6c3d06a28,61364b599f7bf727510175b0,,,,,,,,
j,1.538,0,28,28,1,1,612f34a45efd99b1fedaff98,OOOOORO,OOOOORR,19.92253567,20.74050628,series_1,612f34a45efd99b1fedaff98,Kobieta,23,2021-09-06_19h11.02.175,rantool2,2021.1.4,Win32,60.31363088,6135e006383e6ea6c3d06a28,61364b599f7bf727510175b0,,,,,,,,
j,1.593,0,29,29,11,1,612f34a45efd99b1fedaff98,OORORRO,OORORRR,22.18365867,22.6797523,series_1,612f34a45efd99b1fedaff98,Kobieta,23,2021-09-06_19h11.02.175,rantool2,2021.1.4,Win32,60.31363088,6135e006383e6ea6c3d06a28,61364b599f7bf727510175b0,,,,,,,,
f,2.014,0,30,30,21,1,612f34a45efd99b1fedaff98,ORORORO,ORORORR,20.39515459,22.06781359,series_1,612f34a45efd99b1fedaff98,Kobieta,23,2021-09-06_19h11.02.175,rantool2,2021.1.4,Win32,60.31363088,6135e006383e6ea6c3d06a28,61364b599f7bf727510175b0,,,,,,,,
j,1.776,0,31,31,63,1,612f34a45efd99b1fedaff98,RRRRRRO,RRRRRRR,21.35278725,19.62521613,series_0,612f34a45efd99b1fedaff98,Kobieta,23,2021-09-06_19h11.02.175,rantool2,2021.1.4,Win32,60.31363088,6135e006383e6ea6c3d06a28,61364b599f7bf727510175b0,,,,,,,,
j,1.644,0,32,32,12,1,612f34a45efd99b1fedaff98,OORROOO,OORROOR,21.30250474,22.02786418,series_1,612f34a45efd99b1fedaff98,Kobieta,23,2021-09-06_19h11.02.175,rantool2,2021.1.4,Win32,60.31363088,6135e006383e6ea6c3d06a28,61364b599f7bf727510175b0,,,,,,,,
f,1.195,0,33,33,16,1,612f34a45efd99b1fedaff98,OROOOOO,OROOOOR,20.43051175,21.17347734,series_1,612f34a45efd99b1fedaff98,Kobieta,23,2021-09-06_19h11.02.175,rantool2,2021.1.4,Win32,60.31363088,6135e006383e6ea6c3d06a28,61364b599f7bf727510175b0,,,,,,,,
j,1.629,0,34,34,31,1,612f34a45efd99b1fedaff98,ORRRRRO,ORRRRRR,22.16413392,20.74050628,series_0,612f34a45efd99b1fedaff98,Kobieta,23,2021-09-06_19h11.02.175,rantool2,2021.1.4,Win32,60.31363088,6135e006383e6ea6c3d06a28,61364b599f7bf727510175b0,,,,,,,,
f,1.53,0,35,35,30,1,612f34a45efd99b1fedaff98,ORRRROO,ORRRROR,22.46748491,22.03072203,series_0,612f34a45efd99b1fedaff98,Kobieta,23,2021-09-06_19h11.02.175,rantool2,2021.1.4,Win32,60.31363088,6135e006383e6ea6c3d06a28,61364b599f7bf727510175b0,,,,,,,,
j,2.076,0,36,36,39,1,612f34a45efd99b1fedaff98,ROORRRO,ROORRRR,21.82425538,21.38562617,series_0,612f34a45efd99b1fedaff98,Kobieta,23,2021-09-06_19h11.02.175,rantool2,2021.1.4,Win32,60.31363088,6135e006383e6ea6c3d06a28,61364b599f7bf727510175b0,,,,,,,,
j,1.682,0,37,37,40,1,612f34a45efd99b1fedaff98,ROROOOO,ROROOOR,20.87963819,21.37121559,series_1,612f34a45efd99b1fedaff98,Kobieta,23,2021-09-06_19h11.02.175,rantool2,2021.1.4,Win32,60.31363088,6135e006383e6ea6c3d06a28,61364b599f7bf727510175b0,,,,,,,,
j,1.792,0,38,38,34,1,612f34a45efd99b1fedaff98,ROOOROO,ROOOROR,21.03750787,21.24781509,series_1,612f34a45efd99b1fedaff98,Kobieta,23,2021-09-06_19h11.02.175,rantool2,2021.1.4,Win32,60.31363088,6135e006383e6ea6c3d06a28,61364b599f7bf727510175b0,,,,,,,,
f,2.075,0,39,39,47,1,612f34a45efd99b1fedaff98,RORRRRO,RORRRRR,21.81333602,21.02936224,series_0,612f34a45efd99b1fedaff98,Kobieta,23,2021-09-06_19h11.02.175,rantool2,2021.1.4,Win32,60.31363088,6135e006383e6ea6c3d06a28,61364b599f7bf727510175b0,,,,,,,,
j,1.896,0,40,40,18,1,612f34a45efd99b1fedaff98,OROOROO,OROOROR,20.84860893,21.22513037,series_1,612f34a45efd99b1fedaff98,Kobieta,23,2021-09-06_19h11.02.175,rantool2,2021.1.4,Win32,60.31363088,6135e006383e6ea6c3d06a28,61364b599f7bf727510175b0,,,,,,,,
f,1.627,0,41,41,41,1,612f34a45efd99b1fedaff98,ROROORO,ROROORR,20.42602454,21.71443381,series_1,612f34a45efd99b1fedaff98,Kobieta,23,2021-09-06_19h11.02.175,rantool2,2021.1.4,Win32,60.31363088,6135e006383e6ea6c3d06a28,61364b599f7bf727510175b0,,,,,,,,
f,1.96,0,42,42,7,1,612f34a45efd99b1fedaff98,OOORRRO,OOORRRR,21.6194508,21.899017,series_1,612f34a45efd99b1fedaff98,Kobieta,23,2021-09-06_19h11.02.175,rantool2,2021.1.4,Win32,60.31363088,6135e006383e6ea6c3d06a28,61364b599f7bf727510175b0,,,,,,,,
f,1.511,0,43,43,45,1,612f34a45efd99b1fedaff98,RORRORO,RORRORR,20.78182524,21.22513037,series_1,612f34a45efd99b1fedaff98,Kobieta,23,2021-09-06_19h11.02.175,rantool2,2021.1.4,Win32,60.31363088,6135e006383e6ea6c3d06a28,61364b599f7bf727510175b0,,,,,,,,
j,1.957,0,44,44,43,1,612f34a45efd99b1fedaff98,RORORRO,RORORRR,20.71309134,21.07490964,series_1,612f34a45efd99b1fedaff98,Kobieta,23,2021-09-06_19h11.02.175,rantool2,2021.1.4,Win32,60.31363088,6135e006383e6ea6c3d06a28,61364b599f7bf727510175b0,,,,,,,,
f,1.82,0,45,45,57,1,612f34a45efd99b1fedaff98,RRROORO,RRROORR,21.82425538,22.07102821,series_1,612f34a45efd99b1fedaff98,Kobieta,23,2021-09-06_19h11.02.175,rantool2,2021.1.4,Win32,60.31363088,6135e006383e6ea6c3d06a28,61364b599f7bf727510175b0,,,,,,,,
j,1.114,0,46,46,0,1,612f34a45efd99b1fedaff98,OOOOOOO,OOOOOOR,18.52739004,19.62521613,series_1,612f34a45efd99b1fedaff98,Kobieta,23,2021-09-06_19h11.02.175,rantool2,2021.1.4,Win32,60.31363088,6135e006383e6ea6c3d06a28,61364b599f7bf727510175b0,,,,,,,,
j,1.908,0,47,47,61,1,612f34a45efd99b1fedaff98,RRRRORO,RRRRORR,21.81333602,21.17347734,series_0,612f34a45efd99b1fedaff98,Kobieta,23,2021-09-06_19h11.02.175,rantool2,2021.1.4,Win32,60.31363088,6135e006383e6ea6c3d06a28,61364b599f7bf727510175b0,,,,,,,,
j,1.345,0,48,48,62,1,612f34a45efd99b1fedaff98,RRRRROO,RRRRROR,22.16413392,21.27974287,series_0,612f34a45efd99b1fedaff98,Kobieta,23,2021-09-06_19h11.02.175,rantool2,2021.1.4,Win32,60.31363088,6135e006383e6ea6c3d06a28,61364b599f7bf727510175b0,,,,,,,,
f,1.426,0,49,49,46,1,612f34a45efd99b1fedaff98,RORRROO,RORRROR,22.00300695,21.24781509,series_0,612f34a45efd99b1fedaff98,Kobieta,23,2021-09-06_19h11.02.175,rantool2,2021.1.4,Win32,60.31363088,6135e006383e6ea6c3d06a28,61364b599f7bf727510175b0,,,,,,,,
j,1.913,0,50,50,48,1,612f34a45efd99b1fedaff98,RROOOOO,RROOOOR,20.90986523,22.15934078,series_1,612f34a45efd99b1fedaff98,Kobieta,23,2021-09-06_19h11.02.175,rantool2,2021.1.4,Win32,60.31363088,6135e006383e6ea6c3d06a28,61364b599f7bf727510175b0,,,,,,,,
f,1.794,0,51,51,55,1,612f34a45efd99b1fedaff98,RRORRRO,RRORRRR,21.56657303,21.21223021,series_0,612f34a45efd99b1fedaff98,Kobieta,23,2021-09-06_19h11.02.175,rantool2,2021.1.4,Win32,60.31363088,6135e006383e6ea6c3d06a28,61364b599f7bf727510175b0,,,,,,,,
f,1.577,0,52,52,29,1,612f34a45efd99b1fedaff98,ORRRORO,ORRRORR,22.00300695,22.12173012,series_1,612f34a45efd99b1fedaff98,Kobieta,23,2021-09-06_19h11.02.175,rantool2,2021.1.4,Win32,60.31363088,6135e006383e6ea6c3d06a28,61364b599f7bf727510175b0,,,,,,,,
f,1.613,0,53,53,22,1,612f34a45efd99b1fedaff98,ORORROO,ORORROR,22.02732763,21.57657071,series_0,612f34a45efd99b1fedaff98,Kobieta,23,2021-09-06_19h11.02.175,rantool2,2021.1.4,Win32,60.31363088,6135e006383e6ea6c3d06a28,61364b599f7bf727510175b0,,,,,,,,
f,1.461,0,54,54,54,1,612f34a45efd99b1fedaff98,RRORROO,RRORROR,21.55250791,20.9984461,series_0,612f34a45efd99b1fedaff98,Kobieta,23,2021-09-06_19h11.02.175,rantool2,2021.1.4,Win32,60.31363088,6135e006383e6ea6c3d06a28,61364b599f7bf727510175b0,,,,,,,,
f,1.961,0,55,55,56,1,612f34a45efd99b1fedaff98,RRROOOO,RRROOOR,21.6194508,22.31681875,series_1,612f34a45efd99b1fedaff98,Kobieta,23,2021-09-06_19h11.02.175,rantool2,2021.1.4,Win32,60.31363088,6135e006383e6ea6c3d06a28,61364b599f7bf727510175b0,,,,,,,,
j,1.443,0,56,56,15,1,612f34a45efd99b1fedaff98,OORRRRO,OORRRRR,22.10108823,21.74922619,series_0,612f34a45efd99b1fedaff98,Kobieta,23,2021-09-06_19h11.02.175,rantool2,2021.1.4,Win32,60.31363088,6135e006383e6ea6c3d06a28,61364b599f7bf727510175b0,,,,,,,,
f,1.559,0,57,57,37,1,612f34a45efd99b1fedaff98,ROORORO,ROORORR,20.42602454,21.57657071,series_1,612f34a45efd99b1fedaff98,Kobieta,23,2021-09-06_19h11.02.175,rantool2,2021.1.4,Win32,60.31363088,6135e006383e6ea6c3d06a28,61364b599f7bf727510175b0,,,,,,,,
j,1.266,0,58,58,2,1,612f34a45efd99b1fedaff98,OOOOROO,OOOOROR,20.43051175,21.02936224,series_1,612f34a45efd99b1fedaff98,Kobieta,23,2021-09-06_19h11.02.175,rantool2,2021.1.4,Win32,60.31363088,6135e006383e6ea6c3d06a28,61364b599f7bf727510175b0,,,,,,,,
j,2.376,0,59,59,44,1,612f34a45efd99b1fedaff98,RORROOO,RORROOR,21.66733484,22.02566557,series_1,612f34a45efd99b1fedaff98,Kobieta,23,2021-09-06_19h11.02.175,rantool2,2021.1.4,Win32,60.31363088,6135e006383e6ea6c3d06a28,61364b599f7bf727510175b0,,,,,,,,
j,1.378,0,60,60,60,1,612f34a45efd99b1fedaff98,RRRROOO,RRRROOR,22.10108823,22.15934078,series_1,612f34a45efd99b1fedaff98,Kobieta,23,2021-09-06_19h11.02.175,rantool2,2021.1.4,Win32,60.31363088,6135e006383e6ea6c3d06a28,61364b599f7bf727510175b0,,,,,,,,
j,1.842,0,61,61,13,1,612f34a45efd99b1fedaff98,OORRORO,OORRORR,21.66733484,22.11181017,series_1,612f34a45efd99b1fedaff98,Kobieta,23,2021-09-06_19h11.02.175,rantool2,2021.1.4,Win32,60.31363088,6135e006383e6ea6c3d06a28,61364b599f7bf727510175b0,,,,,,,,
j,1.679,0,62,62,50,1,612f34a45efd99b1fedaff98,RROOROO,RROOROR,21.73568164,22.02566557,series_1,612f34a45efd99b1fedaff98,Kobieta,23,2021-09-06_19h11.02.175,rantool2,2021.1.4,Win32,60.31363088,6135e006383e6ea6c3d06a28,61364b599f7bf727510175b0,,,,,,,,
f,1.31,0,63,63,36,1,612f34a45efd99b1fedaff98,ROOROOO,ROOROOR,21.07991943,20.9984461,series_0,612f34a45efd99b1fedaff98,Kobieta,23,2021-09-06_19h11.02.175,rantool2,2021.1.4,Win32,60.31363088,6135e006383e6ea6c3d06a28,61364b599f7bf727510175b0,,,,,,,,
,,,,,,,612f34a45efd99b1fedaff98,,,,,,612f34a45efd99b1fedaff98,Kobieta,23,2021-09-06_19h11.02.175,rantool2,2021.1.4,Win32,60.31363088,6135e006383e6ea6c3d06a28,61364b599f7bf727510175b0,"[""comma""]",0,[1.4020000000000437],0,0,0,0,1
,,,,,,,612f34a45efd99b1fedaff98,,,,,,612f34a45efd99b1fedaff98,Kobieta,23,2021-09-06_19h11.02.175,rantool2,2021.1.4,Win32,60.31363088,6135e006383e6ea6c3d06a28,61364b599f7bf727510175b0,"[""comma""]",0,[0.46699999999998454],1,0,1,0,1
,,,,,,,612f34a45efd99b1fedaff98,,,,,,612f34a45efd99b1fedaff98,Kobieta,23,2021-09-06_19h11.02.175,rantool2,2021.1.4,Win32,60.31363088,6135e006383e6ea6c3d06a28,61364b599f7bf727510175b0,"[""period""]",0,[0.367999999999995],2,0,2,0,1
,,,,,,,612f34a45efd99b1fedaff98,,,,,,612f34a45efd99b1fedaff98,Kobieta,23,2021-09-06_19h11.02.175,rantool2,2021.1.4,Win32,60.31363088,6135e006383e6ea6c3d06a28,61364b599f7bf727510175b0,"[""comma""]",0,[0.28799999999995407],3,0,3,0,1
,,,,,,,612f34a45efd99b1fedaff98,,,,,,612f34a45efd99b1fedaff98,Kobieta,23,2021-09-06_19h11.02.175,rantool2,2021.1.4,Win32,60.31363088,6135e006383e6ea6c3d06a28,61364b599f7bf727510175b0,"[""period""]",0,[0.3550000000000182],4,0,4,0,1
,,,,,,,612f34a45efd99b1fedaff98,,,,,,612f34a45efd99b1fedaff98,Kobieta,23,2021-09-06_19h11.02.175,rantool2,2021.1.4,Win32,60.31363088,6135e006383e6ea6c3d06a28,61364b599f7bf727510175b0,"[""period""]",0,[0.3009999999999877],5,0,5,0,1
,,,,,,,612f34a45efd99b1fedaff98,,,,,,612f34a45efd99b1fedaff98,Kobieta,23,2021-09-06_19h11.02.175,rantool2,2021.1.4,Win32,60.31363088,6135e006383e6ea6c3d06a28,61364b599f7bf727510175b0,"[""period""]",0,[0.30299999999999727],6,0,6,0,1
,,,,,,,612f34a45efd99b1fedaff98,,,,,,612f34a45efd99b1fedaff98,Kobieta,23,2021-09-06_19h11.02.175,rantool2,2021.1.4,Win32,60.31363088,6135e006383e6ea6c3d06a28,61364b599f7bf727510175b0,"[""comma""]",0,[0.31799999999998363],7,0,7,0,1
,,,,,,,612f34a45efd99b1fedaff98,,,,,,612f34a45efd99b1fedaff98,Kobieta,23,2021-09-06_19h11.02.175,rantool2,2021.1.4,Win32,60.31363088,6135e006383e6ea6c3d06a28,61364b599f7bf727510175b0,"[""period""]",0,[0.3020000000000209],8,0,8,0,1
,,,,,,,612f34a45efd99b1fedaff98,,,,,,612f34a45efd99b1fedaff98,Kobieta,23,2021-09-06_19h11.02.175,rantool2,2021.1.4,Win32,60.31363088,6135e006383e6ea6c3d06a28,61364b599f7bf727510175b0,"[""period""]",0,[0.25600000000002865],9,0,9,0,1
,,,,,,,612f34a45efd99b1fedaff98,,,,,,612f34a45efd99b1fedaff98,Kobieta,23,2021-09-06_19h11.02.175,rantool2,2021.1.4,Win32,60.31363088,6135e006383e6ea6c3d06a28,61364b599f7bf727510175b0,"[""comma""]",0,[0.3160000000000309],10,0,10,0,1
,,,,,,,612f34a45efd99b1fedaff98,,,,,,612f34a45efd99b1fedaff98,Kobieta,23,2021-09-06_19h11.02.175,rantool2,2021.1.4,Win32,60.31363088,6135e006383e6ea6c3d06a28,61364b599f7bf727510175b0,"[""comma""]",0,[0.3359999999999559],11,0,11,0,1
,,,,,,,612f34a45efd99b1fedaff98,,,,,,612f34a45efd99b1fedaff98,Kobieta,23,2021-09-06_19h11.02.175,rantool2,2021.1.4,Win32,60.31363088,6135e006383e6ea6c3d06a28,61364b599f7bf727510175b0,"[""comma""]",0,[0.2699999999999818],12,0,12,0,1
,,,,,,,612f34a45efd99b1fedaff98,,,,,,612f34a45efd99b1fedaff98,Kobieta,23,2021-09-06_19h11.02.175,rantool2,2021.1.4,Win32,60.31363088,6135e006383e6ea6c3d06a28,61364b599f7bf727510175b0,"[""comma""]",0,[0.28499999999996817],13,0,13,0,1
,,,,,,,612f34a45efd99b1fedaff98,,,,,,612f34a45efd99b1fedaff98,Kobieta,23,2021-09-06_19h11.02.175,rantool2,2021.1.4,Win32,60.31363088,6135e006383e6ea6c3d06a28,61364b599f7bf727510175b0,"[""comma""]",0,[0.28600000000000136],14,0,14,0,1
,,,,,,,612f34a45efd99b1fedaff98,,,,,,612f34a45efd99b1fedaff98,Kobieta,23,2021-09-06_19h11.02.175,rantool2,2021.1.4,Win32,60.31363088,6135e006383e6ea6c3d06a28,61364b599f7bf727510175b0,"[""comma""]",0,[0.2559999999999718],15,0,15,0,1
,,,,,,,612f34a45efd99b1fedaff98,,,,,,612f34a45efd99b1fedaff98,Kobieta,23,2021-09-06_19h11.02.175,rantool2,2021.1.4,Win32,60.31363088,6135e006383e6ea6c3d06a28,61364b599f7bf727510175b0,"[""period""]",0,[0.28600000000000136],16,0,16,0,1
,,,,,,,612f34a45efd99b1fedaff98,,,,,,612f34a45efd99b1fedaff98,Kobieta,23,2021-09-06_19h11.02.175,rantool2,2021.1.4,Win32,60.31363088,6135e006383e6ea6c3d06a28,61364b599f7bf727510175b0,"[""comma""]",0,[0.16999999999995907],17,0,17,0,1
,,,,,,,612f34a45efd99b1fedaff98,,,,,,612f34a45efd99b1fedaff98,Kobieta,23,2021-09-06_19h11.02.175,rantool2,2021.1.4,Win32,60.31363088,6135e006383e6ea6c3d06a28,61364b599f7bf727510175b0,"[""comma""]",0,[0.13700000000000045],18,0,18,0,1
,,,,,,,612f34a45efd99b1fedaff98,,,,,,612f34a45efd99b1fedaff98,Kobieta,23,2021-09-06_19h11.02.175,rantool2,2021.1.4,Win32,60.31363088,6135e006383e6ea6c3d06a28,61364b599f7bf727510175b0,"[""comma""]",0,[0.3039999999999736],19,0,19,0,1
,,,,,,,612f34a45efd99b1fedaff98,,,,,,612f34a45efd99b1fedaff98,Kobieta,23,2021-09-06_19h11.02.175,rantool2,2021.1.4,Win32,60.31363088,6135e006383e6ea6c3d06a28,61364b599f7bf727510175b0,"[""period""]",0,[0.3480000000000132],20,0,20,0,1
,,,,,,,612f34a45efd99b1fedaff98,,,,,,612f34a45efd99b1fedaff98,Kobieta,23,2021-09-06_19h11.02.175,rantool2,2021.1.4,Win32,60.31363088,6135e006383e6ea6c3d06a28,61364b599f7bf727510175b0,"[""period""]",0,[0.3170000000000073],21,0,21,0,1
,,,,,,,612f34a45efd99b1fedaff98,,,,,,612f34a45efd99b1fedaff98,Kobieta,23,2021-09-06_19h11.02.175,rantool2,2021.1.4,Win32,60.31363088,6135e006383e6ea6c3d06a28,61364b599f7bf727510175b0,"[""comma""]",0,[0.3199999999999932],22,0,22,0,1
,,,,,,,612f34a45efd99b1fedaff98,,,,,,612f34a45efd99b1fedaff98,Kobieta,23,2021-09-06_19h11.02.175,rantool2,2021.1.4,Win32,60.31363088,6135e006383e6ea6c3d06a28,61364b599f7bf727510175b0,"[""period""]",0,[0.3020000000000209],23,0,23,0,1
,,,,,,,612f34a45efd99b1fedaff98,,,,,,612f34a45efd99b1fedaff98,Kobieta,23,2021-09-06_19h11.02.175,rantool2,2021.1.4,Win32,60.31363088,6135e006383e6ea6c3d06a28,61364b599f7bf727510175b0,"[""period""]",0,[0.2540000000000191],24,0,24,0,1
,,,,,,,612f34a45efd99b1fedaff98,,,,,,612f34a45efd99b1fedaff98,Kobieta,23,2021-09-06_19h11.02.175,rantool2,2021.1.4,Win32,60.31363088,6135e006383e6ea6c3d06a28,61364b599f7bf727510175b0,"[""period""]",0,[0.28899999999998727],25,0,25,0,1
,,,,,,,612f34a45efd99b1fedaff98,,,,,,612f34a45efd99b1fedaff98,Kobieta,23,2021-09-06_19h11.02.175,rantool2,2021.1.4,Win32,60.31363088,6135e006383e6ea6c3d06a28,61364b599f7bf727510175b0,"[""period""]",0,[0.2669999999999959],26,0,26,0,1
,,,,,,,612f34a45efd99b1fedaff98,,,,,,612f34a45efd99b1fedaff98,Kobieta,23,2021-09-06_19h11.02.175,rantool2,2021.1.4,Win32,60.31363088,6135e006383e6ea6c3d06a28,61364b599f7bf727510175b0,"[""comma""]",0,[0.27000000000003865],27,0,27,0,1
,,,,,,,612f34a45efd99b1fedaff98,,,,,,612f34a45efd99b1fedaff98,Kobieta,23,2021-09-06_19h11.02.175,rantool2,2021.1.4,Win32,60.31363088,6135e006383e6ea6c3d06a28,61364b599f7bf727510175b0,"[""period""]",0,[0.285000000000025],28,0,28,0,1
,,,,,,,612f34a45efd99b1fedaff98,,,,,,612f34a45efd99b1fedaff98,Kobieta,23,2021-09-06_19h11.02.175,rantool2,2021.1.4,Win32,60.31363088,6135e006383e6ea6c3d06a28,61364b599f7bf727510175b0,"[""period""]",0,[0.367999999999995],29,0,29,0,1
,,,,,,,612f34a45efd99b1fedaff98,,,,,,612f34a45efd99b1fedaff98,Kobieta,23,2021-09-06_19h11.02.175,rantool2,2021.1.4,Win32,60.31363088,6135e006383e6ea6c3d06a28,61364b599f7bf727510175b0,"[""comma""]",0,[0.28600000000000136],30,0,30,0,1
,,,,,,,612f34a45efd99b1fedaff98,,,,,,612f34a45efd99b1fedaff98,Kobieta,23,2021-09-06_19h11.02.175,rantool2,2021.1.4,Win32,60.31363088,6135e006383e6ea6c3d06a28,61364b599f7bf727510175b0,"[""comma""]",0,[0.28799999999995407],31,0,31,0,1
,,,,,,,612f34a45efd99b1fedaff98,,,,,,612f34a45efd99b1fedaff98,Kobieta,23,2021-09-06_19h11.02.175,rantool2,2021.1.4,Win32,60.31363088,6135e006383e6ea6c3d06a28,61364b599f7bf727510175b0,"[""comma""]",0,[0.25],32,0,32,0,1
,,,,,,,612f34a45efd99b1fedaff98,,,,,,612f34a45efd99b1fedaff98,Kobieta,23,2021-09-06_19h11.02.175,rantool2,2021.1.4,Win32,60.31363088,6135e006383e6ea6c3d06a28,61364b599f7bf727510175b0,"[""comma""]",0,[0.15300000000002],33,0,33,0,1
,,,,,,,612f34a45efd99b1fedaff98,,,,,,612f34a45efd99b1fedaff98,Kobieta,23,2021-09-06_19h11.02.175,rantool2,2021.1.4,Win32,60.31363088,6135e006383e6ea6c3d06a28,61364b599f7bf727510175b0,"[""comma""]",0,[0.07199999999994589],34,0,34,0,1
,,,,,,,612f34a45efd99b1fedaff98,,,,,,612f34a45efd99b1fedaff98,Kobieta,23,2021-09-06_19h11.02.175,rantool2,2021.1.4,Win32,60.31363088,6135e006383e6ea6c3d06a28,61364b599f7bf727510175b0,"[""comma""]",0,[0.002999999999985903],35,0,35,0,1
,,,,,,,612f34a45efd99b1fedaff98,,,,,,612f34a45efd99b1fedaff98,Kobieta,23,2021-09-06_19h11.02.175,rantool2,2021.1.4,Win32,60.31363088,6135e006383e6ea6c3d06a28,61364b599f7bf727510175b0,"[""period""]",0,[0.3170000000000073],36,0,36,0,1
,,,,,,,612f34a45efd99b1fedaff98,,,,,,612f34a45efd99b1fedaff98,Kobieta,23,2021-09-06_19h11.02.175,rantool2,2021.1.4,Win32,60.31363088,6135e006383e6ea6c3d06a28,61364b599f7bf727510175b0,"[""comma""]",0,[0.2740000000000009],37,0,37,0,1
,,,,,,,612f34a45efd99b1fedaff98,,,,,,612f34a45efd99b1fedaff98,Kobieta,23,2021-09-06_19h11.02.175,rantool2,2021.1.4,Win32,60.31363088,6135e006383e6ea6c3d06a28,61364b599f7bf727510175b0,"[""period""]",0,[0.3210000000000264],38,0,38,0,1
,,,,,,,612f34a45efd99b1fedaff98,,,,,,612f34a45efd99b1fedaff98,Kobieta,23,2021-09-06_19h11.02.175,rantool2,2021.1.4,Win32,60.31363088,6135e006383e6ea6c3d06a28,61364b599f7bf727510175b0,"[""period""]",0,[0.2669999999999959],39,0,39,0,1
,,,,,,,612f34a45efd99b1fedaff98,,,,,,612f34a45efd99b1fedaff98,Kobieta,23,2021-09-06_19h11.02.175,rantool2,2021.1.4,Win32,60.31363088,6135e006383e6ea6c3d06a28,61364b599f7bf727510175b0,"[""period""]",0,[0.2869999999999777],40,0,40,0,1
,,,,,,,612f34a45efd99b1fedaff98,,,,,,612f34a45efd99b1fedaff98,Kobieta,23,2021-09-06_19h11.02.175,rantool2,2021.1.4,Win32,60.31363088,6135e006383e6ea6c3d06a28,61364b599f7bf727510175b0,"[""period""]",0,[0.18400000000002592],41,0,41,0,1
,,,,,,,612f34a45efd99b1fedaff98,,,,,,612f34a45efd99b1fedaff98,Kobieta,23,2021-09-06_19h11.02.175,rantool2,2021.1.4,Win32,60.31363088,6135e006383e6ea6c3d06a28,61364b599f7bf727510175b0,"[""period""]",0,[0.30400000000003047],42,0,42,0,1
,,,,,,,612f34a45efd99b1fedaff98,,,,,,612f34a45efd99b1fedaff98,Kobieta,23,2021-09-06_19h11.02.175,rantool2,2021.1.4,Win32,60.31363088,6135e006383e6ea6c3d06a28,61364b599f7bf727510175b0,"[""period""]",0,[0.31899999999996],43,0,43,0,1
,,,,,,,612f34a45efd99b1fedaff98,,,,,,612f34a45efd99b1fedaff98,Kobieta,23,2021-09-06_19h11.02.175,rantool2,2021.1.4,Win32,60.31363088,6135e006383e6ea6c3d06a28,61364b599f7bf727510175b0,"[""period""]",0,[0.2510000000000332],44,0,44,0,1
,,,,,,,612f34a45efd99b1fedaff98,,,,,,612f34a45efd99b1fedaff98,Kobieta,23,2021-09-06_19h11.02.175,rantool2,2021.1.4,Win32,60.31363088,6135e006383e6ea6c3d06a28,61364b599f7bf727510175b0,"[""period""]",0,[0.17099999999999227],45,0,45,0,1
,,,,,,,612f34a45efd99b1fedaff98,,,,,,612f34a45efd99b1fedaff98,Kobieta,23,2021-09-06_19h11.02.175,rantool2,2021.1.4,Win32,60.31363088,6135e006383e6ea6c3d06a28,61364b599f7bf727510175b0,"[""period""]",0,[0.2699999999999818],46,0,46,0,1
,,,,,,,612f34a45efd99b1fedaff98,,,,,,612f34a45efd99b1fedaff98,Kobieta,23,2021-09-06_19h11.02.175,rantool2,2021.1.4,Win32,60.31363088,6135e006383e6ea6c3d06a28,61364b599f7bf727510175b0,"[""comma""]",0,[0.3019999999999641],47,0,47,0,1
,,,,,,,612f34a45efd99b1fedaff98,,,,,,612f34a45efd99b1fedaff98,Kobieta,23,2021-09-06_19h11.02.175,rantool2,2021.1.4,Win32,60.31363088,6135e006383e6ea6c3d06a28,61364b599f7bf727510175b0,"[""period""]",0,[0.2680000000000291],48,0,48,0,1
,,,,,,,612f34a45efd99b1fedaff98,,,,,,612f34a45efd99b1fedaff98,Kobieta,23,2021-09-06_19h11.02.175,rantool2,2021.1.4,Win32,60.31363088,6135e006383e6ea6c3d06a28,61364b599f7bf727510175b0,"[""period""]",0,[0.25],49,0,49,0,1
,,,,,,,612f34a45efd99b1fedaff98,,,,,,612f34a45efd99b1fedaff98,Kobieta,23,2021-09-06_19h11.02.175,rantool2,2021.1.4,Win32,60.31363088,6135e006383e6ea6c3d06a28,61364b599f7bf727510175b0,"[""period""]",0,[0.23699999999996635],50,0,50,0,1
,,,,,,,612f34a45efd99b1fedaff98,,,,,,612f34a45efd99b1fedaff98,Kobieta,23,2021-09-06_19h11.02.175,rantool2,2021.1.4,Win32,60.31363088,6135e006383e6ea6c3d06a28,61364b599f7bf727510175b0,"[""period""]",0,[0.2550000000000523],51,0,51,0,1
,,,,,,,612f34a45efd99b1fedaff98,,,,,,612f34a45efd99b1fedaff98,Kobieta,23,2021-09-06_19h11.02.175,rantool2,2021.1.4,Win32,60.31363088,6135e006383e6ea6c3d06a28,61364b599f7bf727510175b0,"[""comma""]",0,[0.20199999999999818],52,0,52,0,1
,,,,,,,612f34a45efd99b1fedaff98,,,,,,612f34a45efd99b1fedaff98,Kobieta,23,2021-09-06_19h11.02.175,rantool2,2021.1.4,Win32,60.31363088,6135e006383e6ea6c3d06a28,61364b599f7bf727510175b0,"[""comma""]",0,[0.25300000000004275],53,0,53,0,1
,,,,,,,612f34a45efd99b1fedaff98,,,,,,612f34a45efd99b1fedaff98,Kobieta,23,2021-09-06_19h11.02.175,rantool2,2021.1.4,Win32,60.31363088,6135e006383e6ea6c3d06a28,61364b599f7bf727510175b0,"[""period""]",0,[0.3020000000000209],54,0,54,0,1
,,,,,,,612f34a45efd99b1fedaff98,,,,,,612f34a45efd99b1fedaff98,Kobieta,23,2021-09-06_19h11.02.175,rantool2,2021.1.4,Win32,60.31363088,6135e006383e6ea6c3d06a28,61364b599f7bf727510175b0,"[""comma""]",0,[0.30000000000001137],55,0,55,0,1
,,,,,,,612f34a45efd99b1fedaff98,,,,,,612f34a45efd99b1fedaff98,Kobieta,23,2021-09-06_19h11.02.175,rantool2,2021.1.4,Win32,60.31363088,6135e006383e6ea6c3d06a28,61364b599f7bf727510175b0,"[""comma""]",0,[0.25300000000004275],56,0,56,0,1
,,,,,,,612f34a45efd99b1fedaff98,,,,,,612f34a45efd99b1fedaff98,Kobieta,23,2021-09-06_19h11.02.175,rantool2,2021.1.4,Win32,60.31363088,6135e006383e6ea6c3d06a28,61364b599f7bf727510175b0,"[""comma""]",0,[0.2699999999999818],57,0,57,0,1
,,,,,,,612f34a45efd99b1fedaff98,,,,,,612f34a45efd99b1fedaff98,Kobieta,23,2021-09-06_19h11.02.175,rantool2,2021.1.4,Win32,60.31363088,6135e006383e6ea6c3d06a28,61364b599f7bf727510175b0,"[""comma""]",0,[0.28700000000003456],58,0,58,0,1
,,,,,,,612f34a45efd99b1fedaff98,,,,,,612f34a45efd99b1fedaff98,Kobieta,23,2021-09-06_19h11.02.175,rantool2,2021.1.4,Win32,60.31363088,6135e006383e6ea6c3d06a28,61364b599f7bf727510175b0,"[""period""]",0,[0.3020000000000209],59,0,59,0,1
,,,,,,,612f34a45efd99b1fedaff98,,,,,,612f34a45efd99b1fedaff98,Kobieta,23,2021-09-06_19h11.02.175,rantool2,2021.1.4,Win32,60.31363088,6135e006383e6ea6c3d06a28,61364b599f7bf727510175b0,"[""comma""]",0,[0.021000000000015007],60,0,60,0,1
,,,,,,,612f34a45efd99b1fedaff98,,,,,,612f34a45efd99b1fedaff98,Kobieta,23,2021-09-06_19h11.02.175,rantool2,2021.1.4,Win32,60.31363088,6135e006383e6ea6c3d06a28,61364b599f7bf727510175b0,"[""period""]",0,[0.30400000000003047],61,0,61,0,1
,,,,,,,612f34a45efd99b1fedaff98,,,,,,612f34a45efd99b1fedaff98,Kobieta,23,2021-09-06_19h11.02.175,rantool2,2021.1.4,Win32,60.31363088,6135e006383e6ea6c3d06a28,61364b599f7bf727510175b0,"[""comma""]",0,[0.2839999999999918],62,0,62,0,1
,,,,,,,612f34a45efd99b1fedaff98,,,,,,612f34a45efd99b1fedaff98,Kobieta,23,2021-09-06_19h11.02.175,rantool2,2021.1.4,Win32,60.31363088,6135e006383e6ea6c3d06a28,61364b599f7bf727510175b0,"[""comma""]",0,[0.285000000000025],63,0,63,0,1
,,,,,,,612f34a45efd99b1fedaff98,,,,,,612f34a45efd99b1fedaff98,Kobieta,23,2021-09-06_19h11.02.175,rantool2,2021.1.4,Win32,60.31363088,6135e006383e6ea6c3d06a28,61364b599f7bf727510175b0,"[""comma""]",0,[0.30000000000001137],64,0,64,0,1
,,,,,,,612f34a45efd99b1fedaff98,,,,,,612f34a45efd99b1fedaff98,Kobieta,23,2021-09-06_19h11.02.175,rantool2,2021.1.4,Win32,60.31363088,6135e006383e6ea6c3d06a28,61364b599f7bf727510175b0,"[""comma""]",0,[0.23399999999998045],65,0,65,0,1
,,,,,,,612f34a45efd99b1fedaff98,,,,,,612f34a45efd99b1fedaff98,Kobieta,23,2021-09-06_19h11.02.175,rantool2,2021.1.4,Win32,60.31363088,6135e006383e6ea6c3d06a28,61364b599f7bf727510175b0,"[""comma""]",0,[0.26900000000000546],66,0,66,0,1
,,,,,,,612f34a45efd99b1fedaff98,,,,,,612f34a45efd99b1fedaff98,Kobieta,23,2021-09-06_19h11.02.175,rantool2,2021.1.4,Win32,60.31363088,6135e006383e6ea6c3d06a28,61364b599f7bf727510175b0,"[""comma""]",0,[0.25499999999999545],67,0,67,0,1
,,,,,,,612f34a45efd99b1fedaff98,,,,,,612f34a45efd99b1fedaff98,Kobieta,23,2021-09-06_19h11.02.175,rantool2,2021.1.4,Win32,60.31363088,6135e006383e6ea6c3d06a28,61364b599f7bf727510175b0,"[""period""]",0,[0.2999999999999545],68,0,68,0,1
,,,,,,,612f34a45efd99b1fedaff98,,,,,,612f34a45efd99b1fedaff98,Kobieta,23,2021-09-06_19h11.02.175,rantool2,2021.1.4,Win32,60.31363088,6135e006383e6ea6c3d06a28,61364b599f7bf727510175b0,"[""period""]",0,[0.3019999999999641],69,0,69,0,1
,,,,,,,612f34a45efd99b1fedaff98,,,,,,612f34a45efd99b1fedaff98,Kobieta,23,2021-09-06_19h11.02.175,rantool2,2021.1.4,Win32,60.31363088,6135e006383e6ea6c3d06a28,61364b599f7bf727510175b0,"[""comma""]",0,[0.25],70,0,70,0,1
,,,,,,,612f34a45efd99b1fedaff98,,,,,,612f34a45efd99b1fedaff98,Kobieta,23,2021-09-06_19h11.02.175,rantool2,2021.1.4,Win32,60.31363088,6135e006383e6ea6c3d06a28,61364b599f7bf727510175b0,"[""comma""]",0,[0.2559999999999718],71,0,71,0,1
,,,,,,,612f34a45efd99b1fedaff98,,,,,,612f34a45efd99b1fedaff98,Kobieta,23,2021-09-06_19h11.02.175,rantool2,2021.1.4,Win32,60.31363088,6135e006383e6ea6c3d06a28,61364b599f7bf727510175b0,"[""period""]",0,[0.23600000000004684],72,0,72,0,1
,,,,,,,612f34a45efd99b1fedaff98,,,,,,612f34a45efd99b1fedaff98,Kobieta,23,2021-09-06_19h11.02.175,rantool2,2021.1.4,Win32,60.31363088,6135e006383e6ea6c3d06a28,61364b599f7bf727510175b0,"[""comma""]",0,[0.285000000000025],73,0,73,0,1
,,,,,,,612f34a45efd99b1fedaff98,,,,,,612f34a45efd99b1fedaff98,Kobieta,23,2021-09-06_19h11.02.175,rantool2,2021.1.4,Win32,60.31363088,6135e006383e6ea6c3d06a28,61364b599f7bf727510175b0,"[""comma""]",0,[0.18700000000001182],74,0,74,0,1
,,,,,,,612f34a45efd99b1fedaff98,,,,,,612f34a45efd99b1fedaff98,Kobieta,23,2021-09-06_19h11.02.175,rantool2,2021.1.4,Win32,60.31363088,6135e006383e6ea6c3d06a28,61364b599f7bf727510175b0,"[""comma""]",0,[0.2179999999999609],75,0,75,0,1
,,,,,,,612f34a45efd99b1fedaff98,,,,,,612f34a45efd99b1fedaff98,Kobieta,23,2021-09-06_19h11.02.175,rantool2,2021.1.4,Win32,60.31363088,6135e006383e6ea6c3d06a28,61364b599f7bf727510175b0,"[""comma"",""comma""]",0,"[0.30299999999999727,1.8319999999999936]",76,0,76,0,1
,,,,,,,612f34a45efd99b1fedaff98,,,,,,612f34a45efd99b1fedaff98,Kobieta,23,2021-09-06_19h11.02.175,rantool2,2021.1.4,Win32,60.31363088,6135e006383e6ea6c3d06a28,61364b599f7bf727510175b0,"[""comma""]",0,[0.33600000000001273],77,0,77,0,1
,,,,,,,612f34a45efd99b1fedaff98,,,,,,612f34a45efd99b1fedaff98,Kobieta,23,2021-09-06_19h11.02.175,rantool2,2021.1.4,Win32,60.31363088,6135e006383e6ea6c3d06a28,61364b599f7bf727510175b0,"[""period""]",0,[0.28300000000001546],78,0,78,0,1
,,,,,,,612f34a45efd99b1fedaff98,,,,,,612f34a45efd99b1fedaff98,Kobieta,23,2021-09-06_19h11.02.175,rantool2,2021.1.4,Win32,60.31363088,6135e006383e6ea6c3d06a28,61364b599f7bf727510175b0,"[""period""]",0,[0.3170000000000073],79,0,79,0,1
,,,,,,,612f34a45efd99b1fedaff98,,,,,,612f34a45efd99b1fedaff98,Kobieta,23,2021-09-06_19h11.02.175,rantool2,2021.1.4,Win32,60.31363088,6135e006383e6ea6c3d06a28,61364b599f7bf727510175b0,"[""comma""]",0,[0.25600000000002865],80,0,80,0,1
,,,,,,,612f34a45efd99b1fedaff98,,,,,,612f34a45efd99b1fedaff98,Kobieta,23,2021-09-06_19h11.02.175,rantool2,2021.1.4,Win32,60.31363088,6135e006383e6ea6c3d06a28,61364b599f7bf727510175b0,"[""period""]",0,[0.28499999999996817],81,0,81,0,1
,,,,,,,612f34a45efd99b1fedaff98,,,,,,612f34a45efd99b1fedaff98,Kobieta,23,2021-09-06_19h11.02.175,rantool2,2021.1.4,Win32,60.31363088,6135e006383e6ea6c3d06a28,61364b599f7bf727510175b0,"[""comma""]",0,[0.25],82,0,82,0,1
,,,,,,,612f34a45efd99b1fedaff98,,,,,,612f34a45efd99b1fedaff98,Kobieta,23,2021-09-06_19h11.02.175,rantool2,2021.1.4,Win32,60.31363088,6135e006383e6ea6c3d06a28,61364b599f7bf727510175b0,"[""comma""]",0,[0.271000000000015],83,0,83,0,1
,,,,,,,612f34a45efd99b1fedaff98,,,,,,612f34a45efd99b1fedaff98,Kobieta,23,2021-09-06_19h11.02.175,rantool2,2021.1.4,Win32,60.31363088,6135e006383e6ea6c3d06a28,61364b599f7bf727510175b0,"[""period""]",0,[0.21800000000001774],84,0,84,0,1
,,,,,,,612f34a45efd99b1fedaff98,,,,,,612f34a45efd99b1fedaff98,Kobieta,23,2021-09-06_19h11.02.175,rantool2,2021.1.4,Win32,60.31363088,6135e006383e6ea6c3d06a28,61364b599f7bf727510175b0,"[""period""]",0,[0.24799999999999045],85,0,85,0,1
,,,,,,,612f34a45efd99b1fedaff98,,,,,,612f34a45efd99b1fedaff98,Kobieta,23,2021-09-06_19h11.02.175,rantool2,2021.1.4,Win32,60.31363088,6135e006383e6ea6c3d06a28,61364b599f7bf727510175b0,"[""comma""]",0,[0.2669999999999959],86,0,86,0,1
,,,,,,,612f34a45efd99b1fedaff98,,,,,,612f34a45efd99b1fedaff98,Kobieta,23,2021-09-06_19h11.02.175,rantool2,2021.1.4,Win32,60.31363088,6135e006383e6ea6c3d06a28,61364b599f7bf727510175b0,"[""period""]",0,[0.05200000000002092],87,0,87,0,1
,,,,,,,612f34a45efd99b1fedaff98,,,,,,612f34a45efd99b1fedaff98,Kobieta,23,2021-09-06_19h11.02.175,rantool2,2021.1.4,Win32,60.31363088,6135e006383e6ea6c3d06a28,61364b599f7bf727510175b0,"[""period""]",0,[0.05500000000000682],88,0,88,0,1
,,,,,,,612f34a45efd99b1fedaff98,,,,,,612f34a45efd99b1fedaff98,Kobieta,23,2021-09-06_19h11.02.175,rantool2,2021.1.4,Win32,60.31363088,6135e006383e6ea6c3d06a28,61364b599f7bf727510175b0,"[""period""]",0,[0.3170000000000073],89,0,89,0,1
,,,,,,,612f34a45efd99b1fedaff98,,,,,,612f34a45efd99b1fedaff98,Kobieta,23,2021-09-06_19h11.02.175,rantool2,2021.1.4,Win32,60.31363088,6135e006383e6ea6c3d06a28,61364b599f7bf727510175b0,"[""period""]",0,[0.2669999999999959],90,0,90,0,1
,,,,,,,612f34a45efd99b1fedaff98,,,,,,612f34a45efd99b1fedaff98,Kobieta,23,2021-09-06_19h11.02.175,rantool2,2021.1.4,Win32,60.31363088,6135e006383e6ea6c3d06a28,61364b599f7bf727510175b0,"[""period""]",0,[0.35599999999999454],91,0,91,0,1
,,,,,,,612f34a45efd99b1fedaff98,,,,,,612f34a45efd99b1fedaff98,Kobieta,23,2021-09-06_19h11.02.175,rantool2,2021.1.4,Win32,60.31363088,6135e006383e6ea6c3d06a28,61364b599f7bf727510175b0,"[""period""]",0,[0.33499999999997954],92,0,92,0,1
,,,,,,,612f34a45efd99b1fedaff98,,,,,,612f34a45efd99b1fedaff98,Kobieta,23,2021-09-06_19h11.02.175,rantool2,2021.1.4,Win32,60.31363088,6135e006383e6ea6c3d06a28,61364b599f7bf727510175b0,"[""period""]",0,[0.2999999999999545],93,0,93,0,1
,,,,,,,612f34a45efd99b1fedaff98,,,,,,612f34a45efd99b1fedaff98,Kobieta,23,2021-09-06_19h11.02.175,rantool2,2021.1.4,Win32,60.31363088,6135e006383e6ea6c3d06a28,61364b599f7bf727510175b0,"[""period""]",0,[0.3369999999999891],94,0,94,0,1
,,,,,,,612f34a45efd99b1fedaff98,,,,,,612f34a45efd99b1fedaff98,Kobieta,23,2021-09-06_19h11.02.175,rantool2,2021.1.4,Win32,60.31363088,6135e006383e6ea6c3d06a28,61364b599f7bf727510175b0,"[""comma""]",0,[0.30400000000003047],95,0,95,0,1
,,,,,,,612f34a45efd99b1fedaff98,,,,,,612f34a45efd99b1fedaff98,Kobieta,23,2021-09-06_19h11.02.175,rantool2,2021.1.4,Win32,60.31363088,6135e006383e6ea6c3d06a28,61364b599f7bf727510175b0,"[""comma""]",0,[0.32000000000005],96,0,96,0,1
,,,,,,,612f34a45efd99b1fedaff98,,,,,,612f34a45efd99b1fedaff98,Kobieta,23,2021-09-06_19h11.02.175,rantool2,2021.1.4,Win32,60.31363088,6135e006383e6ea6c3d06a28,61364b599f7bf727510175b0,"[""comma""]",0,[0.3350000000000364],97,0,97,0,1
,,,,,,,612f34a45efd99b1fedaff98,,,,,,612f34a45efd99b1fedaff98,Kobieta,23,2021-09-06_19h11.02.175,rantool2,2021.1.4,Win32,60.31363088,6135e006383e6ea6c3d06a28,61364b599f7bf727510175b0,"[""period""]",0,[0.32000000000005],98,0,98,0,1
,,,,,,,612f34a45efd99b1fedaff98,,,,,,612f34a45efd99b1fedaff98,Kobieta,23,2021-09-06_19h11.02.175,rantool2,2021.1.4,Win32,60.31363088,6135e006383e6ea6c3d06a28,61364b599f7bf727510175b0,"[""period""]",0,[0.3350000000000364],99,0,99,0,1
,,,,,,,612f34a45efd99b1fedaff98,,,,,,612f34a45efd99b1fedaff98,Kobieta,23,2021-09-06_19h11.02.175,rantool2,2021.1.4,Win32,60.31363088,6135e006383e6ea6c3d06a28,61364b599f7bf727510175b0,"[""comma""]",0,[0.2900000000000773],100,0,100,0,1
,,,,,,,612f34a45efd99b1fedaff98,,,,,,612f34a45efd99b1fedaff98,Kobieta,23,2021-09-06_19h11.02.175,rantool2,2021.1.4,Win32,60.31363088,6135e006383e6ea6c3d06a28,61364b599f7bf727510175b0,"[""period""]",0,[0.3410000000000082],101,0,101,0,1
,,,,,,,612f34a45efd99b1fedaff98,,,,,,612f34a45efd99b1fedaff98,Kobieta,23,2021-09-06_19h11.02.175,rantool2,2021.1.4,Win32,60.31363088,6135e006383e6ea6c3d06a28,61364b599f7bf727510175b0,"[""period""]",0,[0.35000000000002274],102,0,102,0,1
,,,,,,,612f34a45efd99b1fedaff98,,,,,,612f34a45efd99b1fedaff98,Kobieta,23,2021-09-06_19h11.02.175,rantool2,2021.1.4,Win32,60.31363088,6135e006383e6ea6c3d06a28,61364b599f7bf727510175b0,"[""comma""]",0,[0.25499999999999545],103,0,103,0,1
,,,,,,,612f34a45efd99b1fedaff98,,,,,,612f34a45efd99b1fedaff98,Kobieta,23,2021-09-06_19h11.02.175,rantool2,2021.1.4,Win32,60.31363088,6135e006383e6ea6c3d06a28,61364b599f7bf727510175b0,"[""period""]",0,[0.3349999999999227],104,0,104,0,1
,,,,,,,612f34a45efd99b1fedaff98,,,,,,612f34a45efd99b1fedaff98,Kobieta,23,2021-09-06_19h11.02.175,rantool2,2021.1.4,Win32,60.31363088,6135e006383e6ea6c3d06a28,61364b599f7bf727510175b0,"[""comma""]",0,[0.3160000000000309],105,0,105,0,1
,,,,,,,612f34a45efd99b1fedaff98,,,,,,612f34a45efd99b1fedaff98,Kobieta,23,2021-09-06_19h11.02.175,rantool2,2021.1.4,Win32,60.31363088,6135e006383e6ea6c3d06a28,61364b599f7bf727510175b0,"[""comma""]",0,[0.2699999999999818],106,0,106,0,1
,,,,,,,612f34a45efd99b1fedaff98,,,,,,612f34a45efd99b1fedaff98,Kobieta,23,2021-09-06_19h11.02.175,rantool2,2021.1.4,Win32,60.31363088,6135e006383e6ea6c3d06a28,61364b599f7bf727510175b0,"[""comma""]",0,[0.2999999999999545],107,0,107,0,1
,,,,,,,612f34a45efd99b1fedaff98,,,,,,612f34a45efd99b1fedaff98,Kobieta,23,2021-09-06_19h11.02.175,rantool2,2021.1.4,Win32,60.31363088,6135e006383e6ea6c3d06a28,61364b599f7bf727510175b0,"[""comma""]",0,[0.2880000000000109],108,0,108,0,1
,,,,,,,612f34a45efd99b1fedaff98,,,,,,612f34a45efd99b1fedaff98,Kobieta,23,2021-09-06_19h11.02.175,rantool2,2021.1.4,Win32,60.31363088,6135e006383e6ea6c3d06a28,61364b599f7bf727510175b0,"[""period""]",0,[0.30499999999995],109,0,109,0,1
,,,,,,,612f34a45efd99b1fedaff98,,,,,,612f34a45efd99b1fedaff98,Kobieta,23,2021-09-06_19h11.02.175,rantool2,2021.1.4,Win32,60.31363088,6135e006383e6ea6c3d06a28,61364b599f7bf727510175b0,"[""period""]",0,[0.3330000000000837],110,0,110,0,1
,,,,,,,612f34a45efd99b1fedaff98,,,,,,612f34a45efd99b1fedaff98,Kobieta,23,2021-09-06_19h11.02.175,rantool2,2021.1.4,Win32,60.31363088,6135e006383e6ea6c3d06a28,61364b599f7bf727510175b0,"[""period""]",0,[0.30299999999999727],111,0,111,0,1
,,,,,,,612f34a45efd99b1fedaff98,,,,,,612f34a45efd99b1fedaff98,Kobieta,23,2021-09-06_19h11.02.175,rantool2,2021.1.4,Win32,60.31363088,6135e006383e6ea6c3d06a28,61364b599f7bf727510175b0,"[""period""]",0,[0.30299999999999727],112,0,112,0,1
,,,,,,,612f34a45efd99b1fedaff98,,,,,,612f34a45efd99b1fedaff98,Kobieta,23,2021-09-06_19h11.02.175,rantool2,2021.1.4,Win32,60.31363088,6135e006383e6ea6c3d06a28,61364b599f7bf727510175b0,"[""period""]",0,[0.28700000000003456],113,0,113,0,1
,,,,,,,612f34a45efd99b1fedaff98,,,,,,612f34a45efd99b1fedaff98,Kobieta,23,2021-09-06_19h11.02.175,rantool2,2021.1.4,Win32,60.31363088,6135e006383e6ea6c3d06a28,61364b599f7bf727510175b0,"[""period""]",0,[0.2560000000000855],114,0,114,0,1
,,,,,,,612f34a45efd99b1fedaff98,,,,,,612f34a45efd99b1fedaff98,Kobieta,23,2021-09-06_19h11.02.175,rantool2,2021.1.4,Win32,60.31363088,6135e006383e6ea6c3d06a28,61364b599f7bf727510175b0,"[""comma""]",0,[0.30100000000004457],115,0,115,0,1
,,,,,,,612f34a45efd99b1fedaff98,,,,,,612f34a45efd99b1fedaff98,Kobieta,23,2021-09-06_19h11.02.175,rantool2,2021.1.4,Win32,60.31363088,6135e006383e6ea6c3d06a28,61364b599f7bf727510175b0,"[""period""]",0,[0.3020000000000209],116,0,116,0,1
,,,,,,,612f34a45efd99b1fedaff98,,,,,,612f34a45efd99b1fedaff98,Kobieta,23,2021-09-06_19h11.02.175,rantool2,2021.1.4,Win32,60.31363088,6135e006383e6ea6c3d06a28,61364b599f7bf727510175b0,"[""comma""]",0,[0.26900000000000546],117,0,117,0,1
,,,,,,,612f34a45efd99b1fedaff98,,,,,,612f34a45efd99b1fedaff98,Kobieta,23,2021-09-06_19h11.02.175,rantool2,2021.1.4,Win32,60.31363088,6135e006383e6ea6c3d06a28,61364b599f7bf727510175b0,"[""comma""]",0,[0.2699999999999818],118,0,118,0,1
,,,,,,,612f34a45efd99b1fedaff98,,,,,,612f34a45efd99b1fedaff98,Kobieta,23,2021-09-06_19h11.02.175,rantool2,2021.1.4,Win32,60.31363088,6135e006383e6ea6c3d06a28,61364b599f7bf727510175b0,"[""comma""]",0,[0.045999999999935426],119,0,119,0,1
