key_resp_5.keys,key_resp_5.corr,key_resp_5.rt,trials.thisRepN,trials.thisTrialN,trials.thisN,trials.thisIndex,trials.ran,id*,Płeć*,Wiek*,date,expName,psychopyVersion,OS,frameRate,id,STUDY_ID,SESSION_ID,key_resp_7.keys,key_resp_7.rt,trials_2.thisRepN,trials_2.thisTrialN,trials_2.thisN,trials_2.thisIndex,trials_2.ran,series_0,series_1,acss_0,acss_1,comparison
0,,,0,0,0,0,1,5f1d68503e85b268dcfb91fd,Kobieta,20,2021-07-13_21h57.56.509,rantool2,2021.1.4,Win32,59.99880002,5f1d68503e85b268dcfb91fd,60d9d14f4a8a35a482e0d9bf,60edf021ad91ad0abf94715b,,,,,,,,,,,,
"[""comma""]",0,[0.5504000000022415],1,0,1,0,1,5f1d68503e85b268dcfb91fd,Kobieta,20,2021-07-13_21h57.56.509,rantool2,2021.1.4,Win32,59.99880002,5f1d68503e85b268dcfb91fd,60d9d14f4a8a35a482e0d9bf,60edf021ad91ad0abf94715b,,,,,,,,,,,,
"[""period""]",0,[0.2680000000000007],2,0,2,0,1,5f1d68503e85b268dcfb91fd,Kobieta,20,2021-07-13_21h57.56.509,rantool2,2021.1.4,Win32,59.99880002,5f1d68503e85b268dcfb91fd,60d9d14f4a8a35a482e0d9bf,60edf021ad91ad0abf94715b,,,,,,,,,,,,
"[""comma""]",0,[0.2669999999999959],3,0,3,0,1,5f1d68503e85b268dcfb91fd,Kobieta,20,2021-07-13_21h57.56.509,rantool2,2021.1.4,Win32,59.99880002,5f1d68503e85b268dcfb91fd,60d9d14f4a8a35a482e0d9bf,60edf021ad91ad0abf94715b,,,,,,,,,,,,
"[""period"",""comma""]",0,"[0.28739999999851307,1.9330999999977507]",4,0,4,0,1,5f1d68503e85b268dcfb91fd,Kobieta,20,2021-07-13_21h57.56.509,rantool2,2021.1.4,Win32,59.99880002,5f1d68503e85b268dcfb91fd,60d9d14f4a8a35a482e0d9bf,60edf021ad91ad0abf94715b,,,,,,,,,,,,
0,0,,5,0,5,0,1,5f1d68503e85b268dcfb91fd,Kobieta,20,2021-07-13_21h57.56.509,rantool2,2021.1.4,Win32,59.99880002,5f1d68503e85b268dcfb91fd,60d9d14f4a8a35a482e0d9bf,60edf021ad91ad0abf94715b,,,,,,,,,,,,
"[""period""]",0,[0.3703999999985115],6,0,6,0,1,5f1d68503e85b268dcfb91fd,Kobieta,20,2021-07-13_21h57.56.509,rantool2,2021.1.4,Win32,59.99880002,5f1d68503e85b268dcfb91fd,60d9d14f4a8a35a482e0d9bf,60edf021ad91ad0abf94715b,,,,,,,,,,,,
"[""comma""]",0,[0.26849999999998886],7,0,7,0,1,5f1d68503e85b268dcfb91fd,Kobieta,20,2021-07-13_21h57.56.509,rantool2,2021.1.4,Win32,59.99880002,5f1d68503e85b268dcfb91fd,60d9d14f4a8a35a482e0d9bf,60edf021ad91ad0abf94715b,,,,,,,,,,,,
"[""period""]",0,[0.2216999999992595],8,0,8,0,1,5f1d68503e85b268dcfb91fd,Kobieta,20,2021-07-13_21h57.56.509,rantool2,2021.1.4,Win32,59.99880002,5f1d68503e85b268dcfb91fd,60d9d14f4a8a35a482e0d9bf,60edf021ad91ad0abf94715b,,,,,,,,,,,,
"[""comma""]",0,[0.37430000000074415],9,0,9,0,1,5f1d68503e85b268dcfb91fd,Kobieta,20,2021-07-13_21h57.56.509,rantool2,2021.1.4,Win32,59.99880002,5f1d68503e85b268dcfb91fd,60d9d14f4a8a35a482e0d9bf,60edf021ad91ad0abf94715b,,,,,,,,,,,,
"[""period""]",0,[0.20430000000072823],10,0,10,0,1,5f1d68503e85b268dcfb91fd,Kobieta,20,2021-07-13_21h57.56.509,rantool2,2021.1.4,Win32,59.99880002,5f1d68503e85b268dcfb91fd,60d9d14f4a8a35a482e0d9bf,60edf021ad91ad0abf94715b,,,,,,,,,,,,
"[""comma""]",0,[0.0006000000014694251],11,0,11,0,1,5f1d68503e85b268dcfb91fd,Kobieta,20,2021-07-13_21h57.56.509,rantool2,2021.1.4,Win32,59.99880002,5f1d68503e85b268dcfb91fd,60d9d14f4a8a35a482e0d9bf,60edf021ad91ad0abf94715b,,,,,,,,,,,,
"[""period""]",0,[0.46709999999777096],12,0,12,0,1,5f1d68503e85b268dcfb91fd,Kobieta,20,2021-07-13_21h57.56.509,rantool2,2021.1.4,Win32,59.99880002,5f1d68503e85b268dcfb91fd,60d9d14f4a8a35a482e0d9bf,60edf021ad91ad0abf94715b,,,,,,,,,,,,
"[""comma""]",0,[0.7205000000000155],13,0,13,0,1,5f1d68503e85b268dcfb91fd,Kobieta,20,2021-07-13_21h57.56.509,rantool2,2021.1.4,Win32,59.99880002,5f1d68503e85b268dcfb91fd,60d9d14f4a8a35a482e0d9bf,60edf021ad91ad0abf94715b,,,,,,,,,,,,
"[""period""]",0,[0.4435000000000002],14,0,14,0,1,5f1d68503e85b268dcfb91fd,Kobieta,20,2021-07-13_21h57.56.509,rantool2,2021.1.4,Win32,59.99880002,5f1d68503e85b268dcfb91fd,60d9d14f4a8a35a482e0d9bf,60edf021ad91ad0abf94715b,,,,,,,,,,,,
"[""comma""]",0,[1.6643000000007362],15,0,15,0,1,5f1d68503e85b268dcfb91fd,Kobieta,20,2021-07-13_21h57.56.509,rantool2,2021.1.4,Win32,59.99880002,5f1d68503e85b268dcfb91fd,60d9d14f4a8a35a482e0d9bf,60edf021ad91ad0abf94715b,,,,,,,,,,,,
"[""period""]",0,[0.42490000000225336],16,0,16,0,1,5f1d68503e85b268dcfb91fd,Kobieta,20,2021-07-13_21h57.56.509,rantool2,2021.1.4,Win32,59.99880002,5f1d68503e85b268dcfb91fd,60d9d14f4a8a35a482e0d9bf,60edf021ad91ad0abf94715b,,,,,,,,,,,,
"[""comma""]",0,[0.23719999999926245],17,0,17,0,1,5f1d68503e85b268dcfb91fd,Kobieta,20,2021-07-13_21h57.56.509,rantool2,2021.1.4,Win32,59.99880002,5f1d68503e85b268dcfb91fd,60d9d14f4a8a35a482e0d9bf,60edf021ad91ad0abf94715b,,,,,,,,,,,,
"[""period"",""period""]",0,"[0.18509999999776028,1.7734999999999843]",18,0,18,0,1,5f1d68503e85b268dcfb91fd,Kobieta,20,2021-07-13_21h57.56.509,rantool2,2021.1.4,Win32,59.99880002,5f1d68503e85b268dcfb91fd,60d9d14f4a8a35a482e0d9bf,60edf021ad91ad0abf94715b,,,,,,,,,,,,
0,0,,19,0,19,0,1,5f1d68503e85b268dcfb91fd,Kobieta,20,2021-07-13_21h57.56.509,rantool2,2021.1.4,Win32,59.99880002,5f1d68503e85b268dcfb91fd,60d9d14f4a8a35a482e0d9bf,60edf021ad91ad0abf94715b,,,,,,,,,,,,
"[""period""]",0,[0.15749999999999886],20,0,20,0,1,5f1d68503e85b268dcfb91fd,Kobieta,20,2021-07-13_21h57.56.509,rantool2,2021.1.4,Win32,59.99880002,5f1d68503e85b268dcfb91fd,60d9d14f4a8a35a482e0d9bf,60edf021ad91ad0abf94715b,,,,,,,,,,,,
"[""period"",""period""]",0,"[0.22559999999776892,1.4983000000007678]",21,0,21,0,1,5f1d68503e85b268dcfb91fd,Kobieta,20,2021-07-13_21h57.56.509,rantool2,2021.1.4,Win32,59.99880002,5f1d68503e85b268dcfb91fd,60d9d14f4a8a35a482e0d9bf,60edf021ad91ad0abf94715b,,,,,,,,,,,,
0,0,,22,0,22,0,1,5f1d68503e85b268dcfb91fd,Kobieta,20,2021-07-13_21h57.56.509,rantool2,2021.1.4,Win32,59.99880002,5f1d68503e85b268dcfb91fd,60d9d14f4a8a35a482e0d9bf,60edf021ad91ad0abf94715b,,,,,,,,,,,,
"[""comma""]",0,[0.2893999999985226],23,0,23,0,1,5f1d68503e85b268dcfb91fd,Kobieta,20,2021-07-13_21h57.56.509,rantool2,2021.1.4,Win32,59.99880002,5f1d68503e85b268dcfb91fd,60d9d14f4a8a35a482e0d9bf,60edf021ad91ad0abf94715b,,,,,,,,,,,,
"[""period""]",0,[0.7423000000007391],24,0,24,0,1,5f1d68503e85b268dcfb91fd,Kobieta,20,2021-07-13_21h57.56.509,rantool2,2021.1.4,Win32,59.99880002,5f1d68503e85b268dcfb91fd,60d9d14f4a8a35a482e0d9bf,60edf021ad91ad0abf94715b,,,,,,,,,,,,
"[""comma""]",0,[0.5848999999984983],25,0,25,0,1,5f1d68503e85b268dcfb91fd,Kobieta,20,2021-07-13_21h57.56.509,rantool2,2021.1.4,Win32,59.99880002,5f1d68503e85b268dcfb91fd,60d9d14f4a8a35a482e0d9bf,60edf021ad91ad0abf94715b,,,,,,,,,,,,
"[""period""]",0,[0.3405999999977496],26,0,26,0,1,5f1d68503e85b268dcfb91fd,Kobieta,20,2021-07-13_21h57.56.509,rantool2,2021.1.4,Win32,59.99880002,5f1d68503e85b268dcfb91fd,60d9d14f4a8a35a482e0d9bf,60edf021ad91ad0abf94715b,,,,,,,,,,,,
"[""comma""]",0,[0.2939999999999827],27,0,27,0,1,5f1d68503e85b268dcfb91fd,Kobieta,20,2021-07-13_21h57.56.509,rantool2,2021.1.4,Win32,59.99880002,5f1d68503e85b268dcfb91fd,60d9d14f4a8a35a482e0d9bf,60edf021ad91ad0abf94715b,,,,,,,,,,,,
"[""period""]",0,[0.39130000000074006],28,0,28,0,1,5f1d68503e85b268dcfb91fd,Kobieta,20,2021-07-13_21h57.56.509,rantool2,2021.1.4,Win32,59.99880002,5f1d68503e85b268dcfb91fd,60d9d14f4a8a35a482e0d9bf,60edf021ad91ad0abf94715b,,,,,,,,,,,,
"[""comma""]",0,[0.26030000000073983],29,0,29,0,1,5f1d68503e85b268dcfb91fd,Kobieta,20,2021-07-13_21h57.56.509,rantool2,2021.1.4,Win32,59.99880002,5f1d68503e85b268dcfb91fd,60d9d14f4a8a35a482e0d9bf,60edf021ad91ad0abf94715b,,,,,,,,,,,,
"[""period""]",0,[0.39560000000147966],30,0,30,0,1,5f1d68503e85b268dcfb91fd,Kobieta,20,2021-07-13_21h57.56.509,rantool2,2021.1.4,Win32,59.99880002,5f1d68503e85b268dcfb91fd,60d9d14f4a8a35a482e0d9bf,60edf021ad91ad0abf94715b,,,,,,,,,,,,
"[""period""]",0,[0.6006999999992502],31,0,31,0,1,5f1d68503e85b268dcfb91fd,Kobieta,20,2021-07-13_21h57.56.509,rantool2,2021.1.4,Win32,59.99880002,5f1d68503e85b268dcfb91fd,60d9d14f4a8a35a482e0d9bf,60edf021ad91ad0abf94715b,,,,,,,,,,,,
"[""comma""]",0,[0.7158000000007405],32,0,32,0,1,5f1d68503e85b268dcfb91fd,Kobieta,20,2021-07-13_21h57.56.509,rantool2,2021.1.4,Win32,59.99880002,5f1d68503e85b268dcfb91fd,60d9d14f4a8a35a482e0d9bf,60edf021ad91ad0abf94715b,,,,,,,,,,,,
"[""period""]",0,[0.31019999999926995],33,0,33,0,1,5f1d68503e85b268dcfb91fd,Kobieta,20,2021-07-13_21h57.56.509,rantool2,2021.1.4,Win32,59.99880002,5f1d68503e85b268dcfb91fd,60d9d14f4a8a35a482e0d9bf,60edf021ad91ad0abf94715b,,,,,,,,,,,,
"[""comma""]",0,[0.33519999999927563],34,0,34,0,1,5f1d68503e85b268dcfb91fd,Kobieta,20,2021-07-13_21h57.56.509,rantool2,2021.1.4,Win32,59.99880002,5f1d68503e85b268dcfb91fd,60d9d14f4a8a35a482e0d9bf,60edf021ad91ad0abf94715b,,,,,,,,,,,,
"[""period""]",0,[0.5105000000000075],35,0,35,0,1,5f1d68503e85b268dcfb91fd,Kobieta,20,2021-07-13_21h57.56.509,rantool2,2021.1.4,Win32,59.99880002,5f1d68503e85b268dcfb91fd,60d9d14f4a8a35a482e0d9bf,60edf021ad91ad0abf94715b,,,,,,,,,,,,
"[""comma""]",0,[0.30699999999998795],36,0,36,0,1,5f1d68503e85b268dcfb91fd,Kobieta,20,2021-07-13_21h57.56.509,rantool2,2021.1.4,Win32,59.99880002,5f1d68503e85b268dcfb91fd,60d9d14f4a8a35a482e0d9bf,60edf021ad91ad0abf94715b,,,,,,,,,,,,
"[""period""]",0,[0.26849999999998886],37,0,37,0,1,5f1d68503e85b268dcfb91fd,Kobieta,20,2021-07-13_21h57.56.509,rantool2,2021.1.4,Win32,59.99880002,5f1d68503e85b268dcfb91fd,60d9d14f4a8a35a482e0d9bf,60edf021ad91ad0abf94715b,,,,,,,,,,,,
"[""comma""]",0,[0.2516000000015026],38,0,38,0,1,5f1d68503e85b268dcfb91fd,Kobieta,20,2021-07-13_21h57.56.509,rantool2,2021.1.4,Win32,59.99880002,5f1d68503e85b268dcfb91fd,60d9d14f4a8a35a482e0d9bf,60edf021ad91ad0abf94715b,,,,,,,,,,,,
"[""period"",""period""]",0,"[0.33319999999923766,1.9343000000007464]",39,0,39,0,1,5f1d68503e85b268dcfb91fd,Kobieta,20,2021-07-13_21h57.56.509,rantool2,2021.1.4,Win32,59.99880002,5f1d68503e85b268dcfb91fd,60d9d14f4a8a35a482e0d9bf,60edf021ad91ad0abf94715b,,,,,,,,,,,,
0,0,,40,0,40,0,1,5f1d68503e85b268dcfb91fd,Kobieta,20,2021-07-13_21h57.56.509,rantool2,2021.1.4,Win32,59.99880002,5f1d68503e85b268dcfb91fd,60d9d14f4a8a35a482e0d9bf,60edf021ad91ad0abf94715b,,,,,,,,,,,,
"[""comma""]",0,[0.5820999999977516],41,0,41,0,1,5f1d68503e85b268dcfb91fd,Kobieta,20,2021-07-13_21h57.56.509,rantool2,2021.1.4,Win32,59.99880002,5f1d68503e85b268dcfb91fd,60d9d14f4a8a35a482e0d9bf,60edf021ad91ad0abf94715b,,,,,,,,,,,,
"[""period""]",0,[0.5184999999999889],42,0,42,0,1,5f1d68503e85b268dcfb91fd,Kobieta,20,2021-07-13_21h57.56.509,rantool2,2021.1.4,Win32,59.99880002,5f1d68503e85b268dcfb91fd,60d9d14f4a8a35a482e0d9bf,60edf021ad91ad0abf94715b,,,,,,,,,,,,
"[""comma""]",0,[0.751499999999993],43,0,43,0,1,5f1d68503e85b268dcfb91fd,Kobieta,20,2021-07-13_21h57.56.509,rantool2,2021.1.4,Win32,59.99880002,5f1d68503e85b268dcfb91fd,60d9d14f4a8a35a482e0d9bf,60edf021ad91ad0abf94715b,,,,,,,,,,,,
"[""period""]",0,[0.8911999999992588],44,0,44,0,1,5f1d68503e85b268dcfb91fd,Kobieta,20,2021-07-13_21h57.56.509,rantool2,2021.1.4,Win32,59.99880002,5f1d68503e85b268dcfb91fd,60d9d14f4a8a35a482e0d9bf,60edf021ad91ad0abf94715b,,,,,,,,,,,,
"[""comma""]",0,[0.2661000000014724],45,0,45,0,1,5f1d68503e85b268dcfb91fd,Kobieta,20,2021-07-13_21h57.56.509,rantool2,2021.1.4,Win32,59.99880002,5f1d68503e85b268dcfb91fd,60d9d14f4a8a35a482e0d9bf,60edf021ad91ad0abf94715b,,,,,,,,,,,,
"[""period""]",0,[0.23909999999776232],46,0,46,0,1,5f1d68503e85b268dcfb91fd,Kobieta,20,2021-07-13_21h57.56.509,rantool2,2021.1.4,Win32,59.99880002,5f1d68503e85b268dcfb91fd,60d9d14f4a8a35a482e0d9bf,60edf021ad91ad0abf94715b,,,,,,,,,,,,
"[""comma"",""period""]",0,"[0.46949999999998226,1.8496000000014874]",47,0,47,0,1,5f1d68503e85b268dcfb91fd,Kobieta,20,2021-07-13_21h57.56.509,rantool2,2021.1.4,Win32,59.99880002,5f1d68503e85b268dcfb91fd,60d9d14f4a8a35a482e0d9bf,60edf021ad91ad0abf94715b,,,,,,,,,,,,
0,0,,48,0,48,0,1,5f1d68503e85b268dcfb91fd,Kobieta,20,2021-07-13_21h57.56.509,rantool2,2021.1.4,Win32,59.99880002,5f1d68503e85b268dcfb91fd,60d9d14f4a8a35a482e0d9bf,60edf021ad91ad0abf94715b,,,,,,,,,,,,
"[""comma""]",0,[0.5254000000022359],49,0,49,0,1,5f1d68503e85b268dcfb91fd,Kobieta,20,2021-07-13_21h57.56.509,rantool2,2021.1.4,Win32,59.99880002,5f1d68503e85b268dcfb91fd,60d9d14f4a8a35a482e0d9bf,60edf021ad91ad0abf94715b,,,,,,,,,,,,
"[""period""]",0,[0.2535999999977321],50,0,50,0,1,5f1d68503e85b268dcfb91fd,Kobieta,20,2021-07-13_21h57.56.509,rantool2,2021.1.4,Win32,59.99880002,5f1d68503e85b268dcfb91fd,60d9d14f4a8a35a482e0d9bf,60edf021ad91ad0abf94715b,,,,,,,,,,,,
"[""period""]",0,[0.5173000000007164],51,0,51,0,1,5f1d68503e85b268dcfb91fd,Kobieta,20,2021-07-13_21h57.56.509,rantool2,2021.1.4,Win32,59.99880002,5f1d68503e85b268dcfb91fd,60d9d14f4a8a35a482e0d9bf,60edf021ad91ad0abf94715b,,,,,,,,,,,,
"[""comma""]",0,[0.319500000000005],52,0,52,0,1,5f1d68503e85b268dcfb91fd,Kobieta,20,2021-07-13_21h57.56.509,rantool2,2021.1.4,Win32,59.99880002,5f1d68503e85b268dcfb91fd,60d9d14f4a8a35a482e0d9bf,60edf021ad91ad0abf94715b,,,,,,,,,,,,
"[""period""]",0,[0.23189999999851807],53,0,53,0,1,5f1d68503e85b268dcfb91fd,Kobieta,20,2021-07-13_21h57.56.509,rantool2,2021.1.4,Win32,59.99880002,5f1d68503e85b268dcfb91fd,60d9d14f4a8a35a482e0d9bf,60edf021ad91ad0abf94715b,,,,,,,,,,,,
"[""comma""]",0,[0.08389999999855036],54,0,54,0,1,5f1d68503e85b268dcfb91fd,Kobieta,20,2021-07-13_21h57.56.509,rantool2,2021.1.4,Win32,59.99880002,5f1d68503e85b268dcfb91fd,60d9d14f4a8a35a482e0d9bf,60edf021ad91ad0abf94715b,,,,,,,,,,,,
"[""period""]",0,[0.33730000000076643],55,0,55,0,1,5f1d68503e85b268dcfb91fd,Kobieta,20,2021-07-13_21h57.56.509,rantool2,2021.1.4,Win32,59.99880002,5f1d68503e85b268dcfb91fd,60d9d14f4a8a35a482e0d9bf,60edf021ad91ad0abf94715b,,,,,,,,,,,,
"[""comma""]",0,[0.7228000000007455],56,0,56,0,1,5f1d68503e85b268dcfb91fd,Kobieta,20,2021-07-13_21h57.56.509,rantool2,2021.1.4,Win32,59.99880002,5f1d68503e85b268dcfb91fd,60d9d14f4a8a35a482e0d9bf,60edf021ad91ad0abf94715b,,,,,,,,,,,,
"[""period""]",0,[0.6841999999992936],57,0,57,0,1,5f1d68503e85b268dcfb91fd,Kobieta,20,2021-07-13_21h57.56.509,rantool2,2021.1.4,Win32,59.99880002,5f1d68503e85b268dcfb91fd,60d9d14f4a8a35a482e0d9bf,60edf021ad91ad0abf94715b,,,,,,,,,,,,
"[""period""]",0,[0.6066000000014924],58,0,58,0,1,5f1d68503e85b268dcfb91fd,Kobieta,20,2021-07-13_21h57.56.509,rantool2,2021.1.4,Win32,59.99880002,5f1d68503e85b268dcfb91fd,60d9d14f4a8a35a482e0d9bf,60edf021ad91ad0abf94715b,,,,,,,,,,,,
"[""comma""]",0,[0.2893000000007646],59,0,59,0,1,5f1d68503e85b268dcfb91fd,Kobieta,20,2021-07-13_21h57.56.509,rantool2,2021.1.4,Win32,59.99880002,5f1d68503e85b268dcfb91fd,60d9d14f4a8a35a482e0d9bf,60edf021ad91ad0abf94715b,,,,,,,,,,,,
"[""period""]",0,[0.23519999999928132],60,0,60,0,1,5f1d68503e85b268dcfb91fd,Kobieta,20,2021-07-13_21h57.56.509,rantool2,2021.1.4,Win32,59.99880002,5f1d68503e85b268dcfb91fd,60d9d14f4a8a35a482e0d9bf,60edf021ad91ad0abf94715b,,,,,,,,,,,,
"[""comma"",""period""]",0,"[0.2343000000007578,1.766999999999996]",61,0,61,0,1,5f1d68503e85b268dcfb91fd,Kobieta,20,2021-07-13_21h57.56.509,rantool2,2021.1.4,Win32,59.99880002,5f1d68503e85b268dcfb91fd,60d9d14f4a8a35a482e0d9bf,60edf021ad91ad0abf94715b,,,,,,,,,,,,
0,0,,62,0,62,0,1,5f1d68503e85b268dcfb91fd,Kobieta,20,2021-07-13_21h57.56.509,rantool2,2021.1.4,Win32,59.99880002,5f1d68503e85b268dcfb91fd,60d9d14f4a8a35a482e0d9bf,60edf021ad91ad0abf94715b,,,,,,,,,,,,
"[""comma""]",0,[0.20059999999779166],63,0,63,0,1,5f1d68503e85b268dcfb91fd,Kobieta,20,2021-07-13_21h57.56.509,rantool2,2021.1.4,Win32,59.99880002,5f1d68503e85b268dcfb91fd,60d9d14f4a8a35a482e0d9bf,60edf021ad91ad0abf94715b,,,,,,,,,,,,
"[""period""]",0,[0.23190000000226973],64,0,64,0,1,5f1d68503e85b268dcfb91fd,Kobieta,20,2021-07-13_21h57.56.509,rantool2,2021.1.4,Win32,59.99880002,5f1d68503e85b268dcfb91fd,60d9d14f4a8a35a482e0d9bf,60edf021ad91ad0abf94715b,,,,,,,,,,,,
"[""period"",""period""]",0,"[0.15510000000148239,1.916400000002227]",65,0,65,0,1,5f1d68503e85b268dcfb91fd,Kobieta,20,2021-07-13_21h57.56.509,rantool2,2021.1.4,Win32,59.99880002,5f1d68503e85b268dcfb91fd,60d9d14f4a8a35a482e0d9bf,60edf021ad91ad0abf94715b,,,,,,,,,,,,
0,0,,66,0,66,0,1,5f1d68503e85b268dcfb91fd,Kobieta,20,2021-07-13_21h57.56.509,rantool2,2021.1.4,Win32,59.99880002,5f1d68503e85b268dcfb91fd,60d9d14f4a8a35a482e0d9bf,60edf021ad91ad0abf94715b,,,,,,,,,,,,
"[""period""]",0,[0.018699999999228112],67,0,67,0,1,5f1d68503e85b268dcfb91fd,Kobieta,20,2021-07-13_21h57.56.509,rantool2,2021.1.4,Win32,59.99880002,5f1d68503e85b268dcfb91fd,60d9d14f4a8a35a482e0d9bf,60edf021ad91ad0abf94715b,,,,,,,,,,,,
"[""period""]",0,[0.25469999999927495],68,0,68,0,1,5f1d68503e85b268dcfb91fd,Kobieta,20,2021-07-13_21h57.56.509,rantool2,2021.1.4,Win32,59.99880002,5f1d68503e85b268dcfb91fd,60d9d14f4a8a35a482e0d9bf,60edf021ad91ad0abf94715b,,,,,,,,,,,,
"[""period""]",0,[0.27339999999850306],69,0,69,0,1,5f1d68503e85b268dcfb91fd,Kobieta,20,2021-07-13_21h57.56.509,rantool2,2021.1.4,Win32,59.99880002,5f1d68503e85b268dcfb91fd,60d9d14f4a8a35a482e0d9bf,60edf021ad91ad0abf94715b,,,,,,,,,,,,
"[""period""]",0,[0.2750000000000341],70,0,70,0,1,5f1d68503e85b268dcfb91fd,Kobieta,20,2021-07-13_21h57.56.509,rantool2,2021.1.4,Win32,59.99880002,5f1d68503e85b268dcfb91fd,60d9d14f4a8a35a482e0d9bf,60edf021ad91ad0abf94715b,,,,,,,,,,,,
"[""comma""]",0,[0.2195999999977971],71,0,71,0,1,5f1d68503e85b268dcfb91fd,Kobieta,20,2021-07-13_21h57.56.509,rantool2,2021.1.4,Win32,59.99880002,5f1d68503e85b268dcfb91fd,60d9d14f4a8a35a482e0d9bf,60edf021ad91ad0abf94715b,,,,,,,,,,,,
"[""comma""]",0,[0.29280000000079554],72,0,72,0,1,5f1d68503e85b268dcfb91fd,Kobieta,20,2021-07-13_21h57.56.509,rantool2,2021.1.4,Win32,59.99880002,5f1d68503e85b268dcfb91fd,60d9d14f4a8a35a482e0d9bf,60edf021ad91ad0abf94715b,,,,,,,,,,,,
"[""comma""]",0,[0.2613000000007446],73,0,73,0,1,5f1d68503e85b268dcfb91fd,Kobieta,20,2021-07-13_21h57.56.509,rantool2,2021.1.4,Win32,59.99880002,5f1d68503e85b268dcfb91fd,60d9d14f4a8a35a482e0d9bf,60edf021ad91ad0abf94715b,,,,,,,,,,,,
"[""comma""]",0,[0.24209999999777665],74,0,74,0,1,5f1d68503e85b268dcfb91fd,Kobieta,20,2021-07-13_21h57.56.509,rantool2,2021.1.4,Win32,59.99880002,5f1d68503e85b268dcfb91fd,60d9d14f4a8a35a482e0d9bf,60edf021ad91ad0abf94715b,,,,,,,,,,,,
"[""comma""]",0,[0.4613000000007901],75,0,75,0,1,5f1d68503e85b268dcfb91fd,Kobieta,20,2021-07-13_21h57.56.509,rantool2,2021.1.4,Win32,59.99880002,5f1d68503e85b268dcfb91fd,60d9d14f4a8a35a482e0d9bf,60edf021ad91ad0abf94715b,,,,,,,,,,,,
"[""comma"",""comma""]",0,"[0.27519999999924494,1.8946000000015033]",76,0,76,0,1,5f1d68503e85b268dcfb91fd,Kobieta,20,2021-07-13_21h57.56.509,rantool2,2021.1.4,Win32,59.99880002,5f1d68503e85b268dcfb91fd,60d9d14f4a8a35a482e0d9bf,60edf021ad91ad0abf94715b,,,,,,,,,,,,
0,0,,77,0,77,0,1,5f1d68503e85b268dcfb91fd,Kobieta,20,2021-07-13_21h57.56.509,rantool2,2021.1.4,Win32,59.99880002,5f1d68503e85b268dcfb91fd,60d9d14f4a8a35a482e0d9bf,60edf021ad91ad0abf94715b,,,,,,,,,,,,
"[""period""]",0,[0.3176999999992631],78,0,78,0,1,5f1d68503e85b268dcfb91fd,Kobieta,20,2021-07-13_21h57.56.509,rantool2,2021.1.4,Win32,59.99880002,5f1d68503e85b268dcfb91fd,60d9d14f4a8a35a482e0d9bf,60edf021ad91ad0abf94715b,,,,,,,,,,,,
"[""comma""]",0,[0.2347999999969943],79,0,79,0,1,5f1d68503e85b268dcfb91fd,Kobieta,20,2021-07-13_21h57.56.509,rantool2,2021.1.4,Win32,59.99880002,5f1d68503e85b268dcfb91fd,60d9d14f4a8a35a482e0d9bf,60edf021ad91ad0abf94715b,,,,,,,,,,,,
"[""period""]",0,[0.31519999999920856],80,0,80,0,1,5f1d68503e85b268dcfb91fd,Kobieta,20,2021-07-13_21h57.56.509,rantool2,2021.1.4,Win32,59.99880002,5f1d68503e85b268dcfb91fd,60d9d14f4a8a35a482e0d9bf,60edf021ad91ad0abf94715b,,,,,,,,,,,,
"[""comma""]",0,[0.26190000000224245],81,0,81,0,1,5f1d68503e85b268dcfb91fd,Kobieta,20,2021-07-13_21h57.56.509,rantool2,2021.1.4,Win32,59.99880002,5f1d68503e85b268dcfb91fd,60d9d14f4a8a35a482e0d9bf,60edf021ad91ad0abf94715b,,,,,,,,,,,,
"[""period""]",0,[0.6342999999970402],82,0,82,0,1,5f1d68503e85b268dcfb91fd,Kobieta,20,2021-07-13_21h57.56.509,rantool2,2021.1.4,Win32,59.99880002,5f1d68503e85b268dcfb91fd,60d9d14f4a8a35a482e0d9bf,60edf021ad91ad0abf94715b,,,,,,,,,,,,
"[""comma""]",0,[0.5411999999992645],83,0,83,0,1,5f1d68503e85b268dcfb91fd,Kobieta,20,2021-07-13_21h57.56.509,rantool2,2021.1.4,Win32,59.99880002,5f1d68503e85b268dcfb91fd,60d9d14f4a8a35a482e0d9bf,60edf021ad91ad0abf94715b,,,,,,,,,,,,
"[""period"",""comma""]",0,"[0.2668999999985431,1.8533000000007291]",84,0,84,0,1,5f1d68503e85b268dcfb91fd,Kobieta,20,2021-07-13_21h57.56.509,rantool2,2021.1.4,Win32,59.99880002,5f1d68503e85b268dcfb91fd,60d9d14f4a8a35a482e0d9bf,60edf021ad91ad0abf94715b,,,,,,,,,,,,
0,0,,85,0,85,0,1,5f1d68503e85b268dcfb91fd,Kobieta,20,2021-07-13_21h57.56.509,rantool2,2021.1.4,Win32,59.99880002,5f1d68503e85b268dcfb91fd,60d9d14f4a8a35a482e0d9bf,60edf021ad91ad0abf94715b,,,,,,,,,,,,
"[""period""]",0,[0.2327000000029784],86,0,86,0,1,5f1d68503e85b268dcfb91fd,Kobieta,20,2021-07-13_21h57.56.509,rantool2,2021.1.4,Win32,59.99880002,5f1d68503e85b268dcfb91fd,60d9d14f4a8a35a482e0d9bf,60edf021ad91ad0abf94715b,,,,,,,,,,,,
"[""comma""]",0,[0.2018000000007305],87,0,87,0,1,5f1d68503e85b268dcfb91fd,Kobieta,20,2021-07-13_21h57.56.509,rantool2,2021.1.4,Win32,59.99880002,5f1d68503e85b268dcfb91fd,60d9d14f4a8a35a482e0d9bf,60edf021ad91ad0abf94715b,,,,,,,,,,,,
"[""period""]",0,[0.2718000000007237],88,0,88,0,1,5f1d68503e85b268dcfb91fd,Kobieta,20,2021-07-13_21h57.56.509,rantool2,2021.1.4,Win32,59.99880002,5f1d68503e85b268dcfb91fd,60d9d14f4a8a35a482e0d9bf,60edf021ad91ad0abf94715b,,,,,,,,,,,,
"[""comma""]",0,[0.35169999999925494],89,0,89,0,1,5f1d68503e85b268dcfb91fd,Kobieta,20,2021-07-13_21h57.56.509,rantool2,2021.1.4,Win32,59.99880002,5f1d68503e85b268dcfb91fd,60d9d14f4a8a35a482e0d9bf,60edf021ad91ad0abf94715b,,,,,,,,,,,,
"[""period""]",0,[0.20299999999997453],90,0,90,0,1,5f1d68503e85b268dcfb91fd,Kobieta,20,2021-07-13_21h57.56.509,rantool2,2021.1.4,Win32,59.99880002,5f1d68503e85b268dcfb91fd,60d9d14f4a8a35a482e0d9bf,60edf021ad91ad0abf94715b,,,,,,,,,,,,
"[""comma""]",0,[0.21059999999772572],91,0,91,0,1,5f1d68503e85b268dcfb91fd,Kobieta,20,2021-07-13_21h57.56.509,rantool2,2021.1.4,Win32,59.99880002,5f1d68503e85b268dcfb91fd,60d9d14f4a8a35a482e0d9bf,60edf021ad91ad0abf94715b,,,,,,,,,,,,
"[""period""]",0,[0.3059999999999832],92,0,92,0,1,5f1d68503e85b268dcfb91fd,Kobieta,20,2021-07-13_21h57.56.509,rantool2,2021.1.4,Win32,59.99880002,5f1d68503e85b268dcfb91fd,60d9d14f4a8a35a482e0d9bf,60edf021ad91ad0abf94715b,,,,,,,,,,,,
"[""period""]",0,[0.2250999999977239],93,0,93,0,1,5f1d68503e85b268dcfb91fd,Kobieta,20,2021-07-13_21h57.56.509,rantool2,2021.1.4,Win32,59.99880002,5f1d68503e85b268dcfb91fd,60d9d14f4a8a35a482e0d9bf,60edf021ad91ad0abf94715b,,,,,,,,,,,,
"[""period""]",0,[0.07559999999779166],94,0,94,0,1,5f1d68503e85b268dcfb91fd,Kobieta,20,2021-07-13_21h57.56.509,rantool2,2021.1.4,Win32,59.99880002,5f1d68503e85b268dcfb91fd,60d9d14f4a8a35a482e0d9bf,60edf021ad91ad0abf94715b,,,,,,,,,,,,
"[""period""]",0,[0.1508999999985008],95,0,95,0,1,5f1d68503e85b268dcfb91fd,Kobieta,20,2021-07-13_21h57.56.509,rantool2,2021.1.4,Win32,59.99880002,5f1d68503e85b268dcfb91fd,60d9d14f4a8a35a482e0d9bf,60edf021ad91ad0abf94715b,,,,,,,,,,,,
"[""comma"",""period""]",0,"[-0.01479999999702386,1.9256000000014524]",96,0,96,0,1,5f1d68503e85b268dcfb91fd,Kobieta,20,2021-07-13_21h57.56.509,rantool2,2021.1.4,Win32,59.99880002,5f1d68503e85b268dcfb91fd,60d9d14f4a8a35a482e0d9bf,60edf021ad91ad0abf94715b,,,,,,,,,,,,
"[""period""]",0,[1.933999999999969],97,0,97,0,1,5f1d68503e85b268dcfb91fd,Kobieta,20,2021-07-13_21h57.56.509,rantool2,2021.1.4,Win32,59.99880002,5f1d68503e85b268dcfb91fd,60d9d14f4a8a35a482e0d9bf,60edf021ad91ad0abf94715b,,,,,,,,,,,,
"[""period""]",0,[1.7725000000000364],98,0,98,0,1,5f1d68503e85b268dcfb91fd,Kobieta,20,2021-07-13_21h57.56.509,rantool2,2021.1.4,Win32,59.99880002,5f1d68503e85b268dcfb91fd,60d9d14f4a8a35a482e0d9bf,60edf021ad91ad0abf94715b,,,,,,,,,,,,
"[""comma""]",0,[1.872000000000014],99,0,99,0,1,5f1d68503e85b268dcfb91fd,Kobieta,20,2021-07-13_21h57.56.509,rantool2,2021.1.4,Win32,59.99880002,5f1d68503e85b268dcfb91fd,60d9d14f4a8a35a482e0d9bf,60edf021ad91ad0abf94715b,,,,,,,,,,,,
"[""period""]",0,[1.7585999999977275],100,0,100,0,1,5f1d68503e85b268dcfb91fd,Kobieta,20,2021-07-13_21h57.56.509,rantool2,2021.1.4,Win32,59.99880002,5f1d68503e85b268dcfb91fd,60d9d14f4a8a35a482e0d9bf,60edf021ad91ad0abf94715b,,,,,,,,,,,,
"[""period""]",0,[1.8812000000029911],101,0,101,0,1,5f1d68503e85b268dcfb91fd,Kobieta,20,2021-07-13_21h57.56.509,rantool2,2021.1.4,Win32,59.99880002,5f1d68503e85b268dcfb91fd,60d9d14f4a8a35a482e0d9bf,60edf021ad91ad0abf94715b,,,,,,,,,,,,
"[""period""]",0,[1.6245000000000118],102,0,102,0,1,5f1d68503e85b268dcfb91fd,Kobieta,20,2021-07-13_21h57.56.509,rantool2,2021.1.4,Win32,59.99880002,5f1d68503e85b268dcfb91fd,60d9d14f4a8a35a482e0d9bf,60edf021ad91ad0abf94715b,,,,,,,,,,,,
"[""comma""]",0,[1.3068000000007487],103,0,103,0,1,5f1d68503e85b268dcfb91fd,Kobieta,20,2021-07-13_21h57.56.509,rantool2,2021.1.4,Win32,59.99880002,5f1d68503e85b268dcfb91fd,60d9d14f4a8a35a482e0d9bf,60edf021ad91ad0abf94715b,,,,,,,,,,,,
0,0,,104,0,104,0,1,5f1d68503e85b268dcfb91fd,Kobieta,20,2021-07-13_21h57.56.509,rantool2,2021.1.4,Win32,59.99880002,5f1d68503e85b268dcfb91fd,60d9d14f4a8a35a482e0d9bf,60edf021ad91ad0abf94715b,,,,,,,,,,,,
"[""comma""]",0,[0.23380000000071277],105,0,105,0,1,5f1d68503e85b268dcfb91fd,Kobieta,20,2021-07-13_21h57.56.509,rantool2,2021.1.4,Win32,59.99880002,5f1d68503e85b268dcfb91fd,60d9d14f4a8a35a482e0d9bf,60edf021ad91ad0abf94715b,,,,,,,,,,,,
"[""comma""]",0,[0.22660000000149694],106,0,106,0,1,5f1d68503e85b268dcfb91fd,Kobieta,20,2021-07-13_21h57.56.509,rantool2,2021.1.4,Win32,59.99880002,5f1d68503e85b268dcfb91fd,60d9d14f4a8a35a482e0d9bf,60edf021ad91ad0abf94715b,,,,,,,,,,,,
"[""comma"",""period""]",0,"[0.05539999999854217,1.709600000001501]",107,0,107,0,1,5f1d68503e85b268dcfb91fd,Kobieta,20,2021-07-13_21h57.56.509,rantool2,2021.1.4,Win32,59.99880002,5f1d68503e85b268dcfb91fd,60d9d14f4a8a35a482e0d9bf,60edf021ad91ad0abf94715b,,,,,,,,,,,,
"[""comma""]",0,[1.752900000002228],108,0,108,0,1,5f1d68503e85b268dcfb91fd,Kobieta,20,2021-07-13_21h57.56.509,rantool2,2021.1.4,Win32,59.99880002,5f1d68503e85b268dcfb91fd,60d9d14f4a8a35a482e0d9bf,60edf021ad91ad0abf94715b,,,,,,,,,,,,
0,0,,109,0,109,0,1,5f1d68503e85b268dcfb91fd,Kobieta,20,2021-07-13_21h57.56.509,rantool2,2021.1.4,Win32,59.99880002,5f1d68503e85b268dcfb91fd,60d9d14f4a8a35a482e0d9bf,60edf021ad91ad0abf94715b,,,,,,,,,,,,
"[""comma""]",0,[0.09220000000294704],110,0,110,0,1,5f1d68503e85b268dcfb91fd,Kobieta,20,2021-07-13_21h57.56.509,rantool2,2021.1.4,Win32,59.99880002,5f1d68503e85b268dcfb91fd,60d9d14f4a8a35a482e0d9bf,60edf021ad91ad0abf94715b,,,,,,,,,,,,
"[""comma""]",0,[0.2553000000007728],111,0,111,0,1,5f1d68503e85b268dcfb91fd,Kobieta,20,2021-07-13_21h57.56.509,rantool2,2021.1.4,Win32,59.99880002,5f1d68503e85b268dcfb91fd,60d9d14f4a8a35a482e0d9bf,60edf021ad91ad0abf94715b,,,,,,,,,,,,
"[""period""]",0,[0.4178000000007387],112,0,112,0,1,5f1d68503e85b268dcfb91fd,Kobieta,20,2021-07-13_21h57.56.509,rantool2,2021.1.4,Win32,59.99880002,5f1d68503e85b268dcfb91fd,60d9d14f4a8a35a482e0d9bf,60edf021ad91ad0abf94715b,,,,,,,,,,,,
"[""comma""]",0,[0.21750000000002956],113,0,113,0,1,5f1d68503e85b268dcfb91fd,Kobieta,20,2021-07-13_21h57.56.509,rantool2,2021.1.4,Win32,59.99880002,5f1d68503e85b268dcfb91fd,60d9d14f4a8a35a482e0d9bf,60edf021ad91ad0abf94715b,,,,,,,,,,,,
"[""comma""]",0,[0.33330000000074733],114,0,114,0,1,5f1d68503e85b268dcfb91fd,Kobieta,20,2021-07-13_21h57.56.509,rantool2,2021.1.4,Win32,59.99880002,5f1d68503e85b268dcfb91fd,60d9d14f4a8a35a482e0d9bf,60edf021ad91ad0abf94715b,,,,,,,,,,,,
"[""comma""]",0,[0.23389999999852762],115,0,115,0,1,5f1d68503e85b268dcfb91fd,Kobieta,20,2021-07-13_21h57.56.509,rantool2,2021.1.4,Win32,59.99880002,5f1d68503e85b268dcfb91fd,60d9d14f4a8a35a482e0d9bf,60edf021ad91ad0abf94715b,,,,,,,,,,,,
"[""period""]",0,[0.12970000000296977],116,0,116,0,1,5f1d68503e85b268dcfb91fd,Kobieta,20,2021-07-13_21h57.56.509,rantool2,2021.1.4,Win32,59.99880002,5f1d68503e85b268dcfb91fd,60d9d14f4a8a35a482e0d9bf,60edf021ad91ad0abf94715b,,,,,,,,,,,,
"[""comma""]",0,[0.11810000000150467],117,0,117,0,1,5f1d68503e85b268dcfb91fd,Kobieta,20,2021-07-13_21h57.56.509,rantool2,2021.1.4,Win32,59.99880002,5f1d68503e85b268dcfb91fd,60d9d14f4a8a35a482e0d9bf,60edf021ad91ad0abf94715b,,,,,,,,,,,,
"[""comma""]",0,[0.20419999999921856],118,0,118,0,1,5f1d68503e85b268dcfb91fd,Kobieta,20,2021-07-13_21h57.56.509,rantool2,2021.1.4,Win32,59.99880002,5f1d68503e85b268dcfb91fd,60d9d14f4a8a35a482e0d9bf,60edf021ad91ad0abf94715b,,,,,,,,,,,,
"[""period""]",0,[0.21689999999847487],119,0,119,0,1,5f1d68503e85b268dcfb91fd,Kobieta,20,2021-07-13_21h57.56.509,rantool2,2021.1.4,Win32,59.99880002,5f1d68503e85b268dcfb91fd,60d9d14f4a8a35a482e0d9bf,60edf021ad91ad0abf94715b,,,,,,,,,,,,
,,,,,,,,5f1d68503e85b268dcfb91fd,Kobieta,20,2021-07-13_21h57.56.509,rantool2,2021.1.4,Win32,59.99880002,5f1d68503e85b268dcfb91fd,60d9d14f4a8a35a482e0d9bf,60edf021ad91ad0abf94715b,f,2.9064,0,0,0,9,1,OOROORO,OOROORR,21.07991943,22.2428857,series_1
,,,,,,,,5f1d68503e85b268dcfb91fd,Kobieta,20,2021-07-13_21h57.56.509,rantool2,2021.1.4,Win32,59.99880002,5f1d68503e85b268dcfb91fd,60d9d14f4a8a35a482e0d9bf,60edf021ad91ad0abf94715b,f,1.5506,0,1,1,2,1,OOOOROO,OOOOROR,20.43051175,21.02936224,series_1
,,,,,,,,5f1d68503e85b268dcfb91fd,Kobieta,20,2021-07-13_21h57.56.509,rantool2,2021.1.4,Win32,59.99880002,5f1d68503e85b268dcfb91fd,60d9d14f4a8a35a482e0d9bf,60edf021ad91ad0abf94715b,j,2.1111,0,2,2,11,1,OORORRO,OORORRR,22.18365867,22.6797523,series_1
,,,,,,,,5f1d68503e85b268dcfb91fd,Kobieta,20,2021-07-13_21h57.56.509,rantool2,2021.1.4,Win32,59.99880002,5f1d68503e85b268dcfb91fd,60d9d14f4a8a35a482e0d9bf,60edf021ad91ad0abf94715b,j,1.7925,0,3,3,39,1,ROORRRO,ROORRRR,21.82425538,21.38562617,series_0
,,,,,,,,5f1d68503e85b268dcfb91fd,Kobieta,20,2021-07-13_21h57.56.509,rantool2,2021.1.4,Win32,59.99880002,5f1d68503e85b268dcfb91fd,60d9d14f4a8a35a482e0d9bf,60edf021ad91ad0abf94715b,j,1.7337,0,4,4,56,1,RRROOOO,RRROOOR,21.6194508,22.31681875,series_1
,,,,,,,,5f1d68503e85b268dcfb91fd,Kobieta,20,2021-07-13_21h57.56.509,rantool2,2021.1.4,Win32,59.99880002,5f1d68503e85b268dcfb91fd,60d9d14f4a8a35a482e0d9bf,60edf021ad91ad0abf94715b,f,1.1685,0,5,5,24,1,ORROOOO,ORROOOR,21.12383932,22.07102821,series_1
,,,,,,,,5f1d68503e85b268dcfb91fd,Kobieta,20,2021-07-13_21h57.56.509,rantool2,2021.1.4,Win32,59.99880002,5f1d68503e85b268dcfb91fd,60d9d14f4a8a35a482e0d9bf,60edf021ad91ad0abf94715b,j,1.283,0,6,6,34,1,ROOOROO,ROOOROR,21.03750787,21.24781509,series_1
,,,,,,,,5f1d68503e85b268dcfb91fd,Kobieta,20,2021-07-13_21h57.56.509,rantool2,2021.1.4,Win32,59.99880002,5f1d68503e85b268dcfb91fd,60d9d14f4a8a35a482e0d9bf,60edf021ad91ad0abf94715b,j,1.534,0,7,7,17,1,OROOORO,OROOORR,21.03750787,22.12173012,series_1
,,,,,,,,5f1d68503e85b268dcfb91fd,Kobieta,20,2021-07-13_21h57.56.509,rantool2,2021.1.4,Win32,59.99880002,5f1d68503e85b268dcfb91fd,60d9d14f4a8a35a482e0d9bf,60edf021ad91ad0abf94715b,f,3.2833,0,8,8,49,1,RROOORO,RROOORR,21.76276513,22.53364006,series_1
,,,,,,,,5f1d68503e85b268dcfb91fd,Kobieta,20,2021-07-13_21h57.56.509,rantool2,2021.1.4,Win32,59.99880002,5f1d68503e85b268dcfb91fd,60d9d14f4a8a35a482e0d9bf,60edf021ad91ad0abf94715b,f,2.2834,0,9,9,31,1,ORRRRRO,ORRRRRR,22.16413392,20.74050628,series_0
,,,,,,,,5f1d68503e85b268dcfb91fd,Kobieta,20,2021-07-13_21h57.56.509,rantool2,2021.1.4,Win32,59.99880002,5f1d68503e85b268dcfb91fd,60d9d14f4a8a35a482e0d9bf,60edf021ad91ad0abf94715b,j,1.6502,0,10,10,0,1,OOOOOOO,OOOOOOR,18.52739004,19.62521613,series_1
,,,,,,,,5f1d68503e85b268dcfb91fd,Kobieta,20,2021-07-13_21h57.56.509,rantool2,2021.1.4,Win32,59.99880002,5f1d68503e85b268dcfb91fd,60d9d14f4a8a35a482e0d9bf,60edf021ad91ad0abf94715b,f,2.4659,0,11,11,25,1,ORROORO,ORROORR,21.79500819,22.61624387,series_1
,,,,,,,,5f1d68503e85b268dcfb91fd,Kobieta,20,2021-07-13_21h57.56.509,rantool2,2021.1.4,Win32,59.99880002,5f1d68503e85b268dcfb91fd,60d9d14f4a8a35a482e0d9bf,60edf021ad91ad0abf94715b,f,1.4445,0,12,12,41,1,ROROORO,ROROORR,20.42602454,21.71443381,series_1
,,,,,,,,5f1d68503e85b268dcfb91fd,Kobieta,20,2021-07-13_21h57.56.509,rantool2,2021.1.4,Win32,59.99880002,5f1d68503e85b268dcfb91fd,60d9d14f4a8a35a482e0d9bf,60edf021ad91ad0abf94715b,j,2.3166,0,13,13,19,1,OROORRO,OROORRR,21.73568164,22.11181017,series_1
,,,,,,,,5f1d68503e85b268dcfb91fd,Kobieta,20,2021-07-13_21h57.56.509,rantool2,2021.1.4,Win32,59.99880002,5f1d68503e85b268dcfb91fd,60d9d14f4a8a35a482e0d9bf,60edf021ad91ad0abf94715b,j,2.3503,0,14,14,45,1,RORRORO,RORRORR,20.78182524,21.22513037,series_1
,,,,,,,,5f1d68503e85b268dcfb91fd,Kobieta,20,2021-07-13_21h57.56.509,rantool2,2021.1.4,Win32,59.99880002,5f1d68503e85b268dcfb91fd,60d9d14f4a8a35a482e0d9bf,60edf021ad91ad0abf94715b,j,1.7669,0,15,15,33,1,ROOOORO,ROOOORR,20.83779602,22.03072203,series_1
,,,,,,,,5f1d68503e85b268dcfb91fd,Kobieta,20,2021-07-13_21h57.56.509,rantool2,2021.1.4,Win32,59.99880002,5f1d68503e85b268dcfb91fd,60d9d14f4a8a35a482e0d9bf,60edf021ad91ad0abf94715b,f,1.1337,0,16,16,43,1,RORORRO,RORORRR,20.71309134,21.07490964,series_1
,,,,,,,,5f1d68503e85b268dcfb91fd,Kobieta,20,2021-07-13_21h57.56.509,rantool2,2021.1.4,Win32,59.99880002,5f1d68503e85b268dcfb91fd,60d9d14f4a8a35a482e0d9bf,60edf021ad91ad0abf94715b,j,1.0671,0,17,17,52,1,RROROOO,RROROOR,22.18365867,22.11097995,series_0
,,,,,,,,5f1d68503e85b268dcfb91fd,Kobieta,20,2021-07-13_21h57.56.509,rantool2,2021.1.4,Win32,59.99880002,5f1d68503e85b268dcfb91fd,60d9d14f4a8a35a482e0d9bf,60edf021ad91ad0abf94715b,j,1.4666,0,18,18,4,1,OOOROOO,OOOROOR,19.91402015,21.21223021,series_1
,,,,,,,,5f1d68503e85b268dcfb91fd,Kobieta,20,2021-07-13_21h57.56.509,rantool2,2021.1.4,Win32,59.99880002,5f1d68503e85b268dcfb91fd,60d9d14f4a8a35a482e0d9bf,60edf021ad91ad0abf94715b,f,0.8671,0,19,19,6,1,OOORROO,OOORROR,21.12383932,21.38562617,series_1
,,,,,,,,5f1d68503e85b268dcfb91fd,Kobieta,20,2021-07-13_21h57.56.509,rantool2,2021.1.4,Win32,59.99880002,5f1d68503e85b268dcfb91fd,60d9d14f4a8a35a482e0d9bf,60edf021ad91ad0abf94715b,j,1.9328,0,20,20,3,1,OOOORRO,OOOORRR,20.90986523,21.74922619,series_1
,,,,,,,,5f1d68503e85b268dcfb91fd,Kobieta,20,2021-07-13_21h57.56.509,rantool2,2021.1.4,Win32,59.99880002,5f1d68503e85b268dcfb91fd,60d9d14f4a8a35a482e0d9bf,60edf021ad91ad0abf94715b,f,0.968,0,21,21,18,1,OROOROO,OROOROR,20.84860893,21.22513037,series_1
,,,,,,,,5f1d68503e85b268dcfb91fd,Kobieta,20,2021-07-13_21h57.56.509,rantool2,2021.1.4,Win32,59.99880002,5f1d68503e85b268dcfb91fd,60d9d14f4a8a35a482e0d9bf,60edf021ad91ad0abf94715b,j,1.3501,0,22,22,51,1,RROORRO,RROORRR,21.89852628,22.02786418,series_1
,,,,,,,,5f1d68503e85b268dcfb91fd,Kobieta,20,2021-07-13_21h57.56.509,rantool2,2021.1.4,Win32,59.99880002,5f1d68503e85b268dcfb91fd,60d9d14f4a8a35a482e0d9bf,60edf021ad91ad0abf94715b,f,1.1015,0,23,23,53,1,RRORORO,RRORORR,20.71309134,21.90565814,series_1
,,,,,,,,5f1d68503e85b268dcfb91fd,Kobieta,20,2021-07-13_21h57.56.509,rantool2,2021.1.4,Win32,59.99880002,5f1d68503e85b268dcfb91fd,60d9d14f4a8a35a482e0d9bf,60edf021ad91ad0abf94715b,j,0.7537,0,24,24,55,1,RRORRRO,RRORRRR,21.56657303,21.21223021,series_0
,,,,,,,,5f1d68503e85b268dcfb91fd,Kobieta,20,2021-07-13_21h57.56.509,rantool2,2021.1.4,Win32,59.99880002,5f1d68503e85b268dcfb91fd,60d9d14f4a8a35a482e0d9bf,60edf021ad91ad0abf94715b,f,1.0337,0,25,25,8,1,OOROOOO,OOROOOR,19.91402015,20.89823192,series_1
,,,,,,,,5f1d68503e85b268dcfb91fd,Kobieta,20,2021-07-13_21h57.56.509,rantool2,2021.1.4,Win32,59.99880002,5f1d68503e85b268dcfb91fd,60d9d14f4a8a35a482e0d9bf,60edf021ad91ad0abf94715b,f,1.4672,0,26,26,54,1,RRORROO,RRORROR,21.55250791,20.9984461,series_0
,,,,,,,,5f1d68503e85b268dcfb91fd,Kobieta,20,2021-07-13_21h57.56.509,rantool2,2021.1.4,Win32,59.99880002,5f1d68503e85b268dcfb91fd,60d9d14f4a8a35a482e0d9bf,60edf021ad91ad0abf94715b,j,1.1673,0,27,27,59,1,RRRORRO,RRRORRR,21.56657303,20.89823192,series_0
,,,,,,,,5f1d68503e85b268dcfb91fd,Kobieta,20,2021-07-13_21h57.56.509,rantool2,2021.1.4,Win32,59.99880002,5f1d68503e85b268dcfb91fd,60d9d14f4a8a35a482e0d9bf,60edf021ad91ad0abf94715b,j,1.0354,0,28,28,38,1,ROORROO,ROORROR,21.79500819,21.36812781,series_0
,,,,,,,,5f1d68503e85b268dcfb91fd,Kobieta,20,2021-07-13_21h57.56.509,rantool2,2021.1.4,Win32,59.99880002,5f1d68503e85b268dcfb91fd,60d9d14f4a8a35a482e0d9bf,60edf021ad91ad0abf94715b,f,0.9511,0,29,29,48,1,RROOOOO,RROOOOR,20.90986523,22.15934078,series_1
,,,,,,,,5f1d68503e85b268dcfb91fd,Kobieta,20,2021-07-13_21h57.56.509,rantool2,2021.1.4,Win32,59.99880002,5f1d68503e85b268dcfb91fd,60d9d14f4a8a35a482e0d9bf,60edf021ad91ad0abf94715b,f,0.8833,0,30,30,35,1,ROOORRO,ROOORRR,21.76276513,22.16977179,series_1
,,,,,,,,5f1d68503e85b268dcfb91fd,Kobieta,20,2021-07-13_21h57.56.509,rantool2,2021.1.4,Win32,59.99880002,5f1d68503e85b268dcfb91fd,60d9d14f4a8a35a482e0d9bf,60edf021ad91ad0abf94715b,j,1.2503,0,31,31,14,1,OORRROO,OORRROR,22.24142883,22.16977179,series_0
,,,,,,,,5f1d68503e85b268dcfb91fd,Kobieta,20,2021-07-13_21h57.56.509,rantool2,2021.1.4,Win32,59.99880002,5f1d68503e85b268dcfb91fd,60d9d14f4a8a35a482e0d9bf,60edf021ad91ad0abf94715b,j,1.4169,0,32,32,12,1,OORROOO,OORROOR,21.30250474,22.02786418,series_1
,,,,,,,,5f1d68503e85b268dcfb91fd,Kobieta,20,2021-07-13_21h57.56.509,rantool2,2021.1.4,Win32,59.99880002,5f1d68503e85b268dcfb91fd,60d9d14f4a8a35a482e0d9bf,60edf021ad91ad0abf94715b,j,0.7838,0,33,33,21,1,ORORORO,ORORORR,20.39515459,22.06781359,series_1
,,,,,,,,5f1d68503e85b268dcfb91fd,Kobieta,20,2021-07-13_21h57.56.509,rantool2,2021.1.4,Win32,59.99880002,5f1d68503e85b268dcfb91fd,60d9d14f4a8a35a482e0d9bf,60edf021ad91ad0abf94715b,j,1.1012,0,34,34,47,1,RORRRRO,RORRRRR,21.81333602,21.02936224,series_0
,,,,,,,,5f1d68503e85b268dcfb91fd,Kobieta,20,2021-07-13_21h57.56.509,rantool2,2021.1.4,Win32,59.99880002,5f1d68503e85b268dcfb91fd,60d9d14f4a8a35a482e0d9bf,60edf021ad91ad0abf94715b,j,1.0833,0,35,35,1,1,OOOOORO,OOOOORR,19.92253567,20.74050628,series_1
,,,,,,,,5f1d68503e85b268dcfb91fd,Kobieta,20,2021-07-13_21h57.56.509,rantool2,2021.1.4,Win32,59.99880002,5f1d68503e85b268dcfb91fd,60d9d14f4a8a35a482e0d9bf,60edf021ad91ad0abf94715b,j,1.2037,0,36,36,60,1,RRRROOO,RRRROOR,22.10108823,22.15934078,series_1
,,,,,,,,5f1d68503e85b268dcfb91fd,Kobieta,20,2021-07-13_21h57.56.509,rantool2,2021.1.4,Win32,59.99880002,5f1d68503e85b268dcfb91fd,60d9d14f4a8a35a482e0d9bf,60edf021ad91ad0abf94715b,j,0.9336,0,37,37,13,1,OORRORO,OORRORR,21.66733484,22.11181017,series_1
,,,,,,,,5f1d68503e85b268dcfb91fd,Kobieta,20,2021-07-13_21h57.56.509,rantool2,2021.1.4,Win32,59.99880002,5f1d68503e85b268dcfb91fd,60d9d14f4a8a35a482e0d9bf,60edf021ad91ad0abf94715b,j,1.0671,0,38,38,32,1,ROOOOOO,ROOOOOR,19.92253567,21.27974287,series_1
,,,,,,,,5f1d68503e85b268dcfb91fd,Kobieta,20,2021-07-13_21h57.56.509,rantool2,2021.1.4,Win32,59.99880002,5f1d68503e85b268dcfb91fd,60d9d14f4a8a35a482e0d9bf,60edf021ad91ad0abf94715b,f,1.4272,0,39,39,62,1,RRRRROO,RRRRROR,22.16413392,21.27974287,series_0
,,,,,,,,5f1d68503e85b268dcfb91fd,Kobieta,20,2021-07-13_21h57.56.509,rantool2,2021.1.4,Win32,59.99880002,5f1d68503e85b268dcfb91fd,60d9d14f4a8a35a482e0d9bf,60edf021ad91ad0abf94715b,j,1.2006,0,40,40,10,1,OOROROO,OOROROR,21.31236711,21.07490964,series_0
,,,,,,,,5f1d68503e85b268dcfb91fd,Kobieta,20,2021-07-13_21h57.56.509,rantool2,2021.1.4,Win32,59.99880002,5f1d68503e85b268dcfb91fd,60d9d14f4a8a35a482e0d9bf,60edf021ad91ad0abf94715b,j,0.9503,0,41,41,15,1,OORRRRO,OORRRRR,22.10108823,21.74922619,series_0
,,,,,,,,5f1d68503e85b268dcfb91fd,Kobieta,20,2021-07-13_21h57.56.509,rantool2,2021.1.4,Win32,59.99880002,5f1d68503e85b268dcfb91fd,60d9d14f4a8a35a482e0d9bf,60edf021ad91ad0abf94715b,f,0.8697,0,42,42,30,1,ORRRROO,ORRRROR,22.46748491,22.03072203,series_0
,,,,,,,,5f1d68503e85b268dcfb91fd,Kobieta,20,2021-07-13_21h57.56.509,rantool2,2021.1.4,Win32,59.99880002,5f1d68503e85b268dcfb91fd,60d9d14f4a8a35a482e0d9bf,60edf021ad91ad0abf94715b,j,0.8159,0,43,43,23,1,ORORRRO,ORORRRR,22.1285618,21.9921709,series_0
,,,,,,,,5f1d68503e85b268dcfb91fd,Kobieta,20,2021-07-13_21h57.56.509,rantool2,2021.1.4,Win32,59.99880002,5f1d68503e85b268dcfb91fd,60d9d14f4a8a35a482e0d9bf,60edf021ad91ad0abf94715b,j,0.9067,0,44,44,16,1,OROOOOO,OROOOOR,20.43051175,21.17347734,series_1
,,,,,,,,5f1d68503e85b268dcfb91fd,Kobieta,20,2021-07-13_21h57.56.509,rantool2,2021.1.4,Win32,59.99880002,5f1d68503e85b268dcfb91fd,60d9d14f4a8a35a482e0d9bf,60edf021ad91ad0abf94715b,f,1.0257,0,45,45,36,1,ROOROOO,ROOROOR,21.07991943,20.9984461,series_0
,,,,,,,,5f1d68503e85b268dcfb91fd,Kobieta,20,2021-07-13_21h57.56.509,rantool2,2021.1.4,Win32,59.99880002,5f1d68503e85b268dcfb91fd,60d9d14f4a8a35a482e0d9bf,60edf021ad91ad0abf94715b,f,0.9005,0,46,46,42,1,ROROROO,ROROROR,20.39515459,19.8361834,series_0
,,,,,,,,5f1d68503e85b268dcfb91fd,Kobieta,20,2021-07-13_21h57.56.509,rantool2,2021.1.4,Win32,59.99880002,5f1d68503e85b268dcfb91fd,60d9d14f4a8a35a482e0d9bf,60edf021ad91ad0abf94715b,f,1.3336,0,47,47,40,1,ROROOOO,ROROOOR,20.87963819,21.37121559,series_1
,,,,,,,,5f1d68503e85b268dcfb91fd,Kobieta,20,2021-07-13_21h57.56.509,rantool2,2021.1.4,Win32,59.99880002,5f1d68503e85b268dcfb91fd,60d9d14f4a8a35a482e0d9bf,60edf021ad91ad0abf94715b,f,1.4341,0,48,48,50,1,RROOROO,RROOROR,21.73568164,22.02566557,series_1
,,,,,,,,5f1d68503e85b268dcfb91fd,Kobieta,20,2021-07-13_21h57.56.509,rantool2,2021.1.4,Win32,59.99880002,5f1d68503e85b268dcfb91fd,60d9d14f4a8a35a482e0d9bf,60edf021ad91ad0abf94715b,f,1.0258,0,49,49,7,1,OOORRRO,OOORRRR,21.6194508,21.899017,series_1
,,,,,,,,5f1d68503e85b268dcfb91fd,Kobieta,20,2021-07-13_21h57.56.509,rantool2,2021.1.4,Win32,59.99880002,5f1d68503e85b268dcfb91fd,60d9d14f4a8a35a482e0d9bf,60edf021ad91ad0abf94715b,j,1.3337,0,50,50,57,1,RRROORO,RRROORR,21.82425538,22.07102821,series_1
,,,,,,,,5f1d68503e85b268dcfb91fd,Kobieta,20,2021-07-13_21h57.56.509,rantool2,2021.1.4,Win32,59.99880002,5f1d68503e85b268dcfb91fd,60d9d14f4a8a35a482e0d9bf,60edf021ad91ad0abf94715b,j,0.8699,0,51,51,27,1,ORRORRO,ORRORRR,21.55250791,22.2428857,series_1
,,,,,,,,5f1d68503e85b268dcfb91fd,Kobieta,20,2021-07-13_21h57.56.509,rantool2,2021.1.4,Win32,59.99880002,5f1d68503e85b268dcfb91fd,60d9d14f4a8a35a482e0d9bf,60edf021ad91ad0abf94715b,f,0.8589,0,52,52,37,1,ROORORO,ROORORR,20.42602454,21.57657071,series_1
,,,,,,,,5f1d68503e85b268dcfb91fd,Kobieta,20,2021-07-13_21h57.56.509,rantool2,2021.1.4,Win32,59.99880002,5f1d68503e85b268dcfb91fd,60d9d14f4a8a35a482e0d9bf,60edf021ad91ad0abf94715b,j,1.5478,0,53,53,20,1,OROROOO,OROROOR,21.31236711,21.90565814,series_1
,,,,,,,,5f1d68503e85b268dcfb91fd,Kobieta,20,2021-07-13_21h57.56.509,rantool2,2021.1.4,Win32,59.99880002,5f1d68503e85b268dcfb91fd,60d9d14f4a8a35a482e0d9bf,60edf021ad91ad0abf94715b,j,1.0077,0,54,54,29,1,ORRRORO,ORRRORR,22.00300695,22.12173012,series_1
,,,,,,,,5f1d68503e85b268dcfb91fd,Kobieta,20,2021-07-13_21h57.56.509,rantool2,2021.1.4,Win32,59.99880002,5f1d68503e85b268dcfb91fd,60d9d14f4a8a35a482e0d9bf,60edf021ad91ad0abf94715b,f,1.2335,0,55,55,28,1,ORRROOO,ORRROOR,22.24142883,22.53364006,series_1
,,,,,,,,5f1d68503e85b268dcfb91fd,Kobieta,20,2021-07-13_21h57.56.509,rantool2,2021.1.4,Win32,59.99880002,5f1d68503e85b268dcfb91fd,60d9d14f4a8a35a482e0d9bf,60edf021ad91ad0abf94715b,j,0.8508,0,56,56,63,1,RRRRRRO,RRRRRRR,21.35278725,19.62521613,series_0
,,,,,,,,5f1d68503e85b268dcfb91fd,Kobieta,20,2021-07-13_21h57.56.509,rantool2,2021.1.4,Win32,59.99880002,5f1d68503e85b268dcfb91fd,60d9d14f4a8a35a482e0d9bf,60edf021ad91ad0abf94715b,f,1.1172,0,57,57,44,1,RORROOO,RORROOR,21.66733484,22.02566557,series_1
,,,,,,,,5f1d68503e85b268dcfb91fd,Kobieta,20,2021-07-13_21h57.56.509,rantool2,2021.1.4,Win32,59.99880002,5f1d68503e85b268dcfb91fd,60d9d14f4a8a35a482e0d9bf,60edf021ad91ad0abf94715b,j,0.8779,0,58,58,26,1,ORROROO,ORROROR,22.02732763,21.71443381,series_0
,,,,,,,,5f1d68503e85b268dcfb91fd,Kobieta,20,2021-07-13_21h57.56.509,rantool2,2021.1.4,Win32,59.99880002,5f1d68503e85b268dcfb91fd,60d9d14f4a8a35a482e0d9bf,60edf021ad91ad0abf94715b,f,0.801,0,59,59,5,1,OOORORO,OOORORR,20.87963819,21.9921709,series_1
,,,,,,,,5f1d68503e85b268dcfb91fd,Kobieta,20,2021-07-13_21h57.56.509,rantool2,2021.1.4,Win32,59.99880002,5f1d68503e85b268dcfb91fd,60d9d14f4a8a35a482e0d9bf,60edf021ad91ad0abf94715b,j,0.6443,0,60,60,61,1,RRRRORO,RRRRORR,21.81333602,21.17347734,series_0
,,,,,,,,5f1d68503e85b268dcfb91fd,Kobieta,20,2021-07-13_21h57.56.509,rantool2,2021.1.4,Win32,59.99880002,5f1d68503e85b268dcfb91fd,60d9d14f4a8a35a482e0d9bf,60edf021ad91ad0abf94715b,f,0.6666,0,61,61,22,1,ORORROO,ORORROR,22.02732763,21.57657071,series_0
,,,,,,,,5f1d68503e85b268dcfb91fd,Kobieta,20,2021-07-13_21h57.56.509,rantool2,2021.1.4,Win32,59.99880002,5f1d68503e85b268dcfb91fd,60d9d14f4a8a35a482e0d9bf,60edf021ad91ad0abf94715b,j,0.4451,0,62,62,58,1,RRROROO,RRROROR,22.1285618,21.37121559,series_0
,,,,,,,,5f1d68503e85b268dcfb91fd,Kobieta,20,2021-07-13_21h57.56.509,rantool2,2021.1.4,Win32,59.99880002,5f1d68503e85b268dcfb91fd,60d9d14f4a8a35a482e0d9bf,60edf021ad91ad0abf94715b,f,0.5999,0,63,63,46,1,RORRROO,RORRROR,22.00300695,21.24781509,series_0
