key_resp_7.keys,key_resp_7.rt,trials_2.thisRepN,trials_2.thisTrialN,trials_2.thisN,trials_2.thisIndex,trials_2.ran,id,series_0,series_1,acss_0,acss_1,comparison,id*,Płeć*,Wiek*,date,expName,psychopyVersion,OS,frameRate,STUDY_ID,SESSION_ID,key_resp_5.keys,key_resp_5.corr,key_resp_5.rt,trials.thisRepN,trials.thisTrialN,trials.thisN,trials.thisIndex,trials.ran
f,1.6759,0,0,0,25,1,5ec62e3db9ee8900092eb997,ORROORO,ORROORR,21.79500819,22.61624387,series_1,5ec62e3db9ee8900092eb997,Mężczyzna,19,2021-09-06_19h18.06.056,rantool2,2021.1.4,Win32,164.2036125,6135e006383e6ea6c3d06a28,61364d3f8e827b4666cb25f9,,,,,,,,
j,2.1669,0,1,1,48,1,5ec62e3db9ee8900092eb997,RROOOOO,RROOOOR,20.90986523,22.15934078,series_1,5ec62e3db9ee8900092eb997,Mężczyzna,19,2021-09-06_19h18.06.056,rantool2,2021.1.4,Win32,164.2036125,6135e006383e6ea6c3d06a28,61364d3f8e827b4666cb25f9,,,,,,,,
f,2.073,0,2,2,27,1,5ec62e3db9ee8900092eb997,ORRORRO,ORRORRR,21.55250791,22.2428857,series_1,5ec62e3db9ee8900092eb997,Mężczyzna,19,2021-09-06_19h18.06.056,rantool2,2021.1.4,Win32,164.2036125,6135e006383e6ea6c3d06a28,61364d3f8e827b4666cb25f9,,,,,,,,
j,2.0847,0,3,3,5,1,5ec62e3db9ee8900092eb997,OOORORO,OOORORR,20.87963819,21.9921709,series_1,5ec62e3db9ee8900092eb997,Mężczyzna,19,2021-09-06_19h18.06.056,rantool2,2021.1.4,Win32,164.2036125,6135e006383e6ea6c3d06a28,61364d3f8e827b4666cb25f9,,,,,,,,
j,2.7877,0,4,4,30,1,5ec62e3db9ee8900092eb997,ORRRROO,ORRRROR,22.46748491,22.03072203,series_0,5ec62e3db9ee8900092eb997,Mężczyzna,19,2021-09-06_19h18.06.056,rantool2,2021.1.4,Win32,164.2036125,6135e006383e6ea6c3d06a28,61364d3f8e827b4666cb25f9,,,,,,,,
f,2.5069,0,5,5,38,1,5ec62e3db9ee8900092eb997,ROORROO,ROORROR,21.79500819,21.36812781,series_0,5ec62e3db9ee8900092eb997,Mężczyzna,19,2021-09-06_19h18.06.056,rantool2,2021.1.4,Win32,164.2036125,6135e006383e6ea6c3d06a28,61364d3f8e827b4666cb25f9,,,,,,,,
j,2.2391,0,6,6,51,1,5ec62e3db9ee8900092eb997,RROORRO,RROORRR,21.89852628,22.02786418,series_1,5ec62e3db9ee8900092eb997,Mężczyzna,19,2021-09-06_19h18.06.056,rantool2,2021.1.4,Win32,164.2036125,6135e006383e6ea6c3d06a28,61364d3f8e827b4666cb25f9,,,,,,,,
f,1.8755,0,7,7,47,1,5ec62e3db9ee8900092eb997,RORRRRO,RORRRRR,21.81333602,21.02936224,series_0,5ec62e3db9ee8900092eb997,Mężczyzna,19,2021-09-06_19h18.06.056,rantool2,2021.1.4,Win32,164.2036125,6135e006383e6ea6c3d06a28,61364d3f8e827b4666cb25f9,,,,,,,,
f,2.6919,0,8,8,42,1,5ec62e3db9ee8900092eb997,ROROROO,ROROROR,20.39515459,19.8361834,series_0,5ec62e3db9ee8900092eb997,Mężczyzna,19,2021-09-06_19h18.06.056,rantool2,2021.1.4,Win32,164.2036125,6135e006383e6ea6c3d06a28,61364d3f8e827b4666cb25f9,,,,,,,,
j,2.1241,0,9,9,26,1,5ec62e3db9ee8900092eb997,ORROROO,ORROROR,22.02732763,21.71443381,series_0,5ec62e3db9ee8900092eb997,Mężczyzna,19,2021-09-06_19h18.06.056,rantool2,2021.1.4,Win32,164.2036125,6135e006383e6ea6c3d06a28,61364d3f8e827b4666cb25f9,,,,,,,,
f,2.3818,0,10,10,50,1,5ec62e3db9ee8900092eb997,RROOROO,RROOROR,21.73568164,22.02566557,series_1,5ec62e3db9ee8900092eb997,Mężczyzna,19,2021-09-06_19h18.06.056,rantool2,2021.1.4,Win32,164.2036125,6135e006383e6ea6c3d06a28,61364d3f8e827b4666cb25f9,,,,,,,,
f,2.2221,0,11,11,19,1,5ec62e3db9ee8900092eb997,OROORRO,OROORRR,21.73568164,22.11181017,series_1,5ec62e3db9ee8900092eb997,Mężczyzna,19,2021-09-06_19h18.06.056,rantool2,2021.1.4,Win32,164.2036125,6135e006383e6ea6c3d06a28,61364d3f8e827b4666cb25f9,,,,,,,,
j,1.8965,0,12,12,8,1,5ec62e3db9ee8900092eb997,OOROOOO,OOROOOR,19.91402015,20.89823192,series_1,5ec62e3db9ee8900092eb997,Mężczyzna,19,2021-09-06_19h18.06.056,rantool2,2021.1.4,Win32,164.2036125,6135e006383e6ea6c3d06a28,61364d3f8e827b4666cb25f9,,,,,,,,
f,2.0241,0,13,13,23,1,5ec62e3db9ee8900092eb997,ORORRRO,ORORRRR,22.1285618,21.9921709,series_0,5ec62e3db9ee8900092eb997,Mężczyzna,19,2021-09-06_19h18.06.056,rantool2,2021.1.4,Win32,164.2036125,6135e006383e6ea6c3d06a28,61364d3f8e827b4666cb25f9,,,,,,,,
j,2.8569,0,14,14,21,1,5ec62e3db9ee8900092eb997,ORORORO,ORORORR,20.39515459,22.06781359,series_1,5ec62e3db9ee8900092eb997,Mężczyzna,19,2021-09-06_19h18.06.056,rantool2,2021.1.4,Win32,164.2036125,6135e006383e6ea6c3d06a28,61364d3f8e827b4666cb25f9,,,,,,,,
f,2.6552,0,15,15,2,1,5ec62e3db9ee8900092eb997,OOOOROO,OOOOROR,20.43051175,21.02936224,series_1,5ec62e3db9ee8900092eb997,Mężczyzna,19,2021-09-06_19h18.06.056,rantool2,2021.1.4,Win32,164.2036125,6135e006383e6ea6c3d06a28,61364d3f8e827b4666cb25f9,,,,,,,,
f,2.6306,0,16,16,54,1,5ec62e3db9ee8900092eb997,RRORROO,RRORROR,21.55250791,20.9984461,series_0,5ec62e3db9ee8900092eb997,Mężczyzna,19,2021-09-06_19h18.06.056,rantool2,2021.1.4,Win32,164.2036125,6135e006383e6ea6c3d06a28,61364d3f8e827b4666cb25f9,,,,,,,,
f,2.139,0,17,17,52,1,5ec62e3db9ee8900092eb997,RROROOO,RROROOR,22.18365867,22.11097995,series_0,5ec62e3db9ee8900092eb997,Mężczyzna,19,2021-09-06_19h18.06.056,rantool2,2021.1.4,Win32,164.2036125,6135e006383e6ea6c3d06a28,61364d3f8e827b4666cb25f9,,,,,,,,
j,2.4372,0,18,18,34,1,5ec62e3db9ee8900092eb997,ROOOROO,ROOOROR,21.03750787,21.24781509,series_1,5ec62e3db9ee8900092eb997,Mężczyzna,19,2021-09-06_19h18.06.056,rantool2,2021.1.4,Win32,164.2036125,6135e006383e6ea6c3d06a28,61364d3f8e827b4666cb25f9,,,,,,,,
f,1.8286,0,19,19,53,1,5ec62e3db9ee8900092eb997,RRORORO,RRORORR,20.71309134,21.90565814,series_1,5ec62e3db9ee8900092eb997,Mężczyzna,19,2021-09-06_19h18.06.056,rantool2,2021.1.4,Win32,164.2036125,6135e006383e6ea6c3d06a28,61364d3f8e827b4666cb25f9,,,,,,,,
j,2.2008,0,20,20,31,1,5ec62e3db9ee8900092eb997,ORRRRRO,ORRRRRR,22.16413392,20.74050628,series_0,5ec62e3db9ee8900092eb997,Mężczyzna,19,2021-09-06_19h18.06.056,rantool2,2021.1.4,Win32,164.2036125,6135e006383e6ea6c3d06a28,61364d3f8e827b4666cb25f9,,,,,,,,
f,2.3513,0,21,21,45,1,5ec62e3db9ee8900092eb997,RORRORO,RORRORR,20.78182524,21.22513037,series_1,5ec62e3db9ee8900092eb997,Mężczyzna,19,2021-09-06_19h18.06.056,rantool2,2021.1.4,Win32,164.2036125,6135e006383e6ea6c3d06a28,61364d3f8e827b4666cb25f9,,,,,,,,
j,3.4951,0,22,22,28,1,5ec62e3db9ee8900092eb997,ORRROOO,ORRROOR,22.24142883,22.53364006,series_1,5ec62e3db9ee8900092eb997,Mężczyzna,19,2021-09-06_19h18.06.056,rantool2,2021.1.4,Win32,164.2036125,6135e006383e6ea6c3d06a28,61364d3f8e827b4666cb25f9,,,,,,,,
j,2.8419,0,23,23,17,1,5ec62e3db9ee8900092eb997,OROOORO,OROOORR,21.03750787,22.12173012,series_1,5ec62e3db9ee8900092eb997,Mężczyzna,19,2021-09-06_19h18.06.056,rantool2,2021.1.4,Win32,164.2036125,6135e006383e6ea6c3d06a28,61364d3f8e827b4666cb25f9,,,,,,,,
j,3.7149,0,24,24,43,1,5ec62e3db9ee8900092eb997,RORORRO,RORORRR,20.71309134,21.07490964,series_1,5ec62e3db9ee8900092eb997,Mężczyzna,19,2021-09-06_19h18.06.056,rantool2,2021.1.4,Win32,164.2036125,6135e006383e6ea6c3d06a28,61364d3f8e827b4666cb25f9,,,,,,,,
j,2.9295,0,25,25,36,1,5ec62e3db9ee8900092eb997,ROOROOO,ROOROOR,21.07991943,20.9984461,series_0,5ec62e3db9ee8900092eb997,Mężczyzna,19,2021-09-06_19h18.06.056,rantool2,2021.1.4,Win32,164.2036125,6135e006383e6ea6c3d06a28,61364d3f8e827b4666cb25f9,,,,,,,,
j,2.9477,0,26,26,13,1,5ec62e3db9ee8900092eb997,OORRORO,OORRORR,21.66733484,22.11181017,series_1,5ec62e3db9ee8900092eb997,Mężczyzna,19,2021-09-06_19h18.06.056,rantool2,2021.1.4,Win32,164.2036125,6135e006383e6ea6c3d06a28,61364d3f8e827b4666cb25f9,,,,,,,,
f,3.7535,0,27,27,11,1,5ec62e3db9ee8900092eb997,OORORRO,OORORRR,22.18365867,22.6797523,series_1,5ec62e3db9ee8900092eb997,Mężczyzna,19,2021-09-06_19h18.06.056,rantool2,2021.1.4,Win32,164.2036125,6135e006383e6ea6c3d06a28,61364d3f8e827b4666cb25f9,,,,,,,,
j,2.8478,0,28,28,56,1,5ec62e3db9ee8900092eb997,RRROOOO,RRROOOR,21.6194508,22.31681875,series_1,5ec62e3db9ee8900092eb997,Mężczyzna,19,2021-09-06_19h18.06.056,rantool2,2021.1.4,Win32,164.2036125,6135e006383e6ea6c3d06a28,61364d3f8e827b4666cb25f9,,,,,,,,
f,2.5508,0,29,29,12,1,5ec62e3db9ee8900092eb997,OORROOO,OORROOR,21.30250474,22.02786418,series_1,5ec62e3db9ee8900092eb997,Mężczyzna,19,2021-09-06_19h18.06.056,rantool2,2021.1.4,Win32,164.2036125,6135e006383e6ea6c3d06a28,61364d3f8e827b4666cb25f9,,,,,,,,
j,1.74,0,30,30,40,1,5ec62e3db9ee8900092eb997,ROROOOO,ROROOOR,20.87963819,21.37121559,series_1,5ec62e3db9ee8900092eb997,Mężczyzna,19,2021-09-06_19h18.06.056,rantool2,2021.1.4,Win32,164.2036125,6135e006383e6ea6c3d06a28,61364d3f8e827b4666cb25f9,,,,,,,,
f,2.3253,0,31,31,32,1,5ec62e3db9ee8900092eb997,ROOOOOO,ROOOOOR,19.92253567,21.27974287,series_1,5ec62e3db9ee8900092eb997,Mężczyzna,19,2021-09-06_19h18.06.056,rantool2,2021.1.4,Win32,164.2036125,6135e006383e6ea6c3d06a28,61364d3f8e827b4666cb25f9,,,,,,,,
j,3.9225,0,32,32,20,1,5ec62e3db9ee8900092eb997,OROROOO,OROROOR,21.31236711,21.90565814,series_1,5ec62e3db9ee8900092eb997,Mężczyzna,19,2021-09-06_19h18.06.056,rantool2,2021.1.4,Win32,164.2036125,6135e006383e6ea6c3d06a28,61364d3f8e827b4666cb25f9,,,,,,,,
f,1.9919,0,33,33,63,1,5ec62e3db9ee8900092eb997,RRRRRRO,RRRRRRR,21.35278725,19.62521613,series_0,5ec62e3db9ee8900092eb997,Mężczyzna,19,2021-09-06_19h18.06.056,rantool2,2021.1.4,Win32,164.2036125,6135e006383e6ea6c3d06a28,61364d3f8e827b4666cb25f9,,,,,,,,
j,3.3625,0,34,34,58,1,5ec62e3db9ee8900092eb997,RRROROO,RRROROR,22.1285618,21.37121559,series_0,5ec62e3db9ee8900092eb997,Mężczyzna,19,2021-09-06_19h18.06.056,rantool2,2021.1.4,Win32,164.2036125,6135e006383e6ea6c3d06a28,61364d3f8e827b4666cb25f9,,,,,,,,
f,2.8115,0,35,35,18,1,5ec62e3db9ee8900092eb997,OROOROO,OROOROR,20.84860893,21.22513037,series_1,5ec62e3db9ee8900092eb997,Mężczyzna,19,2021-09-06_19h18.06.056,rantool2,2021.1.4,Win32,164.2036125,6135e006383e6ea6c3d06a28,61364d3f8e827b4666cb25f9,,,,,,,,
f,2.04,0,36,36,41,1,5ec62e3db9ee8900092eb997,ROROORO,ROROORR,20.42602454,21.71443381,series_1,5ec62e3db9ee8900092eb997,Mężczyzna,19,2021-09-06_19h18.06.056,rantool2,2021.1.4,Win32,164.2036125,6135e006383e6ea6c3d06a28,61364d3f8e827b4666cb25f9,,,,,,,,
f,1.5268,0,37,37,0,1,5ec62e3db9ee8900092eb997,OOOOOOO,OOOOOOR,18.52739004,19.62521613,series_1,5ec62e3db9ee8900092eb997,Mężczyzna,19,2021-09-06_19h18.06.056,rantool2,2021.1.4,Win32,164.2036125,6135e006383e6ea6c3d06a28,61364d3f8e827b4666cb25f9,,,,,,,,
j,3.342,0,38,38,46,1,5ec62e3db9ee8900092eb997,RORRROO,RORRROR,22.00300695,21.24781509,series_0,5ec62e3db9ee8900092eb997,Mężczyzna,19,2021-09-06_19h18.06.056,rantool2,2021.1.4,Win32,164.2036125,6135e006383e6ea6c3d06a28,61364d3f8e827b4666cb25f9,,,,,,,,
f,0.0908,0,39,39,35,1,5ec62e3db9ee8900092eb997,ROOORRO,ROOORRR,21.76276513,22.16977179,series_1,5ec62e3db9ee8900092eb997,Mężczyzna,19,2021-09-06_19h18.06.056,rantool2,2021.1.4,Win32,164.2036125,6135e006383e6ea6c3d06a28,61364d3f8e827b4666cb25f9,,,,,,,,
j,1.3258,0,40,40,15,1,5ec62e3db9ee8900092eb997,OORRRRO,OORRRRR,22.10108823,21.74922619,series_0,5ec62e3db9ee8900092eb997,Mężczyzna,19,2021-09-06_19h18.06.056,rantool2,2021.1.4,Win32,164.2036125,6135e006383e6ea6c3d06a28,61364d3f8e827b4666cb25f9,,,,,,,,
f,1.8864,0,41,41,24,1,5ec62e3db9ee8900092eb997,ORROOOO,ORROOOR,21.12383932,22.07102821,series_1,5ec62e3db9ee8900092eb997,Mężczyzna,19,2021-09-06_19h18.06.056,rantool2,2021.1.4,Win32,164.2036125,6135e006383e6ea6c3d06a28,61364d3f8e827b4666cb25f9,,,,,,,,
j,2.6425,0,42,42,22,1,5ec62e3db9ee8900092eb997,ORORROO,ORORROR,22.02732763,21.57657071,series_0,5ec62e3db9ee8900092eb997,Mężczyzna,19,2021-09-06_19h18.06.056,rantool2,2021.1.4,Win32,164.2036125,6135e006383e6ea6c3d06a28,61364d3f8e827b4666cb25f9,,,,,,,,
j,1.9409,0,43,43,37,1,5ec62e3db9ee8900092eb997,ROORORO,ROORORR,20.42602454,21.57657071,series_1,5ec62e3db9ee8900092eb997,Mężczyzna,19,2021-09-06_19h18.06.056,rantool2,2021.1.4,Win32,164.2036125,6135e006383e6ea6c3d06a28,61364d3f8e827b4666cb25f9,,,,,,,,
f,3.1327,0,44,44,14,1,5ec62e3db9ee8900092eb997,OORRROO,OORRROR,22.24142883,22.16977179,series_0,5ec62e3db9ee8900092eb997,Mężczyzna,19,2021-09-06_19h18.06.056,rantool2,2021.1.4,Win32,164.2036125,6135e006383e6ea6c3d06a28,61364d3f8e827b4666cb25f9,,,,,,,,
f,2.5516,0,45,45,7,1,5ec62e3db9ee8900092eb997,OOORRRO,OOORRRR,21.6194508,21.899017,series_1,5ec62e3db9ee8900092eb997,Mężczyzna,19,2021-09-06_19h18.06.056,rantool2,2021.1.4,Win32,164.2036125,6135e006383e6ea6c3d06a28,61364d3f8e827b4666cb25f9,,,,,,,,
j,2.2563,0,46,46,3,1,5ec62e3db9ee8900092eb997,OOOORRO,OOOORRR,20.90986523,21.74922619,series_1,5ec62e3db9ee8900092eb997,Mężczyzna,19,2021-09-06_19h18.06.056,rantool2,2021.1.4,Win32,164.2036125,6135e006383e6ea6c3d06a28,61364d3f8e827b4666cb25f9,,,,,,,,
j,3.1094,0,47,47,62,1,5ec62e3db9ee8900092eb997,RRRRROO,RRRRROR,22.16413392,21.27974287,series_0,5ec62e3db9ee8900092eb997,Mężczyzna,19,2021-09-06_19h18.06.056,rantool2,2021.1.4,Win32,164.2036125,6135e006383e6ea6c3d06a28,61364d3f8e827b4666cb25f9,,,,,,,,
j,2.7275,0,48,48,1,1,5ec62e3db9ee8900092eb997,OOOOORO,OOOOORR,19.92253567,20.74050628,series_1,5ec62e3db9ee8900092eb997,Mężczyzna,19,2021-09-06_19h18.06.056,rantool2,2021.1.4,Win32,164.2036125,6135e006383e6ea6c3d06a28,61364d3f8e827b4666cb25f9,,,,,,,,
j,3.9675,0,49,49,57,1,5ec62e3db9ee8900092eb997,RRROORO,RRROORR,21.82425538,22.07102821,series_1,5ec62e3db9ee8900092eb997,Mężczyzna,19,2021-09-06_19h18.06.056,rantool2,2021.1.4,Win32,164.2036125,6135e006383e6ea6c3d06a28,61364d3f8e827b4666cb25f9,,,,,,,,
j,1.7977,0,50,50,4,1,5ec62e3db9ee8900092eb997,OOOROOO,OOOROOR,19.91402015,21.21223021,series_1,5ec62e3db9ee8900092eb997,Mężczyzna,19,2021-09-06_19h18.06.056,rantool2,2021.1.4,Win32,164.2036125,6135e006383e6ea6c3d06a28,61364d3f8e827b4666cb25f9,,,,,,,,
f,1.6993,0,51,51,39,1,5ec62e3db9ee8900092eb997,ROORRRO,ROORRRR,21.82425538,21.38562617,series_0,5ec62e3db9ee8900092eb997,Mężczyzna,19,2021-09-06_19h18.06.056,rantool2,2021.1.4,Win32,164.2036125,6135e006383e6ea6c3d06a28,61364d3f8e827b4666cb25f9,,,,,,,,
j,2.0222,0,52,52,55,1,5ec62e3db9ee8900092eb997,RRORRRO,RRORRRR,21.56657303,21.21223021,series_0,5ec62e3db9ee8900092eb997,Mężczyzna,19,2021-09-06_19h18.06.056,rantool2,2021.1.4,Win32,164.2036125,6135e006383e6ea6c3d06a28,61364d3f8e827b4666cb25f9,,,,,,,,
f,1.523,0,53,53,16,1,5ec62e3db9ee8900092eb997,OROOOOO,OROOOOR,20.43051175,21.17347734,series_1,5ec62e3db9ee8900092eb997,Mężczyzna,19,2021-09-06_19h18.06.056,rantool2,2021.1.4,Win32,164.2036125,6135e006383e6ea6c3d06a28,61364d3f8e827b4666cb25f9,,,,,,,,
j,1.8247,0,54,54,6,1,5ec62e3db9ee8900092eb997,OOORROO,OOORROR,21.12383932,21.38562617,series_1,5ec62e3db9ee8900092eb997,Mężczyzna,19,2021-09-06_19h18.06.056,rantool2,2021.1.4,Win32,164.2036125,6135e006383e6ea6c3d06a28,61364d3f8e827b4666cb25f9,,,,,,,,
f,2.1974,0,55,55,61,1,5ec62e3db9ee8900092eb997,RRRRORO,RRRRORR,21.81333602,21.17347734,series_0,5ec62e3db9ee8900092eb997,Mężczyzna,19,2021-09-06_19h18.06.056,rantool2,2021.1.4,Win32,164.2036125,6135e006383e6ea6c3d06a28,61364d3f8e827b4666cb25f9,,,,,,,,
f,1.9597,0,56,56,9,1,5ec62e3db9ee8900092eb997,OOROORO,OOROORR,21.07991943,22.2428857,series_1,5ec62e3db9ee8900092eb997,Mężczyzna,19,2021-09-06_19h18.06.056,rantool2,2021.1.4,Win32,164.2036125,6135e006383e6ea6c3d06a28,61364d3f8e827b4666cb25f9,,,,,,,,
j,3.5517,0,57,57,49,1,5ec62e3db9ee8900092eb997,RROOORO,RROOORR,21.76276513,22.53364006,series_1,5ec62e3db9ee8900092eb997,Mężczyzna,19,2021-09-06_19h18.06.056,rantool2,2021.1.4,Win32,164.2036125,6135e006383e6ea6c3d06a28,61364d3f8e827b4666cb25f9,,,,,,,,
f,1.8278,0,58,58,59,1,5ec62e3db9ee8900092eb997,RRRORRO,RRRORRR,21.56657303,20.89823192,series_0,5ec62e3db9ee8900092eb997,Mężczyzna,19,2021-09-06_19h18.06.056,rantool2,2021.1.4,Win32,164.2036125,6135e006383e6ea6c3d06a28,61364d3f8e827b4666cb25f9,,,,,,,,
f,2.8209,0,59,59,44,1,5ec62e3db9ee8900092eb997,RORROOO,RORROOR,21.66733484,22.02566557,series_1,5ec62e3db9ee8900092eb997,Mężczyzna,19,2021-09-06_19h18.06.056,rantool2,2021.1.4,Win32,164.2036125,6135e006383e6ea6c3d06a28,61364d3f8e827b4666cb25f9,,,,,,,,
j,2.3234,0,60,60,29,1,5ec62e3db9ee8900092eb997,ORRRORO,ORRRORR,22.00300695,22.12173012,series_1,5ec62e3db9ee8900092eb997,Mężczyzna,19,2021-09-06_19h18.06.056,rantool2,2021.1.4,Win32,164.2036125,6135e006383e6ea6c3d06a28,61364d3f8e827b4666cb25f9,,,,,,,,
j,2.7697,0,61,61,33,1,5ec62e3db9ee8900092eb997,ROOOORO,ROOOORR,20.83779602,22.03072203,series_1,5ec62e3db9ee8900092eb997,Mężczyzna,19,2021-09-06_19h18.06.056,rantool2,2021.1.4,Win32,164.2036125,6135e006383e6ea6c3d06a28,61364d3f8e827b4666cb25f9,,,,,,,,
f,2.1031,0,62,62,60,1,5ec62e3db9ee8900092eb997,RRRROOO,RRRROOR,22.10108823,22.15934078,series_1,5ec62e3db9ee8900092eb997,Mężczyzna,19,2021-09-06_19h18.06.056,rantool2,2021.1.4,Win32,164.2036125,6135e006383e6ea6c3d06a28,61364d3f8e827b4666cb25f9,,,,,,,,
j,2.9155,0,63,63,10,1,5ec62e3db9ee8900092eb997,OOROROO,OOROROR,21.31236711,21.07490964,series_0,5ec62e3db9ee8900092eb997,Mężczyzna,19,2021-09-06_19h18.06.056,rantool2,2021.1.4,Win32,164.2036125,6135e006383e6ea6c3d06a28,61364d3f8e827b4666cb25f9,,,,,,,,
,,,,,,,5ec62e3db9ee8900092eb997,,,,,,5ec62e3db9ee8900092eb997,Mężczyzna,19,2021-09-06_19h18.06.056,rantool2,2021.1.4,Win32,164.2036125,6135e006383e6ea6c3d06a28,61364d3f8e827b4666cb25f9,"[""comma""]",0,[1.3728000000714928],0,0,0,0,1
,,,,,,,5ec62e3db9ee8900092eb997,,,,,,5ec62e3db9ee8900092eb997,Mężczyzna,19,2021-09-06_19h18.06.056,rantool2,2021.1.4,Win32,164.2036125,6135e006383e6ea6c3d06a28,61364d3f8e827b4666cb25f9,"[""period""]",0,[0.9847999999523154],1,0,1,0,1
,,,,,,,5ec62e3db9ee8900092eb997,,,,,,5ec62e3db9ee8900092eb997,Mężczyzna,19,2021-09-06_19h18.06.056,rantool2,2021.1.4,Win32,164.2036125,6135e006383e6ea6c3d06a28,61364d3f8e827b4666cb25f9,"[""comma""]",0,[0.842700000047671],2,0,2,0,1
,,,,,,,5ec62e3db9ee8900092eb997,,,,,,5ec62e3db9ee8900092eb997,Mężczyzna,19,2021-09-06_19h18.06.056,rantool2,2021.1.4,Win32,164.2036125,6135e006383e6ea6c3d06a28,61364d3f8e827b4666cb25f9,"[""comma""]",0,[0.4185000000000514],3,0,3,0,1
,,,,,,,5ec62e3db9ee8900092eb997,,,,,,5ec62e3db9ee8900092eb997,Mężczyzna,19,2021-09-06_19h18.06.056,rantool2,2021.1.4,Win32,164.2036125,6135e006383e6ea6c3d06a28,61364d3f8e827b4666cb25f9,"[""period""]",0,[0.29779999995230355],4,0,4,0,1
,,,,,,,5ec62e3db9ee8900092eb997,,,,,,5ec62e3db9ee8900092eb997,Mężczyzna,19,2021-09-06_19h18.06.056,rantool2,2021.1.4,Win32,164.2036125,6135e006383e6ea6c3d06a28,61364d3f8e827b4666cb25f9,"[""comma""]",0,[0.5032000000476842],5,0,5,0,1
,,,,,,,5ec62e3db9ee8900092eb997,,,,,,5ec62e3db9ee8900092eb997,Mężczyzna,19,2021-09-06_19h18.06.056,rantool2,2021.1.4,Win32,164.2036125,6135e006383e6ea6c3d06a28,61364d3f8e827b4666cb25f9,"[""comma""]",0,[0.32410000002380457],6,0,6,0,1
,,,,,,,5ec62e3db9ee8900092eb997,,,,,,5ec62e3db9ee8900092eb997,Mężczyzna,19,2021-09-06_19h18.06.056,rantool2,2021.1.4,Win32,164.2036125,6135e006383e6ea6c3d06a28,61364d3f8e827b4666cb25f9,"[""period""]",0,[0.7102000000476778],7,0,7,0,1
,,,,,,,5ec62e3db9ee8900092eb997,,,,,,5ec62e3db9ee8900092eb997,Mężczyzna,19,2021-09-06_19h18.06.056,rantool2,2021.1.4,Win32,164.2036125,6135e006383e6ea6c3d06a28,61364d3f8e827b4666cb25f9,"[""period""]",0,[0.722100000023886],8,0,8,0,1
,,,,,,,5ec62e3db9ee8900092eb997,,,,,,5ec62e3db9ee8900092eb997,Mężczyzna,19,2021-09-06_19h18.06.056,rantool2,2021.1.4,Win32,164.2036125,6135e006383e6ea6c3d06a28,61364d3f8e827b4666cb25f9,"[""comma""]",0,[0.6791999999284712],9,0,9,0,1
,,,,,,,5ec62e3db9ee8900092eb997,,,,,,5ec62e3db9ee8900092eb997,Mężczyzna,19,2021-09-06_19h18.06.056,rantool2,2021.1.4,Win32,164.2036125,6135e006383e6ea6c3d06a28,61364d3f8e827b4666cb25f9,"[""period""]",0,[0.7031999999284722],10,0,10,0,1
,,,,,,,5ec62e3db9ee8900092eb997,,,,,,5ec62e3db9ee8900092eb997,Mężczyzna,19,2021-09-06_19h18.06.056,rantool2,2021.1.4,Win32,164.2036125,6135e006383e6ea6c3d06a28,61364d3f8e827b4666cb25f9,"[""comma""]",0,[0.9715000000000487],11,0,11,0,1
,,,,,,,5ec62e3db9ee8900092eb997,,,,,,5ec62e3db9ee8900092eb997,Mężczyzna,19,2021-09-06_19h18.06.056,rantool2,2021.1.4,Win32,164.2036125,6135e006383e6ea6c3d06a28,61364d3f8e827b4666cb25f9,"[""period""]",0,[0.46270000004767553],12,0,12,0,1
,,,,,,,5ec62e3db9ee8900092eb997,,,,,,5ec62e3db9ee8900092eb997,Mężczyzna,19,2021-09-06_19h18.06.056,rantool2,2021.1.4,Win32,164.2036125,6135e006383e6ea6c3d06a28,61364d3f8e827b4666cb25f9,"[""period""]",0,[0.2729999999999677],13,0,13,0,1
,,,,,,,5ec62e3db9ee8900092eb997,,,,,,5ec62e3db9ee8900092eb997,Mężczyzna,19,2021-09-06_19h18.06.056,rantool2,2021.1.4,Win32,164.2036125,6135e006383e6ea6c3d06a28,61364d3f8e827b4666cb25f9,"[""period""]",0,[0.8250999999046371],14,0,14,0,1
,,,,,,,5ec62e3db9ee8900092eb997,,,,,,5ec62e3db9ee8900092eb997,Mężczyzna,19,2021-09-06_19h18.06.056,rantool2,2021.1.4,Win32,164.2036125,6135e006383e6ea6c3d06a28,61364d3f8e827b4666cb25f9,"[""comma""]",0,[0.5607999999523372],15,0,15,0,1
,,,,,,,5ec62e3db9ee8900092eb997,,,,,,5ec62e3db9ee8900092eb997,Mężczyzna,19,2021-09-06_19h18.06.056,rantool2,2021.1.4,Win32,164.2036125,6135e006383e6ea6c3d06a28,61364d3f8e827b4666cb25f9,"[""comma""]",0,[0.6303999999761345],16,0,16,0,1
,,,,,,,5ec62e3db9ee8900092eb997,,,,,,5ec62e3db9ee8900092eb997,Mężczyzna,19,2021-09-06_19h18.06.056,rantool2,2021.1.4,Win32,164.2036125,6135e006383e6ea6c3d06a28,61364d3f8e827b4666cb25f9,"[""comma""]",0,[0.5250000000000341],17,0,17,0,1
,,,,,,,5ec62e3db9ee8900092eb997,,,,,,5ec62e3db9ee8900092eb997,Mężczyzna,19,2021-09-06_19h18.06.056,rantool2,2021.1.4,Win32,164.2036125,6135e006383e6ea6c3d06a28,61364d3f8e827b4666cb25f9,"[""comma""]",0,[0.5411999999284376],18,0,18,0,1
,,,,,,,5ec62e3db9ee8900092eb997,,,,,,5ec62e3db9ee8900092eb997,Mężczyzna,19,2021-09-06_19h18.06.056,rantool2,2021.1.4,Win32,164.2036125,6135e006383e6ea6c3d06a28,61364d3f8e827b4666cb25f9,"[""period""]",0,[0.641200000047661],19,0,19,0,1
,,,,,,,5ec62e3db9ee8900092eb997,,,,,,5ec62e3db9ee8900092eb997,Mężczyzna,19,2021-09-06_19h18.06.056,rantool2,2021.1.4,Win32,164.2036125,6135e006383e6ea6c3d06a28,61364d3f8e827b4666cb25f9,"[""comma""]",0,[0.8252000000476301],20,0,20,0,1
,,,,,,,5ec62e3db9ee8900092eb997,,,,,,5ec62e3db9ee8900092eb997,Mężczyzna,19,2021-09-06_19h18.06.056,rantool2,2021.1.4,Win32,164.2036125,6135e006383e6ea6c3d06a28,61364d3f8e827b4666cb25f9,"[""period""]",0,[0.7136000000238596],21,0,21,0,1
,,,,,,,5ec62e3db9ee8900092eb997,,,,,,5ec62e3db9ee8900092eb997,Mężczyzna,19,2021-09-06_19h18.06.056,rantool2,2021.1.4,Win32,164.2036125,6135e006383e6ea6c3d06a28,61364d3f8e827b4666cb25f9,"[""comma""]",0,[0.6163999999761813],22,0,22,0,1
,,,,,,,5ec62e3db9ee8900092eb997,,,,,,5ec62e3db9ee8900092eb997,Mężczyzna,19,2021-09-06_19h18.06.056,rantool2,2021.1.4,Win32,164.2036125,6135e006383e6ea6c3d06a28,61364d3f8e827b4666cb25f9,"[""period""]",0,[0.6791000000238796],23,0,23,0,1
,,,,,,,5ec62e3db9ee8900092eb997,,,,,,5ec62e3db9ee8900092eb997,Mężczyzna,19,2021-09-06_19h18.06.056,rantool2,2021.1.4,Win32,164.2036125,6135e006383e6ea6c3d06a28,61364d3f8e827b4666cb25f9,"[""comma""]",0,[0.7516000000238705],24,0,24,0,1
,,,,,,,5ec62e3db9ee8900092eb997,,,,,,5ec62e3db9ee8900092eb997,Mężczyzna,19,2021-09-06_19h18.06.056,rantool2,2021.1.4,Win32,164.2036125,6135e006383e6ea6c3d06a28,61364d3f8e827b4666cb25f9,"[""period""]",0,[0.37610000002388233],25,0,25,0,1
,,,,,,,5ec62e3db9ee8900092eb997,,,,,,5ec62e3db9ee8900092eb997,Mężczyzna,19,2021-09-06_19h18.06.056,rantool2,2021.1.4,Win32,164.2036125,6135e006383e6ea6c3d06a28,61364d3f8e827b4666cb25f9,"[""period""]",0,[0.38670000004771055],26,0,26,0,1
,,,,,,,5ec62e3db9ee8900092eb997,,,,,,5ec62e3db9ee8900092eb997,Mężczyzna,19,2021-09-06_19h18.06.056,rantool2,2021.1.4,Win32,164.2036125,6135e006383e6ea6c3d06a28,61364d3f8e827b4666cb25f9,"[""period""]",0,[0.5889999999999986],27,0,27,0,1
,,,,,,,5ec62e3db9ee8900092eb997,,,,,,5ec62e3db9ee8900092eb997,Mężczyzna,19,2021-09-06_19h18.06.056,rantool2,2021.1.4,Win32,164.2036125,6135e006383e6ea6c3d06a28,61364d3f8e827b4666cb25f9,"[""comma""]",0,[0.5358999999761522],28,0,28,0,1
,,,,,,,5ec62e3db9ee8900092eb997,,,,,,5ec62e3db9ee8900092eb997,Mężczyzna,19,2021-09-06_19h18.06.056,rantool2,2021.1.4,Win32,164.2036125,6135e006383e6ea6c3d06a28,61364d3f8e827b4666cb25f9,"[""comma""]",0,[0.21839999997615678],29,0,29,0,1
,,,,,,,5ec62e3db9ee8900092eb997,,,,,,5ec62e3db9ee8900092eb997,Mężczyzna,19,2021-09-06_19h18.06.056,rantool2,2021.1.4,Win32,164.2036125,6135e006383e6ea6c3d06a28,61364d3f8e827b4666cb25f9,"[""period""]",0,[0.18530000007154968],30,0,30,0,1
,,,,,,,5ec62e3db9ee8900092eb997,,,,,,5ec62e3db9ee8900092eb997,Mężczyzna,19,2021-09-06_19h18.06.056,rantool2,2021.1.4,Win32,164.2036125,6135e006383e6ea6c3d06a28,61364d3f8e827b4666cb25f9,"[""period""]",0,[0.7971999999285231],31,0,31,0,1
,,,,,,,5ec62e3db9ee8900092eb997,,,,,,5ec62e3db9ee8900092eb997,Mężczyzna,19,2021-09-06_19h18.06.056,rantool2,2021.1.4,Win32,164.2036125,6135e006383e6ea6c3d06a28,61364d3f8e827b4666cb25f9,"[""comma""]",0,[0.3398000000715342],32,0,32,0,1
,,,,,,,5ec62e3db9ee8900092eb997,,,,,,5ec62e3db9ee8900092eb997,Mężczyzna,19,2021-09-06_19h18.06.056,rantool2,2021.1.4,Win32,164.2036125,6135e006383e6ea6c3d06a28,61364d3f8e827b4666cb25f9,"[""period""]",0,[0.23099999999999454],33,0,33,0,1
,,,,,,,5ec62e3db9ee8900092eb997,,,,,,5ec62e3db9ee8900092eb997,Mężczyzna,19,2021-09-06_19h18.06.056,rantool2,2021.1.4,Win32,164.2036125,6135e006383e6ea6c3d06a28,61364d3f8e827b4666cb25f9,"[""comma""]",0,[0.5563999999761791],34,0,34,0,1
,,,,,,,5ec62e3db9ee8900092eb997,,,,,,5ec62e3db9ee8900092eb997,Mężczyzna,19,2021-09-06_19h18.06.056,rantool2,2021.1.4,Win32,164.2036125,6135e006383e6ea6c3d06a28,61364d3f8e827b4666cb25f9,"[""comma""]",0,[0.21439999997619452],35,0,35,0,1
,,,,,,,5ec62e3db9ee8900092eb997,,,,,,5ec62e3db9ee8900092eb997,Mężczyzna,19,2021-09-06_19h18.06.056,rantool2,2021.1.4,Win32,164.2036125,6135e006383e6ea6c3d06a28,61364d3f8e827b4666cb25f9,"[""comma""]",0,[0.8852999999523377],36,0,36,0,1
,,,,,,,5ec62e3db9ee8900092eb997,,,,,,5ec62e3db9ee8900092eb997,Mężczyzna,19,2021-09-06_19h18.06.056,rantool2,2021.1.4,Win32,164.2036125,6135e006383e6ea6c3d06a28,61364d3f8e827b4666cb25f9,"[""period""]",0,[0.6656000000238009],37,0,37,0,1
,,,,,,,5ec62e3db9ee8900092eb997,,,,,,5ec62e3db9ee8900092eb997,Mężczyzna,19,2021-09-06_19h18.06.056,rantool2,2021.1.4,Win32,164.2036125,6135e006383e6ea6c3d06a28,61364d3f8e827b4666cb25f9,"[""comma""]",0,[0.65300000000002],38,0,38,0,1
,,,,,,,5ec62e3db9ee8900092eb997,,,,,,5ec62e3db9ee8900092eb997,Mężczyzna,19,2021-09-06_19h18.06.056,rantool2,2021.1.4,Win32,164.2036125,6135e006383e6ea6c3d06a28,61364d3f8e827b4666cb25f9,"[""period""]",0,[0.5896999999284844],39,0,39,0,1
,,,,,,,5ec62e3db9ee8900092eb997,,,,,,5ec62e3db9ee8900092eb997,Mężczyzna,19,2021-09-06_19h18.06.056,rantool2,2021.1.4,Win32,164.2036125,6135e006383e6ea6c3d06a28,61364d3f8e827b4666cb25f9,"[""period""]",0,[0.5130000000000337],40,0,40,0,1
,,,,,,,5ec62e3db9ee8900092eb997,,,,,,5ec62e3db9ee8900092eb997,Mężczyzna,19,2021-09-06_19h18.06.056,rantool2,2021.1.4,Win32,164.2036125,6135e006383e6ea6c3d06a28,61364d3f8e827b4666cb25f9,"[""period""]",0,[0.65689999997619],41,0,41,0,1
,,,,,,,5ec62e3db9ee8900092eb997,,,,,,5ec62e3db9ee8900092eb997,Mężczyzna,19,2021-09-06_19h18.06.056,rantool2,2021.1.4,Win32,164.2036125,6135e006383e6ea6c3d06a28,61364d3f8e827b4666cb25f9,"[""comma""]",0,[0.8357999999523145],42,0,42,0,1
,,,,,,,5ec62e3db9ee8900092eb997,,,,,,5ec62e3db9ee8900092eb997,Mężczyzna,19,2021-09-06_19h18.06.056,rantool2,2021.1.4,Win32,164.2036125,6135e006383e6ea6c3d06a28,61364d3f8e827b4666cb25f9,"[""comma""]",0,[0.6553000000715201],43,0,43,0,1
,,,,,,,5ec62e3db9ee8900092eb997,,,,,,5ec62e3db9ee8900092eb997,Mężczyzna,19,2021-09-06_19h18.06.056,rantool2,2021.1.4,Win32,164.2036125,6135e006383e6ea6c3d06a28,61364d3f8e827b4666cb25f9,"[""period""]",0,[0.21929999995234084],44,0,44,0,1
,,,,,,,5ec62e3db9ee8900092eb997,,,,,,5ec62e3db9ee8900092eb997,Mężczyzna,19,2021-09-06_19h18.06.056,rantool2,2021.1.4,Win32,164.2036125,6135e006383e6ea6c3d06a28,61364d3f8e827b4666cb25f9,"[""comma""]",0,[0.26089999997617497],45,0,45,0,1
,,,,,,,5ec62e3db9ee8900092eb997,,,,,,5ec62e3db9ee8900092eb997,Mężczyzna,19,2021-09-06_19h18.06.056,rantool2,2021.1.4,Win32,164.2036125,6135e006383e6ea6c3d06a28,61364d3f8e827b4666cb25f9,"[""period""]",0,[0.40020000004767553],46,0,46,0,1
,,,,,,,5ec62e3db9ee8900092eb997,,,,,,5ec62e3db9ee8900092eb997,Mężczyzna,19,2021-09-06_19h18.06.056,rantool2,2021.1.4,Win32,164.2036125,6135e006383e6ea6c3d06a28,61364d3f8e827b4666cb25f9,"[""period""]",0,[0.5440000000000396],47,0,47,0,1
,,,,,,,5ec62e3db9ee8900092eb997,,,,,,5ec62e3db9ee8900092eb997,Mężczyzna,19,2021-09-06_19h18.06.056,rantool2,2021.1.4,Win32,164.2036125,6135e006383e6ea6c3d06a28,61364d3f8e827b4666cb25f9,"[""comma""]",0,[0.9155000000000086],48,0,48,0,1
,,,,,,,5ec62e3db9ee8900092eb997,,,,,,5ec62e3db9ee8900092eb997,Mężczyzna,19,2021-09-06_19h18.06.056,rantool2,2021.1.4,Win32,164.2036125,6135e006383e6ea6c3d06a28,61364d3f8e827b4666cb25f9,"[""comma""]",0,[1.131700000047715],49,0,49,0,1
,,,,,,,5ec62e3db9ee8900092eb997,,,,,,5ec62e3db9ee8900092eb997,Mężczyzna,19,2021-09-06_19h18.06.056,rantool2,2021.1.4,Win32,164.2036125,6135e006383e6ea6c3d06a28,61364d3f8e827b4666cb25f9,"[""period""]",0,[0.6416999999284485],50,0,50,0,1
,,,,,,,5ec62e3db9ee8900092eb997,,,,,,5ec62e3db9ee8900092eb997,Mężczyzna,19,2021-09-06_19h18.06.056,rantool2,2021.1.4,Win32,164.2036125,6135e006383e6ea6c3d06a28,61364d3f8e827b4666cb25f9,"[""period""]",0,[0.819899999976144],51,0,51,0,1
,,,,,,,5ec62e3db9ee8900092eb997,,,,,,5ec62e3db9ee8900092eb997,Mężczyzna,19,2021-09-06_19h18.06.056,rantool2,2021.1.4,Win32,164.2036125,6135e006383e6ea6c3d06a28,61364d3f8e827b4666cb25f9,"[""period""]",0,[0.954899999976135],52,0,52,0,1
,,,,,,,5ec62e3db9ee8900092eb997,,,,,,5ec62e3db9ee8900092eb997,Mężczyzna,19,2021-09-06_19h18.06.056,rantool2,2021.1.4,Win32,164.2036125,6135e006383e6ea6c3d06a28,61364d3f8e827b4666cb25f9,"[""comma""]",0,[0.7491000000238159],53,0,53,0,1
,,,,,,,5ec62e3db9ee8900092eb997,,,,,,5ec62e3db9ee8900092eb997,Mężczyzna,19,2021-09-06_19h18.06.056,rantool2,2021.1.4,Win32,164.2036125,6135e006383e6ea6c3d06a28,61364d3f8e827b4666cb25f9,"[""comma""]",0,[1.0951000000238196],54,0,54,0,1
,,,,,,,5ec62e3db9ee8900092eb997,,,,,,5ec62e3db9ee8900092eb997,Mężczyzna,19,2021-09-06_19h18.06.056,rantool2,2021.1.4,Win32,164.2036125,6135e006383e6ea6c3d06a28,61364d3f8e827b4666cb25f9,"[""period""]",0,[0.624600000023861],55,0,55,0,1
,,,,,,,5ec62e3db9ee8900092eb997,,,,,,5ec62e3db9ee8900092eb997,Mężczyzna,19,2021-09-06_19h18.06.056,rantool2,2021.1.4,Win32,164.2036125,6135e006383e6ea6c3d06a28,61364d3f8e827b4666cb25f9,"[""comma""]",0,[0.5861000000238619],56,0,56,0,1
,,,,,,,5ec62e3db9ee8900092eb997,,,,,,5ec62e3db9ee8900092eb997,Mężczyzna,19,2021-09-06_19h18.06.056,rantool2,2021.1.4,Win32,164.2036125,6135e006383e6ea6c3d06a28,61364d3f8e827b4666cb25f9,"[""comma""]",0,[0.6020000000000323],57,0,57,0,1
,,,,,,,5ec62e3db9ee8900092eb997,,,,,,5ec62e3db9ee8900092eb997,Mężczyzna,19,2021-09-06_19h18.06.056,rantool2,2021.1.4,Win32,164.2036125,6135e006383e6ea6c3d06a28,61364d3f8e827b4666cb25f9,"[""period""]",0,[0.4913999999761245],58,0,58,0,1
,,,,,,,5ec62e3db9ee8900092eb997,,,,,,5ec62e3db9ee8900092eb997,Mężczyzna,19,2021-09-06_19h18.06.056,rantool2,2021.1.4,Win32,164.2036125,6135e006383e6ea6c3d06a28,61364d3f8e827b4666cb25f9,"[""period""]",0,[0.42339999997614086],59,0,59,0,1
,,,,,,,5ec62e3db9ee8900092eb997,,,,,,5ec62e3db9ee8900092eb997,Mężczyzna,19,2021-09-06_19h18.06.056,rantool2,2021.1.4,Win32,164.2036125,6135e006383e6ea6c3d06a28,61364d3f8e827b4666cb25f9,"[""comma""]",0,[1.0849999999999795],60,0,60,0,1
,,,,,,,5ec62e3db9ee8900092eb997,,,,,,5ec62e3db9ee8900092eb997,Mężczyzna,19,2021-09-06_19h18.06.056,rantool2,2021.1.4,Win32,164.2036125,6135e006383e6ea6c3d06a28,61364d3f8e827b4666cb25f9,"[""period""]",0,[0.4166000000238341],61,0,61,0,1
,,,,,,,5ec62e3db9ee8900092eb997,,,,,,5ec62e3db9ee8900092eb997,Mężczyzna,19,2021-09-06_19h18.06.056,rantool2,2021.1.4,Win32,164.2036125,6135e006383e6ea6c3d06a28,61364d3f8e827b4666cb25f9,"[""comma""]",0,[0.2706000000238191],62,0,62,0,1
,,,,,,,5ec62e3db9ee8900092eb997,,,,,,5ec62e3db9ee8900092eb997,Mężczyzna,19,2021-09-06_19h18.06.056,rantool2,2021.1.4,Win32,164.2036125,6135e006383e6ea6c3d06a28,61364d3f8e827b4666cb25f9,"[""period""]",0,[0.478999999999985],63,0,63,0,1
,,,,,,,5ec62e3db9ee8900092eb997,,,,,,5ec62e3db9ee8900092eb997,Mężczyzna,19,2021-09-06_19h18.06.056,rantool2,2021.1.4,Win32,164.2036125,6135e006383e6ea6c3d06a28,61364d3f8e827b4666cb25f9,"[""comma""]",0,[0.5091000000238068],64,0,64,0,1
,,,,,,,5ec62e3db9ee8900092eb997,,,,,,5ec62e3db9ee8900092eb997,Mężczyzna,19,2021-09-06_19h18.06.056,rantool2,2021.1.4,Win32,164.2036125,6135e006383e6ea6c3d06a28,61364d3f8e827b4666cb25f9,"[""period""]",0,[1.0219999999999914],65,0,65,0,1
,,,,,,,5ec62e3db9ee8900092eb997,,,,,,5ec62e3db9ee8900092eb997,Mężczyzna,19,2021-09-06_19h18.06.056,rantool2,2021.1.4,Win32,164.2036125,6135e006383e6ea6c3d06a28,61364d3f8e827b4666cb25f9,"[""comma""]",0,[1.3031000000238464],66,0,66,0,1
,,,,,,,5ec62e3db9ee8900092eb997,,,,,,5ec62e3db9ee8900092eb997,Mężczyzna,19,2021-09-06_19h18.06.056,rantool2,2021.1.4,Win32,164.2036125,6135e006383e6ea6c3d06a28,61364d3f8e827b4666cb25f9,0,0,,67,0,67,0,1
,,,,,,,5ec62e3db9ee8900092eb997,,,,,,5ec62e3db9ee8900092eb997,Mężczyzna,19,2021-09-06_19h18.06.056,rantool2,2021.1.4,Win32,164.2036125,6135e006383e6ea6c3d06a28,61364d3f8e827b4666cb25f9,"[""comma""]",0,[0.18010000002385596],68,0,68,0,1
,,,,,,,5ec62e3db9ee8900092eb997,,,,,,5ec62e3db9ee8900092eb997,Mężczyzna,19,2021-09-06_19h18.06.056,rantool2,2021.1.4,Win32,164.2036125,6135e006383e6ea6c3d06a28,61364d3f8e827b4666cb25f9,"[""comma""]",0,[0.8730999999046389],69,0,69,0,1
,,,,,,,5ec62e3db9ee8900092eb997,,,,,,5ec62e3db9ee8900092eb997,Mężczyzna,19,2021-09-06_19h18.06.056,rantool2,2021.1.4,Win32,164.2036125,6135e006383e6ea6c3d06a28,61364d3f8e827b4666cb25f9,"[""comma""]",0,[0.7406000000238464],70,0,70,0,1
,,,,,,,5ec62e3db9ee8900092eb997,,,,,,5ec62e3db9ee8900092eb997,Mężczyzna,19,2021-09-06_19h18.06.056,rantool2,2021.1.4,Win32,164.2036125,6135e006383e6ea6c3d06a28,61364d3f8e827b4666cb25f9,"[""comma""]",0,[0.8192999999523636],71,0,71,0,1
,,,,,,,5ec62e3db9ee8900092eb997,,,,,,5ec62e3db9ee8900092eb997,Mężczyzna,19,2021-09-06_19h18.06.056,rantool2,2021.1.4,Win32,164.2036125,6135e006383e6ea6c3d06a28,61364d3f8e827b4666cb25f9,"[""period""]",0,[0.2558000000714742],72,0,72,0,1
,,,,,,,5ec62e3db9ee8900092eb997,,,,,,5ec62e3db9ee8900092eb997,Mężczyzna,19,2021-09-06_19h18.06.056,rantool2,2021.1.4,Win32,164.2036125,6135e006383e6ea6c3d06a28,61364d3f8e827b4666cb25f9,"[""period""]",0,[0.32049999999998136],73,0,73,0,1
,,,,,,,5ec62e3db9ee8900092eb997,,,,,,5ec62e3db9ee8900092eb997,Mężczyzna,19,2021-09-06_19h18.06.056,rantool2,2021.1.4,Win32,164.2036125,6135e006383e6ea6c3d06a28,61364d3f8e827b4666cb25f9,"[""comma""]",0,[0.1881000000238373],74,0,74,0,1
,,,,,,,5ec62e3db9ee8900092eb997,,,,,,5ec62e3db9ee8900092eb997,Mężczyzna,19,2021-09-06_19h18.06.056,rantool2,2021.1.4,Win32,164.2036125,6135e006383e6ea6c3d06a28,61364d3f8e827b4666cb25f9,"[""comma""]",0,[0.23110000002384368],75,0,75,0,1
,,,,,,,5ec62e3db9ee8900092eb997,,,,,,5ec62e3db9ee8900092eb997,Mężczyzna,19,2021-09-06_19h18.06.056,rantool2,2021.1.4,Win32,164.2036125,6135e006383e6ea6c3d06a28,61364d3f8e827b4666cb25f9,"[""period""]",0,[0.404199999928494],76,0,76,0,1
,,,,,,,5ec62e3db9ee8900092eb997,,,,,,5ec62e3db9ee8900092eb997,Mężczyzna,19,2021-09-06_19h18.06.056,rantool2,2021.1.4,Win32,164.2036125,6135e006383e6ea6c3d06a28,61364d3f8e827b4666cb25f9,"[""comma""]",0,[0.7276000000238696],77,0,77,0,1
,,,,,,,5ec62e3db9ee8900092eb997,,,,,,5ec62e3db9ee8900092eb997,Mężczyzna,19,2021-09-06_19h18.06.056,rantool2,2021.1.4,Win32,164.2036125,6135e006383e6ea6c3d06a28,61364d3f8e827b4666cb25f9,"[""period""]",0,[0.7761000000238596],78,0,78,0,1
,,,,,,,5ec62e3db9ee8900092eb997,,,,,,5ec62e3db9ee8900092eb997,Mężczyzna,19,2021-09-06_19h18.06.056,rantool2,2021.1.4,Win32,164.2036125,6135e006383e6ea6c3d06a28,61364d3f8e827b4666cb25f9,"[""comma""]",0,[0.45400000000000773],79,0,79,0,1
,,,,,,,5ec62e3db9ee8900092eb997,,,,,,5ec62e3db9ee8900092eb997,Mężczyzna,19,2021-09-06_19h18.06.056,rantool2,2021.1.4,Win32,164.2036125,6135e006383e6ea6c3d06a28,61364d3f8e827b4666cb25f9,"[""period""]",0,[0.45490000009539244],80,0,80,0,1
,,,,,,,5ec62e3db9ee8900092eb997,,,,,,5ec62e3db9ee8900092eb997,Mężczyzna,19,2021-09-06_19h18.06.056,rantool2,2021.1.4,Win32,164.2036125,6135e006383e6ea6c3d06a28,61364d3f8e827b4666cb25f9,"[""comma""]",0,[0.5013999999761722],81,0,81,0,1
,,,,,,,5ec62e3db9ee8900092eb997,,,,,,5ec62e3db9ee8900092eb997,Mężczyzna,19,2021-09-06_19h18.06.056,rantool2,2021.1.4,Win32,164.2036125,6135e006383e6ea6c3d06a28,61364d3f8e827b4666cb25f9,"[""period""]",0,[0.6501000000238832],82,0,82,0,1
,,,,,,,5ec62e3db9ee8900092eb997,,,,,,5ec62e3db9ee8900092eb997,Mężczyzna,19,2021-09-06_19h18.06.056,rantool2,2021.1.4,Win32,164.2036125,6135e006383e6ea6c3d06a28,61364d3f8e827b4666cb25f9,"[""comma""]",0,[0.5785000000000196],83,0,83,0,1
,,,,,,,5ec62e3db9ee8900092eb997,,,,,,5ec62e3db9ee8900092eb997,Mężczyzna,19,2021-09-06_19h18.06.056,rantool2,2021.1.4,Win32,164.2036125,6135e006383e6ea6c3d06a28,61364d3f8e827b4666cb25f9,"[""period""]",0,[0.5893999999761377],84,0,84,0,1
,,,,,,,5ec62e3db9ee8900092eb997,,,,,,5ec62e3db9ee8900092eb997,Mężczyzna,19,2021-09-06_19h18.06.056,rantool2,2021.1.4,Win32,164.2036125,6135e006383e6ea6c3d06a28,61364d3f8e827b4666cb25f9,"[""comma""]",0,[0.6933999999761795],85,0,85,0,1
,,,,,,,5ec62e3db9ee8900092eb997,,,,,,5ec62e3db9ee8900092eb997,Mężczyzna,19,2021-09-06_19h18.06.056,rantool2,2021.1.4,Win32,164.2036125,6135e006383e6ea6c3d06a28,61364d3f8e827b4666cb25f9,"[""comma""]",0,[0.2967000000476787],86,0,86,0,1
,,,,,,,5ec62e3db9ee8900092eb997,,,,,,5ec62e3db9ee8900092eb997,Mężczyzna,19,2021-09-06_19h18.06.056,rantool2,2021.1.4,Win32,164.2036125,6135e006383e6ea6c3d06a28,61364d3f8e827b4666cb25f9,"[""comma""]",0,[0.6526999999285295],87,0,87,0,1
,,,,,,,5ec62e3db9ee8900092eb997,,,,,,5ec62e3db9ee8900092eb997,Mężczyzna,19,2021-09-06_19h18.06.056,rantool2,2021.1.4,Win32,164.2036125,6135e006383e6ea6c3d06a28,61364d3f8e827b4666cb25f9,"[""period""]",0,[0.4916999999285281],88,0,88,0,1
,,,,,,,5ec62e3db9ee8900092eb997,,,,,,5ec62e3db9ee8900092eb997,Mężczyzna,19,2021-09-06_19h18.06.056,rantool2,2021.1.4,Win32,164.2036125,6135e006383e6ea6c3d06a28,61364d3f8e827b4666cb25f9,"[""period""]",0,[0.40669999992843486],89,0,89,0,1
,,,,,,,5ec62e3db9ee8900092eb997,,,,,,5ec62e3db9ee8900092eb997,Mężczyzna,19,2021-09-06_19h18.06.056,rantool2,2021.1.4,Win32,164.2036125,6135e006383e6ea6c3d06a28,61364d3f8e827b4666cb25f9,"[""period""]",0,[0.8887999999523117],90,0,90,0,1
,,,,,,,5ec62e3db9ee8900092eb997,,,,,,5ec62e3db9ee8900092eb997,Mężczyzna,19,2021-09-06_19h18.06.056,rantool2,2021.1.4,Win32,164.2036125,6135e006383e6ea6c3d06a28,61364d3f8e827b4666cb25f9,"[""comma""]",0,[0.4290999999046221],91,0,91,0,1
,,,,,,,5ec62e3db9ee8900092eb997,,,,,,5ec62e3db9ee8900092eb997,Mężczyzna,19,2021-09-06_19h18.06.056,rantool2,2021.1.4,Win32,164.2036125,6135e006383e6ea6c3d06a28,61364d3f8e827b4666cb25f9,"[""comma""]",0,[0.18170000004766962],92,0,92,0,1
,,,,,,,5ec62e3db9ee8900092eb997,,,,,,5ec62e3db9ee8900092eb997,Mężczyzna,19,2021-09-06_19h18.06.056,rantool2,2021.1.4,Win32,164.2036125,6135e006383e6ea6c3d06a28,61364d3f8e827b4666cb25f9,"[""period""]",0,[0.28899999999998727],93,0,93,0,1
,,,,,,,5ec62e3db9ee8900092eb997,,,,,,5ec62e3db9ee8900092eb997,Mężczyzna,19,2021-09-06_19h18.06.056,rantool2,2021.1.4,Win32,164.2036125,6135e006383e6ea6c3d06a28,61364d3f8e827b4666cb25f9,"[""period""]",0,[0.7531999999284835],94,0,94,0,1
,,,,,,,5ec62e3db9ee8900092eb997,,,,,,5ec62e3db9ee8900092eb997,Mężczyzna,19,2021-09-06_19h18.06.056,rantool2,2021.1.4,Win32,164.2036125,6135e006383e6ea6c3d06a28,61364d3f8e827b4666cb25f9,"[""comma""]",0,[0.9712999999523504],95,0,95,0,1
,,,,,,,5ec62e3db9ee8900092eb997,,,,,,5ec62e3db9ee8900092eb997,Mężczyzna,19,2021-09-06_19h18.06.056,rantool2,2021.1.4,Win32,164.2036125,6135e006383e6ea6c3d06a28,61364d3f8e827b4666cb25f9,"[""period""]",0,[0.7577999999522831],96,0,96,0,1
,,,,,,,5ec62e3db9ee8900092eb997,,,,,,5ec62e3db9ee8900092eb997,Mężczyzna,19,2021-09-06_19h18.06.056,rantool2,2021.1.4,Win32,164.2036125,6135e006383e6ea6c3d06a28,61364d3f8e827b4666cb25f9,"[""period""]",0,[0.3303999999761231],97,0,97,0,1
,,,,,,,5ec62e3db9ee8900092eb997,,,,,,5ec62e3db9ee8900092eb997,Mężczyzna,19,2021-09-06_19h18.06.056,rantool2,2021.1.4,Win32,164.2036125,6135e006383e6ea6c3d06a28,61364d3f8e827b4666cb25f9,"[""comma""]",0,[0.6216000000238182],98,0,98,0,1
,,,,,,,5ec62e3db9ee8900092eb997,,,,,,5ec62e3db9ee8900092eb997,Mężczyzna,19,2021-09-06_19h18.06.056,rantool2,2021.1.4,Win32,164.2036125,6135e006383e6ea6c3d06a28,61364d3f8e827b4666cb25f9,"[""comma""]",0,[0.5586999999284785],99,0,99,0,1
,,,,,,,5ec62e3db9ee8900092eb997,,,,,,5ec62e3db9ee8900092eb997,Mężczyzna,19,2021-09-06_19h18.06.056,rantool2,2021.1.4,Win32,164.2036125,6135e006383e6ea6c3d06a28,61364d3f8e827b4666cb25f9,"[""comma""]",0,[0.23600000000004684],100,0,100,0,1
,,,,,,,5ec62e3db9ee8900092eb997,,,,,,5ec62e3db9ee8900092eb997,Mężczyzna,19,2021-09-06_19h18.06.056,rantool2,2021.1.4,Win32,164.2036125,6135e006383e6ea6c3d06a28,61364d3f8e827b4666cb25f9,"[""comma""]",0,[0.2576999999284908],101,0,101,0,1
,,,,,,,5ec62e3db9ee8900092eb997,,,,,,5ec62e3db9ee8900092eb997,Mężczyzna,19,2021-09-06_19h18.06.056,rantool2,2021.1.4,Win32,164.2036125,6135e006383e6ea6c3d06a28,61364d3f8e827b4666cb25f9,"[""period"",""period""]",0,"[0.15120000004765188,1.8870000000000005]",102,0,102,0,1
,,,,,,,5ec62e3db9ee8900092eb997,,,,,,5ec62e3db9ee8900092eb997,Mężczyzna,19,2021-09-06_19h18.06.056,rantool2,2021.1.4,Win32,164.2036125,6135e006383e6ea6c3d06a28,61364d3f8e827b4666cb25f9,"[""comma""]",0,[1.4165000000000418],103,0,103,0,1
,,,,,,,5ec62e3db9ee8900092eb997,,,,,,5ec62e3db9ee8900092eb997,Mężczyzna,19,2021-09-06_19h18.06.056,rantool2,2021.1.4,Win32,164.2036125,6135e006383e6ea6c3d06a28,61364d3f8e827b4666cb25f9,"[""period""]",0,[0.8245999999046489],104,0,104,0,1
,,,,,,,5ec62e3db9ee8900092eb997,,,,,,5ec62e3db9ee8900092eb997,Mężczyzna,19,2021-09-06_19h18.06.056,rantool2,2021.1.4,Win32,164.2036125,6135e006383e6ea6c3d06a28,61364d3f8e827b4666cb25f9,"[""comma""]",0,[0.8546000000238223],105,0,105,0,1
,,,,,,,5ec62e3db9ee8900092eb997,,,,,,5ec62e3db9ee8900092eb997,Mężczyzna,19,2021-09-06_19h18.06.056,rantool2,2021.1.4,Win32,164.2036125,6135e006383e6ea6c3d06a28,61364d3f8e827b4666cb25f9,"[""period""]",0,[0.39309999990462074],106,0,106,0,1
,,,,,,,5ec62e3db9ee8900092eb997,,,,,,5ec62e3db9ee8900092eb997,Mężczyzna,19,2021-09-06_19h18.06.056,rantool2,2021.1.4,Win32,164.2036125,6135e006383e6ea6c3d06a28,61364d3f8e827b4666cb25f9,"[""period""]",0,[0.22709999990462393],107,0,107,0,1
,,,,,,,5ec62e3db9ee8900092eb997,,,,,,5ec62e3db9ee8900092eb997,Mężczyzna,19,2021-09-06_19h18.06.056,rantool2,2021.1.4,Win32,164.2036125,6135e006383e6ea6c3d06a28,61364d3f8e827b4666cb25f9,"[""period""]",0,[0.2195000000000391],108,0,108,0,1
,,,,,,,5ec62e3db9ee8900092eb997,,,,,,5ec62e3db9ee8900092eb997,Mężczyzna,19,2021-09-06_19h18.06.056,rantool2,2021.1.4,Win32,164.2036125,6135e006383e6ea6c3d06a28,61364d3f8e827b4666cb25f9,"[""comma""]",0,[0.35329999995229855],109,0,109,0,1
,,,,,,,5ec62e3db9ee8900092eb997,,,,,,5ec62e3db9ee8900092eb997,Mężczyzna,19,2021-09-06_19h18.06.056,rantool2,2021.1.4,Win32,164.2036125,6135e006383e6ea6c3d06a28,61364d3f8e827b4666cb25f9,"[""period""]",0,[0.9518000000715574],110,0,110,0,1
,,,,,,,5ec62e3db9ee8900092eb997,,,,,,5ec62e3db9ee8900092eb997,Mężczyzna,19,2021-09-06_19h18.06.056,rantool2,2021.1.4,Win32,164.2036125,6135e006383e6ea6c3d06a28,61364d3f8e827b4666cb25f9,"[""comma""]",0,[0.8247999999522904],111,0,111,0,1
,,,,,,,5ec62e3db9ee8900092eb997,,,,,,5ec62e3db9ee8900092eb997,Mężczyzna,19,2021-09-06_19h18.06.056,rantool2,2021.1.4,Win32,164.2036125,6135e006383e6ea6c3d06a28,61364d3f8e827b4666cb25f9,"[""period""]",0,[0.5845999999046398],112,0,112,0,1
,,,,,,,5ec62e3db9ee8900092eb997,,,,,,5ec62e3db9ee8900092eb997,Mężczyzna,19,2021-09-06_19h18.06.056,rantool2,2021.1.4,Win32,164.2036125,6135e006383e6ea6c3d06a28,61364d3f8e827b4666cb25f9,"[""period""]",0,[0.6011999999284399],113,0,113,0,1
,,,,,,,5ec62e3db9ee8900092eb997,,,,,,5ec62e3db9ee8900092eb997,Mężczyzna,19,2021-09-06_19h18.06.056,rantool2,2021.1.4,Win32,164.2036125,6135e006383e6ea6c3d06a28,61364d3f8e827b4666cb25f9,"[""period""]",0,[0.31179999995231356],114,0,114,0,1
,,,,,,,5ec62e3db9ee8900092eb997,,,,,,5ec62e3db9ee8900092eb997,Mężczyzna,19,2021-09-06_19h18.06.056,rantool2,2021.1.4,Win32,164.2036125,6135e006383e6ea6c3d06a28,61364d3f8e827b4666cb25f9,"[""comma""]",0,[0.4072000000477374],115,0,115,0,1
,,,,,,,5ec62e3db9ee8900092eb997,,,,,,5ec62e3db9ee8900092eb997,Mężczyzna,19,2021-09-06_19h18.06.056,rantool2,2021.1.4,Win32,164.2036125,6135e006383e6ea6c3d06a28,61364d3f8e827b4666cb25f9,"[""period""]",0,[0.8461000000238528],116,0,116,0,1
,,,,,,,5ec62e3db9ee8900092eb997,,,,,,5ec62e3db9ee8900092eb997,Mężczyzna,19,2021-09-06_19h18.06.056,rantool2,2021.1.4,Win32,164.2036125,6135e006383e6ea6c3d06a28,61364d3f8e827b4666cb25f9,"[""comma""]",0,[0.7590000000000146],117,0,117,0,1
,,,,,,,5ec62e3db9ee8900092eb997,,,,,,5ec62e3db9ee8900092eb997,Mężczyzna,19,2021-09-06_19h18.06.056,rantool2,2021.1.4,Win32,164.2036125,6135e006383e6ea6c3d06a28,61364d3f8e827b4666cb25f9,"[""comma""]",0,[1.382299999952238],118,0,118,0,1
,,,,,,,5ec62e3db9ee8900092eb997,,,,,,5ec62e3db9ee8900092eb997,Mężczyzna,19,2021-09-06_19h18.06.056,rantool2,2021.1.4,Win32,164.2036125,6135e006383e6ea6c3d06a28,61364d3f8e827b4666cb25f9,"[""comma""]",0,[1.3037999999522754],119,0,119,0,1
