key_resp_7.keys,trials_2.thisRepN,trials_2.thisTrialN,trials_2.thisN,trials_2.thisIndex,trials_2.ran,id,series_0,series_1,acss_0,acss_1,comparison,id*,Płeć*,Wiek*,date,expName,psychopyVersion,OS,frameRate,STUDY_ID,SESSION_ID,key_resp_7.rt,key_resp_5.keys,key_resp_5.corr,key_resp_5.rt,trials.thisRepN,trials.thisTrialN,trials.thisN,trials.thisIndex,trials.ran
,0,0,0,61,1,610838a0f1ffc75feae4bdc5,RRRRORO,RRRRORR,21.81333602,21.17347734,series_0,610838a0f1ffc75feae4bdc5,Kobieta,24,2021-09-06_19h00.09.083,rantool2,2021.1.4,Win32,59.80503558,6135e006383e6ea6c3d06a28,613648dbb5fcd7529008ebf8,,,,,,,,,
,0,1,1,49,1,610838a0f1ffc75feae4bdc5,RROOORO,RROOORR,21.76276513,22.53364006,series_1,610838a0f1ffc75feae4bdc5,Kobieta,24,2021-09-06_19h00.09.083,rantool2,2021.1.4,Win32,59.80503558,6135e006383e6ea6c3d06a28,613648dbb5fcd7529008ebf8,,,,,,,,,
,0,2,2,58,1,610838a0f1ffc75feae4bdc5,RRROROO,RRROROR,22.1285618,21.37121559,series_0,610838a0f1ffc75feae4bdc5,Kobieta,24,2021-09-06_19h00.09.083,rantool2,2021.1.4,Win32,59.80503558,6135e006383e6ea6c3d06a28,613648dbb5fcd7529008ebf8,,,,,,,,,
,0,3,3,36,1,610838a0f1ffc75feae4bdc5,ROOROOO,ROOROOR,21.07991943,20.9984461,series_0,610838a0f1ffc75feae4bdc5,Kobieta,24,2021-09-06_19h00.09.083,rantool2,2021.1.4,Win32,59.80503558,6135e006383e6ea6c3d06a28,613648dbb5fcd7529008ebf8,,,,,,,,,
,0,4,4,30,1,610838a0f1ffc75feae4bdc5,ORRRROO,ORRRROR,22.46748491,22.03072203,series_0,610838a0f1ffc75feae4bdc5,Kobieta,24,2021-09-06_19h00.09.083,rantool2,2021.1.4,Win32,59.80503558,6135e006383e6ea6c3d06a28,613648dbb5fcd7529008ebf8,,,,,,,,,
,0,5,5,3,1,610838a0f1ffc75feae4bdc5,OOOORRO,OOOORRR,20.90986523,21.74922619,series_1,610838a0f1ffc75feae4bdc5,Kobieta,24,2021-09-06_19h00.09.083,rantool2,2021.1.4,Win32,59.80503558,6135e006383e6ea6c3d06a28,613648dbb5fcd7529008ebf8,,,,,,,,,
,0,6,6,8,1,610838a0f1ffc75feae4bdc5,OOROOOO,OOROOOR,19.91402015,20.89823192,series_1,610838a0f1ffc75feae4bdc5,Kobieta,24,2021-09-06_19h00.09.083,rantool2,2021.1.4,Win32,59.80503558,6135e006383e6ea6c3d06a28,613648dbb5fcd7529008ebf8,,,,,,,,,
,0,7,7,37,1,610838a0f1ffc75feae4bdc5,ROORORO,ROORORR,20.42602454,21.57657071,series_1,610838a0f1ffc75feae4bdc5,Kobieta,24,2021-09-06_19h00.09.083,rantool2,2021.1.4,Win32,59.80503558,6135e006383e6ea6c3d06a28,613648dbb5fcd7529008ebf8,,,,,,,,,
,0,8,8,52,1,610838a0f1ffc75feae4bdc5,RROROOO,RROROOR,22.18365867,22.11097995,series_0,610838a0f1ffc75feae4bdc5,Kobieta,24,2021-09-06_19h00.09.083,rantool2,2021.1.4,Win32,59.80503558,6135e006383e6ea6c3d06a28,613648dbb5fcd7529008ebf8,,,,,,,,,
,0,9,9,53,1,610838a0f1ffc75feae4bdc5,RRORORO,RRORORR,20.71309134,21.90565814,series_1,610838a0f1ffc75feae4bdc5,Kobieta,24,2021-09-06_19h00.09.083,rantool2,2021.1.4,Win32,59.80503558,6135e006383e6ea6c3d06a28,613648dbb5fcd7529008ebf8,,,,,,,,,
,0,10,10,55,1,610838a0f1ffc75feae4bdc5,RRORRRO,RRORRRR,21.56657303,21.21223021,series_0,610838a0f1ffc75feae4bdc5,Kobieta,24,2021-09-06_19h00.09.083,rantool2,2021.1.4,Win32,59.80503558,6135e006383e6ea6c3d06a28,613648dbb5fcd7529008ebf8,,,,,,,,,
,0,11,11,16,1,610838a0f1ffc75feae4bdc5,OROOOOO,OROOOOR,20.43051175,21.17347734,series_1,610838a0f1ffc75feae4bdc5,Kobieta,24,2021-09-06_19h00.09.083,rantool2,2021.1.4,Win32,59.80503558,6135e006383e6ea6c3d06a28,613648dbb5fcd7529008ebf8,,,,,,,,,
f,0,12,12,34,1,610838a0f1ffc75feae4bdc5,ROOOROO,ROOOROR,21.03750787,21.24781509,series_1,610838a0f1ffc75feae4bdc5,Kobieta,24,2021-09-06_19h00.09.083,rantool2,2021.1.4,Win32,59.80503558,6135e006383e6ea6c3d06a28,613648dbb5fcd7529008ebf8,1.1294,,,,,,,,
j,0,13,13,45,1,610838a0f1ffc75feae4bdc5,RORRORO,RORRORR,20.78182524,21.22513037,series_1,610838a0f1ffc75feae4bdc5,Kobieta,24,2021-09-06_19h00.09.083,rantool2,2021.1.4,Win32,59.80503558,6135e006383e6ea6c3d06a28,613648dbb5fcd7529008ebf8,2.3215,,,,,,,,
j,0,14,14,35,1,610838a0f1ffc75feae4bdc5,ROOORRO,ROOORRR,21.76276513,22.16977179,series_1,610838a0f1ffc75feae4bdc5,Kobieta,24,2021-09-06_19h00.09.083,rantool2,2021.1.4,Win32,59.80503558,6135e006383e6ea6c3d06a28,613648dbb5fcd7529008ebf8,2.2598,,,,,,,,
j,0,15,15,42,1,610838a0f1ffc75feae4bdc5,ROROROO,ROROROR,20.39515459,19.8361834,series_0,610838a0f1ffc75feae4bdc5,Kobieta,24,2021-09-06_19h00.09.083,rantool2,2021.1.4,Win32,59.80503558,6135e006383e6ea6c3d06a28,613648dbb5fcd7529008ebf8,1.6008,,,,,,,,
f,0,16,16,22,1,610838a0f1ffc75feae4bdc5,ORORROO,ORORROR,22.02732763,21.57657071,series_0,610838a0f1ffc75feae4bdc5,Kobieta,24,2021-09-06_19h00.09.083,rantool2,2021.1.4,Win32,59.80503558,6135e006383e6ea6c3d06a28,613648dbb5fcd7529008ebf8,3.0196,,,,,,,,
j,0,17,17,43,1,610838a0f1ffc75feae4bdc5,RORORRO,RORORRR,20.71309134,21.07490964,series_1,610838a0f1ffc75feae4bdc5,Kobieta,24,2021-09-06_19h00.09.083,rantool2,2021.1.4,Win32,59.80503558,6135e006383e6ea6c3d06a28,613648dbb5fcd7529008ebf8,2.9013,,,,,,,,
j,0,18,18,48,1,610838a0f1ffc75feae4bdc5,RROOOOO,RROOOOR,20.90986523,22.15934078,series_1,610838a0f1ffc75feae4bdc5,Kobieta,24,2021-09-06_19h00.09.083,rantool2,2021.1.4,Win32,59.80503558,6135e006383e6ea6c3d06a28,613648dbb5fcd7529008ebf8,1.6724,,,,,,,,
f,0,19,19,29,1,610838a0f1ffc75feae4bdc5,ORRRORO,ORRRORR,22.00300695,22.12173012,series_1,610838a0f1ffc75feae4bdc5,Kobieta,24,2021-09-06_19h00.09.083,rantool2,2021.1.4,Win32,59.80503558,6135e006383e6ea6c3d06a28,613648dbb5fcd7529008ebf8,3.2067,,,,,,,,
j,0,20,20,26,1,610838a0f1ffc75feae4bdc5,ORROROO,ORROROR,22.02732763,21.71443381,series_0,610838a0f1ffc75feae4bdc5,Kobieta,24,2021-09-06_19h00.09.083,rantool2,2021.1.4,Win32,59.80503558,6135e006383e6ea6c3d06a28,613648dbb5fcd7529008ebf8,2.3692,,,,,,,,
f,0,21,21,18,1,610838a0f1ffc75feae4bdc5,OROOROO,OROOROR,20.84860893,21.22513037,series_1,610838a0f1ffc75feae4bdc5,Kobieta,24,2021-09-06_19h00.09.083,rantool2,2021.1.4,Win32,59.80503558,6135e006383e6ea6c3d06a28,613648dbb5fcd7529008ebf8,1.3569,,,,,,,,
,0,22,22,28,1,610838a0f1ffc75feae4bdc5,ORRROOO,ORRROOR,22.24142883,22.53364006,series_1,610838a0f1ffc75feae4bdc5,Kobieta,24,2021-09-06_19h00.09.083,rantool2,2021.1.4,Win32,59.80503558,6135e006383e6ea6c3d06a28,613648dbb5fcd7529008ebf8,,,,,,,,,
,0,23,23,6,1,610838a0f1ffc75feae4bdc5,OOORROO,OOORROR,21.12383932,21.38562617,series_1,610838a0f1ffc75feae4bdc5,Kobieta,24,2021-09-06_19h00.09.083,rantool2,2021.1.4,Win32,59.80503558,6135e006383e6ea6c3d06a28,613648dbb5fcd7529008ebf8,,,,,,,,,
,0,24,24,1,1,610838a0f1ffc75feae4bdc5,OOOOORO,OOOOORR,19.92253567,20.74050628,series_1,610838a0f1ffc75feae4bdc5,Kobieta,24,2021-09-06_19h00.09.083,rantool2,2021.1.4,Win32,59.80503558,6135e006383e6ea6c3d06a28,613648dbb5fcd7529008ebf8,,,,,,,,,
f,0,25,25,24,1,610838a0f1ffc75feae4bdc5,ORROOOO,ORROOOR,21.12383932,22.07102821,series_1,610838a0f1ffc75feae4bdc5,Kobieta,24,2021-09-06_19h00.09.083,rantool2,2021.1.4,Win32,59.80503558,6135e006383e6ea6c3d06a28,613648dbb5fcd7529008ebf8,2.4272,,,,,,,,
f,0,26,26,5,1,610838a0f1ffc75feae4bdc5,OOORORO,OOORORR,20.87963819,21.9921709,series_1,610838a0f1ffc75feae4bdc5,Kobieta,24,2021-09-06_19h00.09.083,rantool2,2021.1.4,Win32,59.80503558,6135e006383e6ea6c3d06a28,613648dbb5fcd7529008ebf8,3.2233,,,,,,,,
f,0,27,27,20,1,610838a0f1ffc75feae4bdc5,OROROOO,OROROOR,21.31236711,21.90565814,series_1,610838a0f1ffc75feae4bdc5,Kobieta,24,2021-09-06_19h00.09.083,rantool2,2021.1.4,Win32,59.80503558,6135e006383e6ea6c3d06a28,613648dbb5fcd7529008ebf8,2.8434,,,,,,,,
j,0,28,28,11,1,610838a0f1ffc75feae4bdc5,OORORRO,OORORRR,22.18365867,22.6797523,series_1,610838a0f1ffc75feae4bdc5,Kobieta,24,2021-09-06_19h00.09.083,rantool2,2021.1.4,Win32,59.80503558,6135e006383e6ea6c3d06a28,613648dbb5fcd7529008ebf8,2.6693,,,,,,,,
f,0,29,29,14,1,610838a0f1ffc75feae4bdc5,OORRROO,OORRROR,22.24142883,22.16977179,series_0,610838a0f1ffc75feae4bdc5,Kobieta,24,2021-09-06_19h00.09.083,rantool2,2021.1.4,Win32,59.80503558,6135e006383e6ea6c3d06a28,613648dbb5fcd7529008ebf8,2.865,,,,,,,,
j,0,30,30,57,1,610838a0f1ffc75feae4bdc5,RRROORO,RRROORR,21.82425538,22.07102821,series_1,610838a0f1ffc75feae4bdc5,Kobieta,24,2021-09-06_19h00.09.083,rantool2,2021.1.4,Win32,59.80503558,6135e006383e6ea6c3d06a28,613648dbb5fcd7529008ebf8,4.3817,,,,,,,,
,0,31,31,33,1,610838a0f1ffc75feae4bdc5,ROOOORO,ROOOORR,20.83779602,22.03072203,series_1,610838a0f1ffc75feae4bdc5,Kobieta,24,2021-09-06_19h00.09.083,rantool2,2021.1.4,Win32,59.80503558,6135e006383e6ea6c3d06a28,613648dbb5fcd7529008ebf8,,,,,,,,,
j,0,32,32,15,1,610838a0f1ffc75feae4bdc5,OORRRRO,OORRRRR,22.10108823,21.74922619,series_0,610838a0f1ffc75feae4bdc5,Kobieta,24,2021-09-06_19h00.09.083,rantool2,2021.1.4,Win32,59.80503558,6135e006383e6ea6c3d06a28,613648dbb5fcd7529008ebf8,0.3606,,,,,,,,
f,0,33,33,38,1,610838a0f1ffc75feae4bdc5,ROORROO,ROORROR,21.79500819,21.36812781,series_0,610838a0f1ffc75feae4bdc5,Kobieta,24,2021-09-06_19h00.09.083,rantool2,2021.1.4,Win32,59.80503558,6135e006383e6ea6c3d06a28,613648dbb5fcd7529008ebf8,2.636,,,,,,,,
j,0,34,34,32,1,610838a0f1ffc75feae4bdc5,ROOOOOO,ROOOOOR,19.92253567,21.27974287,series_1,610838a0f1ffc75feae4bdc5,Kobieta,24,2021-09-06_19h00.09.083,rantool2,2021.1.4,Win32,59.80503558,6135e006383e6ea6c3d06a28,613648dbb5fcd7529008ebf8,2.9852,,,,,,,,
f,0,35,35,23,1,610838a0f1ffc75feae4bdc5,ORORRRO,ORORRRR,22.1285618,21.9921709,series_0,610838a0f1ffc75feae4bdc5,Kobieta,24,2021-09-06_19h00.09.083,rantool2,2021.1.4,Win32,59.80503558,6135e006383e6ea6c3d06a28,613648dbb5fcd7529008ebf8,3.5234,,,,,,,,
j,0,36,36,51,1,610838a0f1ffc75feae4bdc5,RROORRO,RROORRR,21.89852628,22.02786418,series_1,610838a0f1ffc75feae4bdc5,Kobieta,24,2021-09-06_19h00.09.083,rantool2,2021.1.4,Win32,59.80503558,6135e006383e6ea6c3d06a28,613648dbb5fcd7529008ebf8,2.6831,,,,,,,,
f,0,37,37,7,1,610838a0f1ffc75feae4bdc5,OOORRRO,OOORRRR,21.6194508,21.899017,series_1,610838a0f1ffc75feae4bdc5,Kobieta,24,2021-09-06_19h00.09.083,rantool2,2021.1.4,Win32,59.80503558,6135e006383e6ea6c3d06a28,613648dbb5fcd7529008ebf8,2.801,,,,,,,,
j,0,38,38,0,1,610838a0f1ffc75feae4bdc5,OOOOOOO,OOOOOOR,18.52739004,19.62521613,series_1,610838a0f1ffc75feae4bdc5,Kobieta,24,2021-09-06_19h00.09.083,rantool2,2021.1.4,Win32,59.80503558,6135e006383e6ea6c3d06a28,613648dbb5fcd7529008ebf8,1.9624,,,,,,,,
j,0,39,39,13,1,610838a0f1ffc75feae4bdc5,OORRORO,OORRORR,21.66733484,22.11181017,series_1,610838a0f1ffc75feae4bdc5,Kobieta,24,2021-09-06_19h00.09.083,rantool2,2021.1.4,Win32,59.80503558,6135e006383e6ea6c3d06a28,613648dbb5fcd7529008ebf8,3.3908,,,,,,,,
f,0,40,40,9,1,610838a0f1ffc75feae4bdc5,OOROORO,OOROORR,21.07991943,22.2428857,series_1,610838a0f1ffc75feae4bdc5,Kobieta,24,2021-09-06_19h00.09.083,rantool2,2021.1.4,Win32,59.80503558,6135e006383e6ea6c3d06a28,613648dbb5fcd7529008ebf8,2.8212,,,,,,,,
f,0,41,41,46,1,610838a0f1ffc75feae4bdc5,RORRROO,RORRROR,22.00300695,21.24781509,series_0,610838a0f1ffc75feae4bdc5,Kobieta,24,2021-09-06_19h00.09.083,rantool2,2021.1.4,Win32,59.80503558,6135e006383e6ea6c3d06a28,613648dbb5fcd7529008ebf8,3.0289,,,,,,,,
j,0,42,42,4,1,610838a0f1ffc75feae4bdc5,OOOROOO,OOOROOR,19.91402015,21.21223021,series_1,610838a0f1ffc75feae4bdc5,Kobieta,24,2021-09-06_19h00.09.083,rantool2,2021.1.4,Win32,59.80503558,6135e006383e6ea6c3d06a28,613648dbb5fcd7529008ebf8,2.2942,,,,,,,,
f,0,43,43,31,1,610838a0f1ffc75feae4bdc5,ORRRRRO,ORRRRRR,22.16413392,20.74050628,series_0,610838a0f1ffc75feae4bdc5,Kobieta,24,2021-09-06_19h00.09.083,rantool2,2021.1.4,Win32,59.80503558,6135e006383e6ea6c3d06a28,613648dbb5fcd7529008ebf8,2.829,,,,,,,,
j,0,44,44,40,1,610838a0f1ffc75feae4bdc5,ROROOOO,ROROOOR,20.87963819,21.37121559,series_1,610838a0f1ffc75feae4bdc5,Kobieta,24,2021-09-06_19h00.09.083,rantool2,2021.1.4,Win32,59.80503558,6135e006383e6ea6c3d06a28,613648dbb5fcd7529008ebf8,2.0859,,,,,,,,
f,0,45,45,47,1,610838a0f1ffc75feae4bdc5,RORRRRO,RORRRRR,21.81333602,21.02936224,series_0,610838a0f1ffc75feae4bdc5,Kobieta,24,2021-09-06_19h00.09.083,rantool2,2021.1.4,Win32,59.80503558,6135e006383e6ea6c3d06a28,613648dbb5fcd7529008ebf8,2.2056,,,,,,,,
j,0,46,46,50,1,610838a0f1ffc75feae4bdc5,RROOROO,RROOROR,21.73568164,22.02566557,series_1,610838a0f1ffc75feae4bdc5,Kobieta,24,2021-09-06_19h00.09.083,rantool2,2021.1.4,Win32,59.80503558,6135e006383e6ea6c3d06a28,613648dbb5fcd7529008ebf8,3.5509,,,,,,,,
f,0,47,47,63,1,610838a0f1ffc75feae4bdc5,RRRRRRO,RRRRRRR,21.35278725,19.62521613,series_0,610838a0f1ffc75feae4bdc5,Kobieta,24,2021-09-06_19h00.09.083,rantool2,2021.1.4,Win32,59.80503558,6135e006383e6ea6c3d06a28,613648dbb5fcd7529008ebf8,2.2023,,,,,,,,
f,0,48,48,19,1,610838a0f1ffc75feae4bdc5,OROORRO,OROORRR,21.73568164,22.11181017,series_1,610838a0f1ffc75feae4bdc5,Kobieta,24,2021-09-06_19h00.09.083,rantool2,2021.1.4,Win32,59.80503558,6135e006383e6ea6c3d06a28,613648dbb5fcd7529008ebf8,2.3805,,,,,,,,
f,0,49,49,27,1,610838a0f1ffc75feae4bdc5,ORRORRO,ORRORRR,21.55250791,22.2428857,series_1,610838a0f1ffc75feae4bdc5,Kobieta,24,2021-09-06_19h00.09.083,rantool2,2021.1.4,Win32,59.80503558,6135e006383e6ea6c3d06a28,613648dbb5fcd7529008ebf8,3.8695,,,,,,,,
j,0,50,50,39,1,610838a0f1ffc75feae4bdc5,ROORRRO,ROORRRR,21.82425538,21.38562617,series_0,610838a0f1ffc75feae4bdc5,Kobieta,24,2021-09-06_19h00.09.083,rantool2,2021.1.4,Win32,59.80503558,6135e006383e6ea6c3d06a28,613648dbb5fcd7529008ebf8,3.7196,,,,,,,,
j,0,51,51,10,1,610838a0f1ffc75feae4bdc5,OOROROO,OOROROR,21.31236711,21.07490964,series_0,610838a0f1ffc75feae4bdc5,Kobieta,24,2021-09-06_19h00.09.083,rantool2,2021.1.4,Win32,59.80503558,6135e006383e6ea6c3d06a28,613648dbb5fcd7529008ebf8,3.6199,,,,,,,,
j,0,52,52,25,1,610838a0f1ffc75feae4bdc5,ORROORO,ORROORR,21.79500819,22.61624387,series_1,610838a0f1ffc75feae4bdc5,Kobieta,24,2021-09-06_19h00.09.083,rantool2,2021.1.4,Win32,59.80503558,6135e006383e6ea6c3d06a28,613648dbb5fcd7529008ebf8,3.0665,,,,,,,,
f,0,53,53,41,1,610838a0f1ffc75feae4bdc5,ROROORO,ROROORR,20.42602454,21.71443381,series_1,610838a0f1ffc75feae4bdc5,Kobieta,24,2021-09-06_19h00.09.083,rantool2,2021.1.4,Win32,59.80503558,6135e006383e6ea6c3d06a28,613648dbb5fcd7529008ebf8,1.8231,,,,,,,,
f,0,54,54,54,1,610838a0f1ffc75feae4bdc5,RRORROO,RRORROR,21.55250791,20.9984461,series_0,610838a0f1ffc75feae4bdc5,Kobieta,24,2021-09-06_19h00.09.083,rantool2,2021.1.4,Win32,59.80503558,6135e006383e6ea6c3d06a28,613648dbb5fcd7529008ebf8,3.2413,,,,,,,,
f,0,55,55,59,1,610838a0f1ffc75feae4bdc5,RRRORRO,RRRORRR,21.56657303,20.89823192,series_0,610838a0f1ffc75feae4bdc5,Kobieta,24,2021-09-06_19h00.09.083,rantool2,2021.1.4,Win32,59.80503558,6135e006383e6ea6c3d06a28,613648dbb5fcd7529008ebf8,3.0645,,,,,,,,
j,0,56,56,56,1,610838a0f1ffc75feae4bdc5,RRROOOO,RRROOOR,21.6194508,22.31681875,series_1,610838a0f1ffc75feae4bdc5,Kobieta,24,2021-09-06_19h00.09.083,rantool2,2021.1.4,Win32,59.80503558,6135e006383e6ea6c3d06a28,613648dbb5fcd7529008ebf8,2.2964,,,,,,,,
f,0,57,57,60,1,610838a0f1ffc75feae4bdc5,RRRROOO,RRRROOR,22.10108823,22.15934078,series_1,610838a0f1ffc75feae4bdc5,Kobieta,24,2021-09-06_19h00.09.083,rantool2,2021.1.4,Win32,59.80503558,6135e006383e6ea6c3d06a28,613648dbb5fcd7529008ebf8,2.7323,,,,,,,,
f,0,58,58,21,1,610838a0f1ffc75feae4bdc5,ORORORO,ORORORR,20.39515459,22.06781359,series_1,610838a0f1ffc75feae4bdc5,Kobieta,24,2021-09-06_19h00.09.083,rantool2,2021.1.4,Win32,59.80503558,6135e006383e6ea6c3d06a28,613648dbb5fcd7529008ebf8,1.351,,,,,,,,
f,0,59,59,62,1,610838a0f1ffc75feae4bdc5,RRRRROO,RRRRROR,22.16413392,21.27974287,series_0,610838a0f1ffc75feae4bdc5,Kobieta,24,2021-09-06_19h00.09.083,rantool2,2021.1.4,Win32,59.80503558,6135e006383e6ea6c3d06a28,613648dbb5fcd7529008ebf8,2.7007,,,,,,,,
j,0,60,60,12,1,610838a0f1ffc75feae4bdc5,OORROOO,OORROOR,21.30250474,22.02786418,series_1,610838a0f1ffc75feae4bdc5,Kobieta,24,2021-09-06_19h00.09.083,rantool2,2021.1.4,Win32,59.80503558,6135e006383e6ea6c3d06a28,613648dbb5fcd7529008ebf8,2.0029,,,,,,,,
f,0,61,61,44,1,610838a0f1ffc75feae4bdc5,RORROOO,RORROOR,21.66733484,22.02566557,series_1,610838a0f1ffc75feae4bdc5,Kobieta,24,2021-09-06_19h00.09.083,rantool2,2021.1.4,Win32,59.80503558,6135e006383e6ea6c3d06a28,613648dbb5fcd7529008ebf8,3.2644,,,,,,,,
j,0,62,62,2,1,610838a0f1ffc75feae4bdc5,OOOOROO,OOOOROR,20.43051175,21.02936224,series_1,610838a0f1ffc75feae4bdc5,Kobieta,24,2021-09-06_19h00.09.083,rantool2,2021.1.4,Win32,59.80503558,6135e006383e6ea6c3d06a28,613648dbb5fcd7529008ebf8,2.3914,,,,,,,,
f,0,63,63,17,1,610838a0f1ffc75feae4bdc5,OROOORO,OROOORR,21.03750787,22.12173012,series_1,610838a0f1ffc75feae4bdc5,Kobieta,24,2021-09-06_19h00.09.083,rantool2,2021.1.4,Win32,59.80503558,6135e006383e6ea6c3d06a28,613648dbb5fcd7529008ebf8,2.5633,,,,,,,,
,,,,,,610838a0f1ffc75feae4bdc5,,,,,,610838a0f1ffc75feae4bdc5,Kobieta,24,2021-09-06_19h00.09.083,rantool2,2021.1.4,Win32,59.80503558,6135e006383e6ea6c3d06a28,613648dbb5fcd7529008ebf8,,"[""comma""]",0,[1.3308000000119478],0,0,0,0,1
,,,,,,610838a0f1ffc75feae4bdc5,,,,,,610838a0f1ffc75feae4bdc5,Kobieta,24,2021-09-06_19h00.09.083,rantool2,2021.1.4,Win32,59.80503558,6135e006383e6ea6c3d06a28,613648dbb5fcd7529008ebf8,,"[""period""]",0,[0.5708000000119569],1,0,1,0,1
,,,,,,610838a0f1ffc75feae4bdc5,,,,,,610838a0f1ffc75feae4bdc5,Kobieta,24,2021-09-06_19h00.09.083,rantool2,2021.1.4,Win32,59.80503558,6135e006383e6ea6c3d06a28,613648dbb5fcd7529008ebf8,,"[""period""]",0,[0.2906000000238578],2,0,2,0,1
,,,,,,610838a0f1ffc75feae4bdc5,,,,,,610838a0f1ffc75feae4bdc5,Kobieta,24,2021-09-06_19h00.09.083,rantool2,2021.1.4,Win32,59.80503558,6135e006383e6ea6c3d06a28,613648dbb5fcd7529008ebf8,,"[""period"",""comma""]",0,"[0.2694000000059873,0.3233000000119546]",3,0,3,0,1
,,,,,,610838a0f1ffc75feae4bdc5,,,,,,610838a0f1ffc75feae4bdc5,Kobieta,24,2021-09-06_19h00.09.083,rantool2,2021.1.4,Win32,59.80503558,6135e006383e6ea6c3d06a28,613648dbb5fcd7529008ebf8,,"[""period""]",0,[0.3026999999880786],4,0,4,0,1
,,,,,,610838a0f1ffc75feae4bdc5,,,,,,610838a0f1ffc75feae4bdc5,Kobieta,24,2021-09-06_19h00.09.083,rantool2,2021.1.4,Win32,59.80503558,6135e006383e6ea6c3d06a28,613648dbb5fcd7529008ebf8,,"[""period""]",0,[0.283199999988085],5,0,5,0,1
,,,,,,610838a0f1ffc75feae4bdc5,,,,,,610838a0f1ffc75feae4bdc5,Kobieta,24,2021-09-06_19h00.09.083,rantool2,2021.1.4,Win32,59.80503558,6135e006383e6ea6c3d06a28,613648dbb5fcd7529008ebf8,,"[""comma""]",0,[0.26740000000597774],6,0,6,0,1
,,,,,,610838a0f1ffc75feae4bdc5,,,,,,610838a0f1ffc75feae4bdc5,Kobieta,24,2021-09-06_19h00.09.083,rantool2,2021.1.4,Win32,59.80503558,6135e006383e6ea6c3d06a28,613648dbb5fcd7529008ebf8,,"[""period""]",0,[0.36830000001191365],7,0,7,0,1
,,,,,,610838a0f1ffc75feae4bdc5,,,,,,610838a0f1ffc75feae4bdc5,Kobieta,24,2021-09-06_19h00.09.083,rantool2,2021.1.4,Win32,59.80503558,6135e006383e6ea6c3d06a28,613648dbb5fcd7529008ebf8,,"[""comma""]",0,[0.27759999999403817],8,0,8,0,1
,,,,,,610838a0f1ffc75feae4bdc5,,,,,,610838a0f1ffc75feae4bdc5,Kobieta,24,2021-09-06_19h00.09.083,rantool2,2021.1.4,Win32,59.80503558,6135e006383e6ea6c3d06a28,613648dbb5fcd7529008ebf8,,"[""comma""]",0,[0.2475999999940086],9,0,9,0,1
,,,,,,610838a0f1ffc75feae4bdc5,,,,,,610838a0f1ffc75feae4bdc5,Kobieta,24,2021-09-06_19h00.09.083,rantool2,2021.1.4,Win32,59.80503558,6135e006383e6ea6c3d06a28,613648dbb5fcd7529008ebf8,,"[""comma""]",0,[0.25509999999405863],10,0,10,0,1
,,,,,,610838a0f1ffc75feae4bdc5,,,,,,610838a0f1ffc75feae4bdc5,Kobieta,24,2021-09-06_19h00.09.083,rantool2,2021.1.4,Win32,59.80503558,6135e006383e6ea6c3d06a28,613648dbb5fcd7529008ebf8,,"[""period""]",0,[0.26980000001196913],11,0,11,0,1
,,,,,,610838a0f1ffc75feae4bdc5,,,,,,610838a0f1ffc75feae4bdc5,Kobieta,24,2021-09-06_19h00.09.083,rantool2,2021.1.4,Win32,59.80503558,6135e006383e6ea6c3d06a28,613648dbb5fcd7529008ebf8,,"[""comma"",""period""]",0,"[0.2851000000238173,0.28620000001785684]",12,0,12,0,1
,,,,,,610838a0f1ffc75feae4bdc5,,,,,,610838a0f1ffc75feae4bdc5,Kobieta,24,2021-09-06_19h00.09.083,rantool2,2021.1.4,Win32,59.80503558,6135e006383e6ea6c3d06a28,613648dbb5fcd7529008ebf8,,"[""comma""]",0,[0.30510000002385596],13,0,13,0,1
,,,,,,610838a0f1ffc75feae4bdc5,,,,,,610838a0f1ffc75feae4bdc5,Kobieta,24,2021-09-06_19h00.09.083,rantool2,2021.1.4,Win32,59.80503558,6135e006383e6ea6c3d06a28,613648dbb5fcd7529008ebf8,,"[""comma""]",0,[0.23449999999996862],14,0,14,0,1
,,,,,,610838a0f1ffc75feae4bdc5,,,,,,610838a0f1ffc75feae4bdc5,Kobieta,24,2021-09-06_19h00.09.083,rantool2,2021.1.4,Win32,59.80503558,6135e006383e6ea6c3d06a28,613648dbb5fcd7529008ebf8,,"[""comma""]",0,[-0.019599999994056816],15,0,15,0,1
,,,,,,610838a0f1ffc75feae4bdc5,,,,,,610838a0f1ffc75feae4bdc5,Kobieta,24,2021-09-06_19h00.09.083,rantool2,2021.1.4,Win32,59.80503558,6135e006383e6ea6c3d06a28,613648dbb5fcd7529008ebf8,,"[""period""]",0,[0.23429999998211315],16,0,16,0,1
,,,,,,610838a0f1ffc75feae4bdc5,,,,,,610838a0f1ffc75feae4bdc5,Kobieta,24,2021-09-06_19h00.09.083,rantool2,2021.1.4,Win32,59.80503558,6135e006383e6ea6c3d06a28,613648dbb5fcd7529008ebf8,,"[""comma""]",0,[0.3020999999940841],17,0,17,0,1
,,,,,,610838a0f1ffc75feae4bdc5,,,,,,610838a0f1ffc75feae4bdc5,Kobieta,24,2021-09-06_19h00.09.083,rantool2,2021.1.4,Win32,59.80503558,6135e006383e6ea6c3d06a28,613648dbb5fcd7529008ebf8,,"[""period"",""period""]",0,"[0.0025999999940609086,1.918299999982139]",18,0,18,0,1
,,,,,,610838a0f1ffc75feae4bdc5,,,,,,610838a0f1ffc75feae4bdc5,Kobieta,24,2021-09-06_19h00.09.083,rantool2,2021.1.4,Win32,59.80503558,6135e006383e6ea6c3d06a28,613648dbb5fcd7529008ebf8,,"[""comma""]",0,[1.9242000000178905],19,0,19,0,1
,,,,,,610838a0f1ffc75feae4bdc5,,,,,,610838a0f1ffc75feae4bdc5,Kobieta,24,2021-09-06_19h00.09.083,rantool2,2021.1.4,Win32,59.80503558,6135e006383e6ea6c3d06a28,613648dbb5fcd7529008ebf8,,0,0,,20,0,20,0,1
,,,,,,610838a0f1ffc75feae4bdc5,,,,,,610838a0f1ffc75feae4bdc5,Kobieta,24,2021-09-06_19h00.09.083,rantool2,2021.1.4,Win32,59.80503558,6135e006383e6ea6c3d06a28,613648dbb5fcd7529008ebf8,,"[""period""]",0,[0.28629999998213407],21,0,21,0,1
,,,,,,610838a0f1ffc75feae4bdc5,,,,,,610838a0f1ffc75feae4bdc5,Kobieta,24,2021-09-06_19h00.09.083,rantool2,2021.1.4,Win32,59.80503558,6135e006383e6ea6c3d06a28,613648dbb5fcd7529008ebf8,,"[""period""]",0,[0.29519999998808544],22,0,22,0,1
,,,,,,610838a0f1ffc75feae4bdc5,,,,,,610838a0f1ffc75feae4bdc5,Kobieta,24,2021-09-06_19h00.09.083,rantool2,2021.1.4,Win32,59.80503558,6135e006383e6ea6c3d06a28,613648dbb5fcd7529008ebf8,,"[""comma""]",0,[0.3369999999999891],23,0,23,0,1
,,,,,,610838a0f1ffc75feae4bdc5,,,,,,610838a0f1ffc75feae4bdc5,Kobieta,24,2021-09-06_19h00.09.083,rantool2,2021.1.4,Win32,59.80503558,6135e006383e6ea6c3d06a28,613648dbb5fcd7529008ebf8,,"[""comma""]",0,[0.2529000000059227],24,0,24,0,1
,,,,,,610838a0f1ffc75feae4bdc5,,,,,,610838a0f1ffc75feae4bdc5,Kobieta,24,2021-09-06_19h00.09.083,rantool2,2021.1.4,Win32,59.80503558,6135e006383e6ea6c3d06a28,613648dbb5fcd7529008ebf8,,"[""period""]",0,[0.25290000000597956],25,0,25,0,1
,,,,,,610838a0f1ffc75feae4bdc5,,,,,,610838a0f1ffc75feae4bdc5,Kobieta,24,2021-09-06_19h00.09.083,rantool2,2021.1.4,Win32,59.80503558,6135e006383e6ea6c3d06a28,613648dbb5fcd7529008ebf8,,"[""comma""]",0,[0.36959999999407955],26,0,26,0,1
,,,,,,610838a0f1ffc75feae4bdc5,,,,,,610838a0f1ffc75feae4bdc5,Kobieta,24,2021-09-06_19h00.09.083,rantool2,2021.1.4,Win32,59.80503558,6135e006383e6ea6c3d06a28,613648dbb5fcd7529008ebf8,,"[""comma""]",0,[0.2838000000119223],27,0,27,0,1
,,,,,,610838a0f1ffc75feae4bdc5,,,,,,610838a0f1ffc75feae4bdc5,Kobieta,24,2021-09-06_19h00.09.083,rantool2,2021.1.4,Win32,59.80503558,6135e006383e6ea6c3d06a28,613648dbb5fcd7529008ebf8,,"[""period""]",0,[0.08590000000594955],28,0,28,0,1
,,,,,,610838a0f1ffc75feae4bdc5,,,,,,610838a0f1ffc75feae4bdc5,Kobieta,24,2021-09-06_19h00.09.083,rantool2,2021.1.4,Win32,59.80503558,6135e006383e6ea6c3d06a28,613648dbb5fcd7529008ebf8,,"[""comma""]",0,[0.03559999999401953],29,0,29,0,1
,,,,,,610838a0f1ffc75feae4bdc5,,,,,,610838a0f1ffc75feae4bdc5,Kobieta,24,2021-09-06_19h00.09.083,rantool2,2021.1.4,Win32,59.80503558,6135e006383e6ea6c3d06a28,613648dbb5fcd7529008ebf8,,"[""period""]",0,[0.21670000001785183],30,0,30,0,1
,,,,,,610838a0f1ffc75feae4bdc5,,,,,,610838a0f1ffc75feae4bdc5,Kobieta,24,2021-09-06_19h00.09.083,rantool2,2021.1.4,Win32,59.80503558,6135e006383e6ea6c3d06a28,613648dbb5fcd7529008ebf8,,"[""comma""]",0,[0.13469999998807225],31,0,31,0,1
,,,,,,610838a0f1ffc75feae4bdc5,,,,,,610838a0f1ffc75feae4bdc5,Kobieta,24,2021-09-06_19h00.09.083,rantool2,2021.1.4,Win32,59.80503558,6135e006383e6ea6c3d06a28,613648dbb5fcd7529008ebf8,,"[""comma""]",0,[0.2874999999999659],32,0,32,0,1
,,,,,,610838a0f1ffc75feae4bdc5,,,,,,610838a0f1ffc75feae4bdc5,Kobieta,24,2021-09-06_19h00.09.083,rantool2,2021.1.4,Win32,59.80503558,6135e006383e6ea6c3d06a28,613648dbb5fcd7529008ebf8,,"[""comma""]",0,[0.16780000001193685],33,0,33,0,1
,,,,,,610838a0f1ffc75feae4bdc5,,,,,,610838a0f1ffc75feae4bdc5,Kobieta,24,2021-09-06_19h00.09.083,rantool2,2021.1.4,Win32,59.80503558,6135e006383e6ea6c3d06a28,613648dbb5fcd7529008ebf8,,"[""period"",""comma""]",0,"[0.2955000000000041,1.8399000000059686]",34,0,34,0,1
,,,,,,610838a0f1ffc75feae4bdc5,,,,,,610838a0f1ffc75feae4bdc5,Kobieta,24,2021-09-06_19h00.09.083,rantool2,2021.1.4,Win32,59.80503558,6135e006383e6ea6c3d06a28,613648dbb5fcd7529008ebf8,,0,0,,35,0,35,0,1
,,,,,,610838a0f1ffc75feae4bdc5,,,,,,610838a0f1ffc75feae4bdc5,Kobieta,24,2021-09-06_19h00.09.083,rantool2,2021.1.4,Win32,59.80503558,6135e006383e6ea6c3d06a28,613648dbb5fcd7529008ebf8,,"[""period""]",0,[0.08240000000597547],36,0,36,0,1
,,,,,,610838a0f1ffc75feae4bdc5,,,,,,610838a0f1ffc75feae4bdc5,Kobieta,24,2021-09-06_19h00.09.083,rantool2,2021.1.4,Win32,59.80503558,6135e006383e6ea6c3d06a28,613648dbb5fcd7529008ebf8,,"[""comma""]",0,[0.24900000000002365],37,0,37,0,1
,,,,,,610838a0f1ffc75feae4bdc5,,,,,,610838a0f1ffc75feae4bdc5,Kobieta,24,2021-09-06_19h00.09.083,rantool2,2021.1.4,Win32,59.80503558,6135e006383e6ea6c3d06a28,613648dbb5fcd7529008ebf8,,"[""comma""]",0,[0.0702000000179055],38,0,38,0,1
,,,,,,610838a0f1ffc75feae4bdc5,,,,,,610838a0f1ffc75feae4bdc5,Kobieta,24,2021-09-06_19h00.09.083,rantool2,2021.1.4,Win32,59.80503558,6135e006383e6ea6c3d06a28,613648dbb5fcd7529008ebf8,,"[""comma""]",0,[0.2668000000119264],39,0,39,0,1
,,,,,,610838a0f1ffc75feae4bdc5,,,,,,610838a0f1ffc75feae4bdc5,Kobieta,24,2021-09-06_19h00.09.083,rantool2,2021.1.4,Win32,59.80503558,6135e006383e6ea6c3d06a28,613648dbb5fcd7529008ebf8,,"[""comma""]",0,[0.3442000000179064],40,0,40,0,1
,,,,,,610838a0f1ffc75feae4bdc5,,,,,,610838a0f1ffc75feae4bdc5,Kobieta,24,2021-09-06_19h00.09.083,rantool2,2021.1.4,Win32,59.80503558,6135e006383e6ea6c3d06a28,613648dbb5fcd7529008ebf8,,"[""period"",""comma""]",0,"[0.06840000000596547,1.8679000000059318]",41,0,41,0,1
,,,,,,610838a0f1ffc75feae4bdc5,,,,,,610838a0f1ffc75feae4bdc5,Kobieta,24,2021-09-06_19h00.09.083,rantool2,2021.1.4,Win32,59.80503558,6135e006383e6ea6c3d06a28,613648dbb5fcd7529008ebf8,,0,0,,42,0,42,0,1
,,,,,,610838a0f1ffc75feae4bdc5,,,,,,610838a0f1ffc75feae4bdc5,Kobieta,24,2021-09-06_19h00.09.083,rantool2,2021.1.4,Win32,59.80503558,6135e006383e6ea6c3d06a28,613648dbb5fcd7529008ebf8,,"[""period""]",0,[0.27489999997618497],43,0,43,0,1
,,,,,,610838a0f1ffc75feae4bdc5,,,,,,610838a0f1ffc75feae4bdc5,Kobieta,24,2021-09-06_19h00.09.083,rantool2,2021.1.4,Win32,59.80503558,6135e006383e6ea6c3d06a28,613648dbb5fcd7529008ebf8,,"[""comma""]",0,[0.35239999997617133],44,0,44,0,1
,,,,,,610838a0f1ffc75feae4bdc5,,,,,,610838a0f1ffc75feae4bdc5,Kobieta,24,2021-09-06_19h00.09.083,rantool2,2021.1.4,Win32,59.80503558,6135e006383e6ea6c3d06a28,613648dbb5fcd7529008ebf8,,"[""period""]",0,[0.29300000000000637],45,0,45,0,1
,,,,,,610838a0f1ffc75feae4bdc5,,,,,,610838a0f1ffc75feae4bdc5,Kobieta,24,2021-09-06_19h00.09.083,rantool2,2021.1.4,Win32,59.80503558,6135e006383e6ea6c3d06a28,613648dbb5fcd7529008ebf8,,"[""period""]",0,[0.2878999999761618],46,0,46,0,1
,,,,,,610838a0f1ffc75feae4bdc5,,,,,,610838a0f1ffc75feae4bdc5,Kobieta,24,2021-09-06_19h00.09.083,rantool2,2021.1.4,Win32,59.80503558,6135e006383e6ea6c3d06a28,613648dbb5fcd7529008ebf8,,"[""period""]",0,[0.05470000001787412],47,0,47,0,1
,,,,,,610838a0f1ffc75feae4bdc5,,,,,,610838a0f1ffc75feae4bdc5,Kobieta,24,2021-09-06_19h00.09.083,rantool2,2021.1.4,Win32,59.80503558,6135e006383e6ea6c3d06a28,613648dbb5fcd7529008ebf8,,"[""comma""]",0,[0.2669999999999959],48,0,48,0,1
,,,,,,610838a0f1ffc75feae4bdc5,,,,,,610838a0f1ffc75feae4bdc5,Kobieta,24,2021-09-06_19h00.09.083,rantool2,2021.1.4,Win32,59.80503558,6135e006383e6ea6c3d06a28,613648dbb5fcd7529008ebf8,,"[""comma"",""comma""]",0,"[0.3014999999999759,1.9087999999820795]",49,0,49,0,1
,,,,,,610838a0f1ffc75feae4bdc5,,,,,,610838a0f1ffc75feae4bdc5,Kobieta,24,2021-09-06_19h00.09.083,rantool2,2021.1.4,Win32,59.80503558,6135e006383e6ea6c3d06a28,613648dbb5fcd7529008ebf8,,0,0,,50,0,50,0,1
,,,,,,610838a0f1ffc75feae4bdc5,,,,,,610838a0f1ffc75feae4bdc5,Kobieta,24,2021-09-06_19h00.09.083,rantool2,2021.1.4,Win32,59.80503558,6135e006383e6ea6c3d06a28,613648dbb5fcd7529008ebf8,,"[""period""]",0,[0.22509999999402908],51,0,51,0,1
,,,,,,610838a0f1ffc75feae4bdc5,,,,,,610838a0f1ffc75feae4bdc5,Kobieta,24,2021-09-06_19h00.09.083,rantool2,2021.1.4,Win32,59.80503558,6135e006383e6ea6c3d06a28,613648dbb5fcd7529008ebf8,,"[""period""]",0,[0.28499999999996817],52,0,52,0,1
,,,,,,610838a0f1ffc75feae4bdc5,,,,,,610838a0f1ffc75feae4bdc5,Kobieta,24,2021-09-06_19h00.09.083,rantool2,2021.1.4,Win32,59.80503558,6135e006383e6ea6c3d06a28,613648dbb5fcd7529008ebf8,,"[""comma""]",0,[0.3180999999940468],53,0,53,0,1
,,,,,,610838a0f1ffc75feae4bdc5,,,,,,610838a0f1ffc75feae4bdc5,Kobieta,24,2021-09-06_19h00.09.083,rantool2,2021.1.4,Win32,59.80503558,6135e006383e6ea6c3d06a28,613648dbb5fcd7529008ebf8,,"[""period""]",0,[0.30150000000003274],54,0,54,0,1
,,,,,,610838a0f1ffc75feae4bdc5,,,,,,610838a0f1ffc75feae4bdc5,Kobieta,24,2021-09-06_19h00.09.083,rantool2,2021.1.4,Win32,59.80503558,6135e006383e6ea6c3d06a28,613648dbb5fcd7529008ebf8,,"[""period""]",0,[0.41869999998806406],55,0,55,0,1
,,,,,,610838a0f1ffc75feae4bdc5,,,,,,610838a0f1ffc75feae4bdc5,Kobieta,24,2021-09-06_19h00.09.083,rantool2,2021.1.4,Win32,59.80503558,6135e006383e6ea6c3d06a28,613648dbb5fcd7529008ebf8,,"[""comma""]",0,[0.3354000000059614],56,0,56,0,1
,,,,,,610838a0f1ffc75feae4bdc5,,,,,,610838a0f1ffc75feae4bdc5,Kobieta,24,2021-09-06_19h00.09.083,rantool2,2021.1.4,Win32,59.80503558,6135e006383e6ea6c3d06a28,613648dbb5fcd7529008ebf8,,"[""period""]",0,[0.8693999999761672],57,0,57,0,1
,,,,,,610838a0f1ffc75feae4bdc5,,,,,,610838a0f1ffc75feae4bdc5,Kobieta,24,2021-09-06_19h00.09.083,rantool2,2021.1.4,Win32,59.80503558,6135e006383e6ea6c3d06a28,613648dbb5fcd7529008ebf8,,"[""comma""]",0,[0.2676999999880536],58,0,58,0,1
,,,,,,610838a0f1ffc75feae4bdc5,,,,,,610838a0f1ffc75feae4bdc5,Kobieta,24,2021-09-06_19h00.09.083,rantool2,2021.1.4,Win32,59.80503558,6135e006383e6ea6c3d06a28,613648dbb5fcd7529008ebf8,,"[""comma""]",0,[0.24980000001193048],59,0,59,0,1
,,,,,,610838a0f1ffc75feae4bdc5,,,,,,610838a0f1ffc75feae4bdc5,Kobieta,24,2021-09-06_19h00.09.083,rantool2,2021.1.4,Win32,59.80503558,6135e006383e6ea6c3d06a28,613648dbb5fcd7529008ebf8,,"[""comma""]",0,[0.05270000001786457],60,0,60,0,1
,,,,,,610838a0f1ffc75feae4bdc5,,,,,,610838a0f1ffc75feae4bdc5,Kobieta,24,2021-09-06_19h00.09.083,rantool2,2021.1.4,Win32,59.80503558,6135e006383e6ea6c3d06a28,613648dbb5fcd7529008ebf8,,"[""period"",""comma""]",0,"[0.2585999999940327,0.28819999998808044]",61,0,61,0,1
,,,,,,610838a0f1ffc75feae4bdc5,,,,,,610838a0f1ffc75feae4bdc5,Kobieta,24,2021-09-06_19h00.09.083,rantool2,2021.1.4,Win32,59.80503558,6135e006383e6ea6c3d06a28,613648dbb5fcd7529008ebf8,,"[""period""]",0,[0.2690999999940118],62,0,62,0,1
,,,,,,610838a0f1ffc75feae4bdc5,,,,,,610838a0f1ffc75feae4bdc5,Kobieta,24,2021-09-06_19h00.09.083,rantool2,2021.1.4,Win32,59.80503558,6135e006383e6ea6c3d06a28,613648dbb5fcd7529008ebf8,,"[""comma"",""period""]",0,"[0.2219000000059168,1.9665999999940027]",63,0,63,0,1
,,,,,,610838a0f1ffc75feae4bdc5,,,,,,610838a0f1ffc75feae4bdc5,Kobieta,24,2021-09-06_19h00.09.083,rantool2,2021.1.4,Win32,59.80503558,6135e006383e6ea6c3d06a28,613648dbb5fcd7529008ebf8,,0,0,,64,0,64,0,1
,,,,,,610838a0f1ffc75feae4bdc5,,,,,,610838a0f1ffc75feae4bdc5,Kobieta,24,2021-09-06_19h00.09.083,rantool2,2021.1.4,Win32,59.80503558,6135e006383e6ea6c3d06a28,613648dbb5fcd7529008ebf8,,"[""comma""]",0,[0.018700000017929597],65,0,65,0,1
,,,,,,610838a0f1ffc75feae4bdc5,,,,,,610838a0f1ffc75feae4bdc5,Kobieta,24,2021-09-06_19h00.09.083,rantool2,2021.1.4,Win32,59.80503558,6135e006383e6ea6c3d06a28,613648dbb5fcd7529008ebf8,,"[""period""]",0,[0.28530000001194367],66,0,66,0,1
,,,,,,610838a0f1ffc75feae4bdc5,,,,,,610838a0f1ffc75feae4bdc5,Kobieta,24,2021-09-06_19h00.09.083,rantool2,2021.1.4,Win32,59.80503558,6135e006383e6ea6c3d06a28,613648dbb5fcd7529008ebf8,,"[""comma""]",0,[0.23229999998216044],67,0,67,0,1
,,,,,,610838a0f1ffc75feae4bdc5,,,,,,610838a0f1ffc75feae4bdc5,Kobieta,24,2021-09-06_19h00.09.083,rantool2,2021.1.4,Win32,59.80503558,6135e006383e6ea6c3d06a28,613648dbb5fcd7529008ebf8,,"[""comma""]",0,[0.2851000000238173],68,0,68,0,1
,,,,,,610838a0f1ffc75feae4bdc5,,,,,,610838a0f1ffc75feae4bdc5,Kobieta,24,2021-09-06_19h00.09.083,rantool2,2021.1.4,Win32,59.80503558,6135e006383e6ea6c3d06a28,613648dbb5fcd7529008ebf8,,"[""period""]",0,[0.3079000000059864],69,0,69,0,1
,,,,,,610838a0f1ffc75feae4bdc5,,,,,,610838a0f1ffc75feae4bdc5,Kobieta,24,2021-09-06_19h00.09.083,rantool2,2021.1.4,Win32,59.80503558,6135e006383e6ea6c3d06a28,613648dbb5fcd7529008ebf8,,"[""comma""]",0,[0.3864000000059491],70,0,70,0,1
,,,,,,610838a0f1ffc75feae4bdc5,,,,,,610838a0f1ffc75feae4bdc5,Kobieta,24,2021-09-06_19h00.09.083,rantool2,2021.1.4,Win32,59.80503558,6135e006383e6ea6c3d06a28,613648dbb5fcd7529008ebf8,,"[""period""]",0,[0.10099999999999909],71,0,71,0,1
,,,,,,610838a0f1ffc75feae4bdc5,,,,,,610838a0f1ffc75feae4bdc5,Kobieta,24,2021-09-06_19h00.09.083,rantool2,2021.1.4,Win32,59.80503558,6135e006383e6ea6c3d06a28,613648dbb5fcd7529008ebf8,,"[""comma""]",0,[0.4015999999940618],72,0,72,0,1
,,,,,,610838a0f1ffc75feae4bdc5,,,,,,610838a0f1ffc75feae4bdc5,Kobieta,24,2021-09-06_19h00.09.083,rantool2,2021.1.4,Win32,59.80503558,6135e006383e6ea6c3d06a28,613648dbb5fcd7529008ebf8,,"[""period""]",0,[0.45059999999404],73,0,73,0,1
,,,,,,610838a0f1ffc75feae4bdc5,,,,,,610838a0f1ffc75feae4bdc5,Kobieta,24,2021-09-06_19h00.09.083,rantool2,2021.1.4,Win32,59.80503558,6135e006383e6ea6c3d06a28,613648dbb5fcd7529008ebf8,,"[""comma""]",0,[0.3354999999999677],74,0,74,0,1
,,,,,,610838a0f1ffc75feae4bdc5,,,,,,610838a0f1ffc75feae4bdc5,Kobieta,24,2021-09-06_19h00.09.083,rantool2,2021.1.4,Win32,59.80503558,6135e006383e6ea6c3d06a28,613648dbb5fcd7529008ebf8,,"[""comma""]",0,[0.3351999999881059],75,0,75,0,1
,,,,,,610838a0f1ffc75feae4bdc5,,,,,,610838a0f1ffc75feae4bdc5,Kobieta,24,2021-09-06_19h00.09.083,rantool2,2021.1.4,Win32,59.80503558,6135e006383e6ea6c3d06a28,613648dbb5fcd7529008ebf8,,"[""period""]",0,[0.28069999998808726],76,0,76,0,1
,,,,,,610838a0f1ffc75feae4bdc5,,,,,,610838a0f1ffc75feae4bdc5,Kobieta,24,2021-09-06_19h00.09.083,rantool2,2021.1.4,Win32,59.80503558,6135e006383e6ea6c3d06a28,613648dbb5fcd7529008ebf8,,"[""comma""]",0,[0.2372999999821559],77,0,77,0,1
,,,,,,610838a0f1ffc75feae4bdc5,,,,,,610838a0f1ffc75feae4bdc5,Kobieta,24,2021-09-06_19h00.09.083,rantool2,2021.1.4,Win32,59.80503558,6135e006383e6ea6c3d06a28,613648dbb5fcd7529008ebf8,,"[""comma""]",0,[0.1824000000059982],78,0,78,0,1
,,,,,,610838a0f1ffc75feae4bdc5,,,,,,610838a0f1ffc75feae4bdc5,Kobieta,24,2021-09-06_19h00.09.083,rantool2,2021.1.4,Win32,59.80503558,6135e006383e6ea6c3d06a28,613648dbb5fcd7529008ebf8,,"[""period""]",0,[0.06879999998216135],79,0,79,0,1
,,,,,,610838a0f1ffc75feae4bdc5,,,,,,610838a0f1ffc75feae4bdc5,Kobieta,24,2021-09-06_19h00.09.083,rantool2,2021.1.4,Win32,59.80503558,6135e006383e6ea6c3d06a28,613648dbb5fcd7529008ebf8,,"[""period""]",0,[0.3358000000119432],80,0,80,0,1
,,,,,,610838a0f1ffc75feae4bdc5,,,,,,610838a0f1ffc75feae4bdc5,Kobieta,24,2021-09-06_19h00.09.083,rantool2,2021.1.4,Win32,59.80503558,6135e006383e6ea6c3d06a28,613648dbb5fcd7529008ebf8,,"[""comma""]",0,[0.26990000000597547],81,0,81,0,1
,,,,,,610838a0f1ffc75feae4bdc5,,,,,,610838a0f1ffc75feae4bdc5,Kobieta,24,2021-09-06_19h00.09.083,rantool2,2021.1.4,Win32,59.80503558,6135e006383e6ea6c3d06a28,613648dbb5fcd7529008ebf8,,"[""comma""]",0,[0.36909999999403453],82,0,82,0,1
,,,,,,610838a0f1ffc75feae4bdc5,,,,,,610838a0f1ffc75feae4bdc5,Kobieta,24,2021-09-06_19h00.09.083,rantool2,2021.1.4,Win32,59.80503558,6135e006383e6ea6c3d06a28,613648dbb5fcd7529008ebf8,,"[""period""]",0,[0.3367000000178564],83,0,83,0,1
,,,,,,610838a0f1ffc75feae4bdc5,,,,,,610838a0f1ffc75feae4bdc5,Kobieta,24,2021-09-06_19h00.09.083,rantool2,2021.1.4,Win32,59.80503558,6135e006383e6ea6c3d06a28,613648dbb5fcd7529008ebf8,,"[""comma""]",0,[0.37019999998807407],84,0,84,0,1
,,,,,,610838a0f1ffc75feae4bdc5,,,,,,610838a0f1ffc75feae4bdc5,Kobieta,24,2021-09-06_19h00.09.083,rantool2,2021.1.4,Win32,59.80503558,6135e006383e6ea6c3d06a28,613648dbb5fcd7529008ebf8,,"[""comma""]",0,[0.45140000000600367],85,0,85,0,1
,,,,,,610838a0f1ffc75feae4bdc5,,,,,,610838a0f1ffc75feae4bdc5,Kobieta,24,2021-09-06_19h00.09.083,rantool2,2021.1.4,Win32,59.80503558,6135e006383e6ea6c3d06a28,613648dbb5fcd7529008ebf8,,"[""period""]",0,[0.5710999999940896],86,0,86,0,1
,,,,,,610838a0f1ffc75feae4bdc5,,,,,,610838a0f1ffc75feae4bdc5,Kobieta,24,2021-09-06_19h00.09.083,rantool2,2021.1.4,Win32,59.80503558,6135e006383e6ea6c3d06a28,613648dbb5fcd7529008ebf8,,"[""comma"",""comma""]",0,"[0.12319999998811682,1.5898000000119623]",87,0,87,0,1
,,,,,,610838a0f1ffc75feae4bdc5,,,,,,610838a0f1ffc75feae4bdc5,Kobieta,24,2021-09-06_19h00.09.083,rantool2,2021.1.4,Win32,59.80503558,6135e006383e6ea6c3d06a28,613648dbb5fcd7529008ebf8,,0,0,,88,0,88,0,1
,,,,,,610838a0f1ffc75feae4bdc5,,,,,,610838a0f1ffc75feae4bdc5,Kobieta,24,2021-09-06_19h00.09.083,rantool2,2021.1.4,Win32,59.80503558,6135e006383e6ea6c3d06a28,613648dbb5fcd7529008ebf8,,"[""comma""]",0,[0.25409999999402544],89,0,89,0,1
,,,,,,610838a0f1ffc75feae4bdc5,,,,,,610838a0f1ffc75feae4bdc5,Kobieta,24,2021-09-06_19h00.09.083,rantool2,2021.1.4,Win32,59.80503558,6135e006383e6ea6c3d06a28,613648dbb5fcd7529008ebf8,,"[""period""]",0,[0.26909999999406864],90,0,90,0,1
,,,,,,610838a0f1ffc75feae4bdc5,,,,,,610838a0f1ffc75feae4bdc5,Kobieta,24,2021-09-06_19h00.09.083,rantool2,2021.1.4,Win32,59.80503558,6135e006383e6ea6c3d06a28,613648dbb5fcd7529008ebf8,,"[""comma""]",0,[0.2688999999761563],91,0,91,0,1
,,,,,,610838a0f1ffc75feae4bdc5,,,,,,610838a0f1ffc75feae4bdc5,Kobieta,24,2021-09-06_19h00.09.083,rantool2,2021.1.4,Win32,59.80503558,6135e006383e6ea6c3d06a28,613648dbb5fcd7529008ebf8,,"[""period""]",0,[0.3125],92,0,92,0,1
,,,,,,610838a0f1ffc75feae4bdc5,,,,,,610838a0f1ffc75feae4bdc5,Kobieta,24,2021-09-06_19h00.09.083,rantool2,2021.1.4,Win32,59.80503558,6135e006383e6ea6c3d06a28,613648dbb5fcd7529008ebf8,,"[""comma""]",0,[0.4816000000238887],93,0,93,0,1
,,,,,,610838a0f1ffc75feae4bdc5,,,,,,610838a0f1ffc75feae4bdc5,Kobieta,24,2021-09-06_19h00.09.083,rantool2,2021.1.4,Win32,59.80503558,6135e006383e6ea6c3d06a28,613648dbb5fcd7529008ebf8,,"[""period""]",0,[0.3019999999999641],94,0,94,0,1
,,,,,,610838a0f1ffc75feae4bdc5,,,,,,610838a0f1ffc75feae4bdc5,Kobieta,24,2021-09-06_19h00.09.083,rantool2,2021.1.4,Win32,59.80503558,6135e006383e6ea6c3d06a28,613648dbb5fcd7529008ebf8,,"[""period""]",0,[0.31940000000599866],95,0,95,0,1
,,,,,,610838a0f1ffc75feae4bdc5,,,,,,610838a0f1ffc75feae4bdc5,Kobieta,24,2021-09-06_19h00.09.083,rantool2,2021.1.4,Win32,59.80503558,6135e006383e6ea6c3d06a28,613648dbb5fcd7529008ebf8,,"[""period""]",0,[0.2884000000059359],96,0,96,0,1
,,,,,,610838a0f1ffc75feae4bdc5,,,,,,610838a0f1ffc75feae4bdc5,Kobieta,24,2021-09-06_19h00.09.083,rantool2,2021.1.4,Win32,59.80503558,6135e006383e6ea6c3d06a28,613648dbb5fcd7529008ebf8,,"[""period""]",0,[0.27080000001188864],97,0,97,0,1
,,,,,,610838a0f1ffc75feae4bdc5,,,,,,610838a0f1ffc75feae4bdc5,Kobieta,24,2021-09-06_19h00.09.083,rantool2,2021.1.4,Win32,59.80503558,6135e006383e6ea6c3d06a28,613648dbb5fcd7529008ebf8,,"[""period""]",0,[0.29460000002382003],98,0,98,0,1
,,,,,,610838a0f1ffc75feae4bdc5,,,,,,610838a0f1ffc75feae4bdc5,Kobieta,24,2021-09-06_19h00.09.083,rantool2,2021.1.4,Win32,59.80503558,6135e006383e6ea6c3d06a28,613648dbb5fcd7529008ebf8,,"[""period""]",0,[0.16890000000591954],99,0,99,0,1
,,,,,,610838a0f1ffc75feae4bdc5,,,,,,610838a0f1ffc75feae4bdc5,Kobieta,24,2021-09-06_19h00.09.083,rantool2,2021.1.4,Win32,59.80503558,6135e006383e6ea6c3d06a28,613648dbb5fcd7529008ebf8,,"[""comma""]",0,[0.286700000017845],100,0,100,0,1
,,,,,,610838a0f1ffc75feae4bdc5,,,,,,610838a0f1ffc75feae4bdc5,Kobieta,24,2021-09-06_19h00.09.083,rantool2,2021.1.4,Win32,59.80503558,6135e006383e6ea6c3d06a28,613648dbb5fcd7529008ebf8,,"[""period""]",0,[0.3864000000059491],101,0,101,0,1
,,,,,,610838a0f1ffc75feae4bdc5,,,,,,610838a0f1ffc75feae4bdc5,Kobieta,24,2021-09-06_19h00.09.083,rantool2,2021.1.4,Win32,59.80503558,6135e006383e6ea6c3d06a28,613648dbb5fcd7529008ebf8,,"[""comma""]",0,[0.30190000000595774],102,0,102,0,1
,,,,,,610838a0f1ffc75feae4bdc5,,,,,,610838a0f1ffc75feae4bdc5,Kobieta,24,2021-09-06_19h00.09.083,rantool2,2021.1.4,Win32,59.80503558,6135e006383e6ea6c3d06a28,613648dbb5fcd7529008ebf8,,"[""period""]",0,[0.25479999998214],103,0,103,0,1
,,,,,,610838a0f1ffc75feae4bdc5,,,,,,610838a0f1ffc75feae4bdc5,Kobieta,24,2021-09-06_19h00.09.083,rantool2,2021.1.4,Win32,59.80503558,6135e006383e6ea6c3d06a28,613648dbb5fcd7529008ebf8,,"[""comma""]",0,[0.28509999999403135],104,0,104,0,1
,,,,,,610838a0f1ffc75feae4bdc5,,,,,,610838a0f1ffc75feae4bdc5,Kobieta,24,2021-09-06_19h00.09.083,rantool2,2021.1.4,Win32,59.80503558,6135e006383e6ea6c3d06a28,613648dbb5fcd7529008ebf8,,"[""period""]",0,[0.28529999998210087],105,0,105,0,1
,,,,,,610838a0f1ffc75feae4bdc5,,,,,,610838a0f1ffc75feae4bdc5,Kobieta,24,2021-09-06_19h00.09.083,rantool2,2021.1.4,Win32,59.80503558,6135e006383e6ea6c3d06a28,613648dbb5fcd7529008ebf8,,"[""period""]",0,[0.4175000000000182],106,0,106,0,1
,,,,,,610838a0f1ffc75feae4bdc5,,,,,,610838a0f1ffc75feae4bdc5,Kobieta,24,2021-09-06_19h00.09.083,rantool2,2021.1.4,Win32,59.80503558,6135e006383e6ea6c3d06a28,613648dbb5fcd7529008ebf8,,"[""comma""]",0,[0.010099999994054087],107,0,107,0,1
,,,,,,610838a0f1ffc75feae4bdc5,,,,,,610838a0f1ffc75feae4bdc5,Kobieta,24,2021-09-06_19h00.09.083,rantool2,2021.1.4,Win32,59.80503558,6135e006383e6ea6c3d06a28,613648dbb5fcd7529008ebf8,,"[""period""]",0,[0.2670999999940591],108,0,108,0,1
,,,,,,610838a0f1ffc75feae4bdc5,,,,,,610838a0f1ffc75feae4bdc5,Kobieta,24,2021-09-06_19h00.09.083,rantool2,2021.1.4,Win32,59.80503558,6135e006383e6ea6c3d06a28,613648dbb5fcd7529008ebf8,,"[""comma"",""period""]",0,"[0.15449999999998454,1.8489999999999895]",109,0,109,0,1
,,,,,,610838a0f1ffc75feae4bdc5,,,,,,610838a0f1ffc75feae4bdc5,Kobieta,24,2021-09-06_19h00.09.083,rantool2,2021.1.4,Win32,59.80503558,6135e006383e6ea6c3d06a28,613648dbb5fcd7529008ebf8,,0,0,,110,0,110,0,1
,,,,,,610838a0f1ffc75feae4bdc5,,,,,,610838a0f1ffc75feae4bdc5,Kobieta,24,2021-09-06_19h00.09.083,rantool2,2021.1.4,Win32,59.80503558,6135e006383e6ea6c3d06a28,613648dbb5fcd7529008ebf8,,"[""comma""]",0,[0.2707000000178823],111,0,111,0,1
,,,,,,610838a0f1ffc75feae4bdc5,,,,,,610838a0f1ffc75feae4bdc5,Kobieta,24,2021-09-06_19h00.09.083,rantool2,2021.1.4,Win32,59.80503558,6135e006383e6ea6c3d06a28,613648dbb5fcd7529008ebf8,,"[""comma""]",0,[0.37090000000597456],112,0,112,0,1
,,,,,,610838a0f1ffc75feae4bdc5,,,,,,610838a0f1ffc75feae4bdc5,Kobieta,24,2021-09-06_19h00.09.083,rantool2,2021.1.4,Win32,59.80503558,6135e006383e6ea6c3d06a28,613648dbb5fcd7529008ebf8,,"[""period""]",0,[0.31759999999405863],113,0,113,0,1
,,,,,,610838a0f1ffc75feae4bdc5,,,,,,610838a0f1ffc75feae4bdc5,Kobieta,24,2021-09-06_19h00.09.083,rantool2,2021.1.4,Win32,59.80503558,6135e006383e6ea6c3d06a28,613648dbb5fcd7529008ebf8,,"[""period""]",0,[0.304599999994025],114,0,114,0,1
,,,,,,610838a0f1ffc75feae4bdc5,,,,,,610838a0f1ffc75feae4bdc5,Kobieta,24,2021-09-06_19h00.09.083,rantool2,2021.1.4,Win32,59.80503558,6135e006383e6ea6c3d06a28,613648dbb5fcd7529008ebf8,,"[""comma""]",0,[0.3170000000000073],115,0,115,0,1
,,,,,,610838a0f1ffc75feae4bdc5,,,,,,610838a0f1ffc75feae4bdc5,Kobieta,24,2021-09-06_19h00.09.083,rantool2,2021.1.4,Win32,59.80503558,6135e006383e6ea6c3d06a28,613648dbb5fcd7529008ebf8,,"[""period""]",0,[0.23519999998808316],116,0,116,0,1
,,,,,,610838a0f1ffc75feae4bdc5,,,,,,610838a0f1ffc75feae4bdc5,Kobieta,24,2021-09-06_19h00.09.083,rantool2,2021.1.4,Win32,59.80503558,6135e006383e6ea6c3d06a28,613648dbb5fcd7529008ebf8,,"[""period""]",0,[0.27710000002383595],117,0,117,0,1
,,,,,,610838a0f1ffc75feae4bdc5,,,,,,610838a0f1ffc75feae4bdc5,Kobieta,24,2021-09-06_19h00.09.083,rantool2,2021.1.4,Win32,59.80503558,6135e006383e6ea6c3d06a28,613648dbb5fcd7529008ebf8,,"[""period""]",0,[0.3534999999999968],118,0,118,0,1
,,,,,,610838a0f1ffc75feae4bdc5,,,,,,610838a0f1ffc75feae4bdc5,Kobieta,24,2021-09-06_19h00.09.083,rantool2,2021.1.4,Win32,59.80503558,6135e006383e6ea6c3d06a28,613648dbb5fcd7529008ebf8,,"[""comma""]",0,[0.34990000000595955],119,0,119,0,1
