key_resp_5.keys,key_resp_5.corr,key_resp_5.rt,trials.thisRepN,trials.thisTrialN,trials.thisN,trials.thisIndex,trials.ran,id*,Płeć*,Wiek*,date,expName,psychopyVersion,OS,frameRate,id,STUDY_ID,SESSION_ID,key_resp_7.keys,key_resp_7.rt,trials_2.thisRepN,trials_2.thisTrialN,trials_2.thisN,trials_2.thisIndex,trials_2.ran,series_0,series_1,acss_0,acss_1,comparison
0,,,0,0,0,0,1,5e33544f6d19d831e20e0e07,Mężczyzna,21,2021-07-13_22h12.30.026,rantool2,2021.1.4,Win32,143.6781609,5e33544f6d19d831e20e0e07,60d9d14f4a8a35a482e0d9bf,60edf1443b2b838b063233ee,,,,,,,,,,,,
"[""comma"",""period""]",0,"[0.26599999999999824,1.1139999999999972]",1,0,1,0,1,5e33544f6d19d831e20e0e07,Mężczyzna,21,2021-07-13_22h12.30.026,rantool2,2021.1.4,Win32,143.6781609,5e33544f6d19d831e20e0e07,60d9d14f4a8a35a482e0d9bf,60edf1443b2b838b063233ee,,,,,,,,,,,,
"[""comma""]",0,[0.2429999999999879],2,0,2,0,1,5e33544f6d19d831e20e0e07,Mężczyzna,21,2021-07-13_22h12.30.026,rantool2,2021.1.4,Win32,143.6781609,5e33544f6d19d831e20e0e07,60d9d14f4a8a35a482e0d9bf,60edf1443b2b838b063233ee,,,,,,,,,,,,
"[""period""]",0,[0.2819999999999965],3,0,3,0,1,5e33544f6d19d831e20e0e07,Mężczyzna,21,2021-07-13_22h12.30.026,rantool2,2021.1.4,Win32,143.6781609,5e33544f6d19d831e20e0e07,60d9d14f4a8a35a482e0d9bf,60edf1443b2b838b063233ee,,,,,,,,,,,,
"[""period""]",0,[0.24200000000000443],4,0,4,0,1,5e33544f6d19d831e20e0e07,Mężczyzna,21,2021-07-13_22h12.30.026,rantool2,2021.1.4,Win32,143.6781609,5e33544f6d19d831e20e0e07,60d9d14f4a8a35a482e0d9bf,60edf1443b2b838b063233ee,,,,,,,,,,,,
"[""period""]",0,[0.23399999999999466],5,0,5,0,1,5e33544f6d19d831e20e0e07,Mężczyzna,21,2021-07-13_22h12.30.026,rantool2,2021.1.4,Win32,143.6781609,5e33544f6d19d831e20e0e07,60d9d14f4a8a35a482e0d9bf,60edf1443b2b838b063233ee,,,,,,,,,,,,
"[""comma""]",0,[0.21699999999999875],6,0,6,0,1,5e33544f6d19d831e20e0e07,Mężczyzna,21,2021-07-13_22h12.30.026,rantool2,2021.1.4,Win32,143.6781609,5e33544f6d19d831e20e0e07,60d9d14f4a8a35a482e0d9bf,60edf1443b2b838b063233ee,,,,,,,,,,,,
"[""comma""]",0,[0.2510000000000048],7,0,7,0,1,5e33544f6d19d831e20e0e07,Mężczyzna,21,2021-07-13_22h12.30.026,rantool2,2021.1.4,Win32,143.6781609,5e33544f6d19d831e20e0e07,60d9d14f4a8a35a482e0d9bf,60edf1443b2b838b063233ee,,,,,,,,,,,,
"[""period""]",0,[0.24200000000000443],8,0,8,0,1,5e33544f6d19d831e20e0e07,Mężczyzna,21,2021-07-13_22h12.30.026,rantool2,2021.1.4,Win32,143.6781609,5e33544f6d19d831e20e0e07,60d9d14f4a8a35a482e0d9bf,60edf1443b2b838b063233ee,,,,,,,,,,,,
"[""comma""]",0,[0.27299999999999613],9,0,9,0,1,5e33544f6d19d831e20e0e07,Mężczyzna,21,2021-07-13_22h12.30.026,rantool2,2021.1.4,Win32,143.6781609,5e33544f6d19d831e20e0e07,60d9d14f4a8a35a482e0d9bf,60edf1443b2b838b063233ee,,,,,,,,,,,,
"[""period""]",0,[0.22499999999999432],10,0,10,0,1,5e33544f6d19d831e20e0e07,Mężczyzna,21,2021-07-13_22h12.30.026,rantool2,2021.1.4,Win32,143.6781609,5e33544f6d19d831e20e0e07,60d9d14f4a8a35a482e0d9bf,60edf1443b2b838b063233ee,,,,,,,,,,,,
"[""comma"",""comma""]",0,"[0,1.8489999999999895]",11,0,11,0,1,5e33544f6d19d831e20e0e07,Mężczyzna,21,2021-07-13_22h12.30.026,rantool2,2021.1.4,Win32,143.6781609,5e33544f6d19d831e20e0e07,60d9d14f4a8a35a482e0d9bf,60edf1443b2b838b063233ee,,,,,,,,,,,,
"[""comma""]",0,[0.3859999999999957],12,0,12,0,1,5e33544f6d19d831e20e0e07,Mężczyzna,21,2021-07-13_22h12.30.026,rantool2,2021.1.4,Win32,143.6781609,5e33544f6d19d831e20e0e07,60d9d14f4a8a35a482e0d9bf,60edf1443b2b838b063233ee,,,,,,,,,,,,
"[""comma""]",0,[0.22499999999999432],13,0,13,0,1,5e33544f6d19d831e20e0e07,Mężczyzna,21,2021-07-13_22h12.30.026,rantool2,2021.1.4,Win32,143.6781609,5e33544f6d19d831e20e0e07,60d9d14f4a8a35a482e0d9bf,60edf1443b2b838b063233ee,,,,,,,,,,,,
"[""comma"",""comma""]",0,"[0.025000000000005684,1.793999999999997]",14,0,14,0,1,5e33544f6d19d831e20e0e07,Mężczyzna,21,2021-07-13_22h12.30.026,rantool2,2021.1.4,Win32,143.6781609,5e33544f6d19d831e20e0e07,60d9d14f4a8a35a482e0d9bf,60edf1443b2b838b063233ee,,,,,,,,,,,,
"[""period""]",0,[1.3460000000000036],15,0,15,0,1,5e33544f6d19d831e20e0e07,Mężczyzna,21,2021-07-13_22h12.30.026,rantool2,2021.1.4,Win32,143.6781609,5e33544f6d19d831e20e0e07,60d9d14f4a8a35a482e0d9bf,60edf1443b2b838b063233ee,,,,,,,,,,,,
"[""comma""]",0,[1.8729999999999905],16,0,16,0,1,5e33544f6d19d831e20e0e07,Mężczyzna,21,2021-07-13_22h12.30.026,rantool2,2021.1.4,Win32,143.6781609,5e33544f6d19d831e20e0e07,60d9d14f4a8a35a482e0d9bf,60edf1443b2b838b063233ee,,,,,,,,,,,,
"[""period""]",0,[1.8259999999999934],17,0,17,0,1,5e33544f6d19d831e20e0e07,Mężczyzna,21,2021-07-13_22h12.30.026,rantool2,2021.1.4,Win32,143.6781609,5e33544f6d19d831e20e0e07,60d9d14f4a8a35a482e0d9bf,60edf1443b2b838b063233ee,,,,,,,,,,,,
"[""comma""]",0,[1.7680000000000007],18,0,18,0,1,5e33544f6d19d831e20e0e07,Mężczyzna,21,2021-07-13_22h12.30.026,rantool2,2021.1.4,Win32,143.6781609,5e33544f6d19d831e20e0e07,60d9d14f4a8a35a482e0d9bf,60edf1443b2b838b063233ee,,,,,,,,,,,,
"[""period""]",0,[1.1620000000000061],19,0,19,0,1,5e33544f6d19d831e20e0e07,Mężczyzna,21,2021-07-13_22h12.30.026,rantool2,2021.1.4,Win32,143.6781609,5e33544f6d19d831e20e0e07,60d9d14f4a8a35a482e0d9bf,60edf1443b2b838b063233ee,,,,,,,,,,,,
"[""period""]",0,[0.6559999999999917],20,0,20,0,1,5e33544f6d19d831e20e0e07,Mężczyzna,21,2021-07-13_22h12.30.026,rantool2,2021.1.4,Win32,143.6781609,5e33544f6d19d831e20e0e07,60d9d14f4a8a35a482e0d9bf,60edf1443b2b838b063233ee,,,,,,,,,,,,
"[""comma""]",0,[0.43200000000000216],21,0,21,0,1,5e33544f6d19d831e20e0e07,Mężczyzna,21,2021-07-13_22h12.30.026,rantool2,2021.1.4,Win32,143.6781609,5e33544f6d19d831e20e0e07,60d9d14f4a8a35a482e0d9bf,60edf1443b2b838b063233ee,,,,,,,,,,,,
"[""period""]",0,[0.2890000000000015],22,0,22,0,1,5e33544f6d19d831e20e0e07,Mężczyzna,21,2021-07-13_22h12.30.026,rantool2,2021.1.4,Win32,143.6781609,5e33544f6d19d831e20e0e07,60d9d14f4a8a35a482e0d9bf,60edf1443b2b838b063233ee,,,,,,,,,,,,
"[""comma""]",0,[0.2639999999999958],23,0,23,0,1,5e33544f6d19d831e20e0e07,Mężczyzna,21,2021-07-13_22h12.30.026,rantool2,2021.1.4,Win32,143.6781609,5e33544f6d19d831e20e0e07,60d9d14f4a8a35a482e0d9bf,60edf1443b2b838b063233ee,,,,,,,,,,,,
"[""period""]",0,[0.22399999999998954],24,0,24,0,1,5e33544f6d19d831e20e0e07,Mężczyzna,21,2021-07-13_22h12.30.026,rantool2,2021.1.4,Win32,143.6781609,5e33544f6d19d831e20e0e07,60d9d14f4a8a35a482e0d9bf,60edf1443b2b838b063233ee,,,,,,,,,,,,
"[""period""]",0,[0.24799999999999045],25,0,25,0,1,5e33544f6d19d831e20e0e07,Mężczyzna,21,2021-07-13_22h12.30.026,rantool2,2021.1.4,Win32,143.6781609,5e33544f6d19d831e20e0e07,60d9d14f4a8a35a482e0d9bf,60edf1443b2b838b063233ee,,,,,,,,,,,,
"[""comma""]",0,[0.9849999999999994],26,0,26,0,1,5e33544f6d19d831e20e0e07,Mężczyzna,21,2021-07-13_22h12.30.026,rantool2,2021.1.4,Win32,143.6781609,5e33544f6d19d831e20e0e07,60d9d14f4a8a35a482e0d9bf,60edf1443b2b838b063233ee,,,,,,,,,,,,
"[""period""]",0,[0.5450000000000017],27,0,27,0,1,5e33544f6d19d831e20e0e07,Mężczyzna,21,2021-07-13_22h12.30.026,rantool2,2021.1.4,Win32,143.6781609,5e33544f6d19d831e20e0e07,60d9d14f4a8a35a482e0d9bf,60edf1443b2b838b063233ee,,,,,,,,,,,,
"[""period"",""comma""]",0,"[0.3359999999999985,1.8489999999999895]",28,0,28,0,1,5e33544f6d19d831e20e0e07,Mężczyzna,21,2021-07-13_22h12.30.026,rantool2,2021.1.4,Win32,143.6781609,5e33544f6d19d831e20e0e07,60d9d14f4a8a35a482e0d9bf,60edf1443b2b838b063233ee,,,,,,,,,,,,
"[""comma""]",0,[1.9609999999999985],29,0,29,0,1,5e33544f6d19d831e20e0e07,Mężczyzna,21,2021-07-13_22h12.30.026,rantool2,2021.1.4,Win32,143.6781609,5e33544f6d19d831e20e0e07,60d9d14f4a8a35a482e0d9bf,60edf1443b2b838b063233ee,,,,,,,,,,,,
0,0,,30,0,30,0,1,5e33544f6d19d831e20e0e07,Mężczyzna,21,2021-07-13_22h12.30.026,rantool2,2021.1.4,Win32,143.6781609,5e33544f6d19d831e20e0e07,60d9d14f4a8a35a482e0d9bf,60edf1443b2b838b063233ee,,,,,,,,,,,,
"[""period""]",0,[0.2879999999999967],31,0,31,0,1,5e33544f6d19d831e20e0e07,Mężczyzna,21,2021-07-13_22h12.30.026,rantool2,2021.1.4,Win32,143.6781609,5e33544f6d19d831e20e0e07,60d9d14f4a8a35a482e0d9bf,60edf1443b2b838b063233ee,,,,,,,,,,,,
"[""period""]",0,[0.26500000000000057],32,0,32,0,1,5e33544f6d19d831e20e0e07,Mężczyzna,21,2021-07-13_22h12.30.026,rantool2,2021.1.4,Win32,143.6781609,5e33544f6d19d831e20e0e07,60d9d14f4a8a35a482e0d9bf,60edf1443b2b838b063233ee,,,,,,,,,,,,
"[""period""]",0,[0.2890000000000015],33,0,33,0,1,5e33544f6d19d831e20e0e07,Mężczyzna,21,2021-07-13_22h12.30.026,rantool2,2021.1.4,Win32,143.6781609,5e33544f6d19d831e20e0e07,60d9d14f4a8a35a482e0d9bf,60edf1443b2b838b063233ee,,,,,,,,,,,,
"[""period""]",0,[0.28000000000000114],34,0,34,0,1,5e33544f6d19d831e20e0e07,Mężczyzna,21,2021-07-13_22h12.30.026,rantool2,2021.1.4,Win32,143.6781609,5e33544f6d19d831e20e0e07,60d9d14f4a8a35a482e0d9bf,60edf1443b2b838b063233ee,,,,,,,,,,,,
"[""comma""]",0,[0.22500000000002274],35,0,35,0,1,5e33544f6d19d831e20e0e07,Mężczyzna,21,2021-07-13_22h12.30.026,rantool2,2021.1.4,Win32,143.6781609,5e33544f6d19d831e20e0e07,60d9d14f4a8a35a482e0d9bf,60edf1443b2b838b063233ee,,,,,,,,,,,,
"[""comma""]",0,[0.19900000000001228],36,0,36,0,1,5e33544f6d19d831e20e0e07,Mężczyzna,21,2021-07-13_22h12.30.026,rantool2,2021.1.4,Win32,143.6781609,5e33544f6d19d831e20e0e07,60d9d14f4a8a35a482e0d9bf,60edf1443b2b838b063233ee,,,,,,,,,,,,
"[""comma""]",0,[0.21600000000000819],37,0,37,0,1,5e33544f6d19d831e20e0e07,Mężczyzna,21,2021-07-13_22h12.30.026,rantool2,2021.1.4,Win32,143.6781609,5e33544f6d19d831e20e0e07,60d9d14f4a8a35a482e0d9bf,60edf1443b2b838b063233ee,,,,,,,,,,,,
"[""period""]",0,[0.3440000000000225],38,0,38,0,1,5e33544f6d19d831e20e0e07,Mężczyzna,21,2021-07-13_22h12.30.026,rantool2,2021.1.4,Win32,143.6781609,5e33544f6d19d831e20e0e07,60d9d14f4a8a35a482e0d9bf,60edf1443b2b838b063233ee,,,,,,,,,,,,
"[""period""]",0,[0.29599999999999227],39,0,39,0,1,5e33544f6d19d831e20e0e07,Mężczyzna,21,2021-07-13_22h12.30.026,rantool2,2021.1.4,Win32,143.6781609,5e33544f6d19d831e20e0e07,60d9d14f4a8a35a482e0d9bf,60edf1443b2b838b063233ee,,,,,,,,,,,,
"[""comma"",""comma"",""comma""]",0,"[0.3130000000000166,0.6640000000000157,0.8319999999999936]",40,0,40,0,1,5e33544f6d19d831e20e0e07,Mężczyzna,21,2021-07-13_22h12.30.026,rantool2,2021.1.4,Win32,143.6781609,5e33544f6d19d831e20e0e07,60d9d14f4a8a35a482e0d9bf,60edf1443b2b838b063233ee,,,,,,,,,,,,
"[""comma"",""period""]",0,"[0.2400000000000091,1.936000000000007]",41,0,41,0,1,5e33544f6d19d831e20e0e07,Mężczyzna,21,2021-07-13_22h12.30.026,rantool2,2021.1.4,Win32,143.6781609,5e33544f6d19d831e20e0e07,60d9d14f4a8a35a482e0d9bf,60edf1443b2b838b063233ee,,,,,,,,,,,,
0,0,,42,0,42,0,1,5e33544f6d19d831e20e0e07,Mężczyzna,21,2021-07-13_22h12.30.026,rantool2,2021.1.4,Win32,143.6781609,5e33544f6d19d831e20e0e07,60d9d14f4a8a35a482e0d9bf,60edf1443b2b838b063233ee,,,,,,,,,,,,
"[""period""]",0,[0.22400000000001796],43,0,43,0,1,5e33544f6d19d831e20e0e07,Mężczyzna,21,2021-07-13_22h12.30.026,rantool2,2021.1.4,Win32,143.6781609,5e33544f6d19d831e20e0e07,60d9d14f4a8a35a482e0d9bf,60edf1443b2b838b063233ee,,,,,,,,,,,,
"[""period""]",0,[0.25499999999999545],44,0,44,0,1,5e33544f6d19d831e20e0e07,Mężczyzna,21,2021-07-13_22h12.30.026,rantool2,2021.1.4,Win32,143.6781609,5e33544f6d19d831e20e0e07,60d9d14f4a8a35a482e0d9bf,60edf1443b2b838b063233ee,,,,,,,,,,,,
"[""comma""]",0,[0.27199999999999136],45,0,45,0,1,5e33544f6d19d831e20e0e07,Mężczyzna,21,2021-07-13_22h12.30.026,rantool2,2021.1.4,Win32,143.6781609,5e33544f6d19d831e20e0e07,60d9d14f4a8a35a482e0d9bf,60edf1443b2b838b063233ee,,,,,,,,,,,,
"[""period""]",0,[0.24800000000001887],46,0,46,0,1,5e33544f6d19d831e20e0e07,Mężczyzna,21,2021-07-13_22h12.30.026,rantool2,2021.1.4,Win32,143.6781609,5e33544f6d19d831e20e0e07,60d9d14f4a8a35a482e0d9bf,60edf1443b2b838b063233ee,,,,,,,,,,,,
"[""period""]",0,[0.2470000000000141],47,0,47,0,1,5e33544f6d19d831e20e0e07,Mężczyzna,21,2021-07-13_22h12.30.026,rantool2,2021.1.4,Win32,143.6781609,5e33544f6d19d831e20e0e07,60d9d14f4a8a35a482e0d9bf,60edf1443b2b838b063233ee,,,,,,,,,,,,
"[""comma""]",0,[0.19200000000000728],48,0,48,0,1,5e33544f6d19d831e20e0e07,Mężczyzna,21,2021-07-13_22h12.30.026,rantool2,2021.1.4,Win32,143.6781609,5e33544f6d19d831e20e0e07,60d9d14f4a8a35a482e0d9bf,60edf1443b2b838b063233ee,,,,,,,,,,,,
"[""comma""]",0,[0.25499999999999545],49,0,49,0,1,5e33544f6d19d831e20e0e07,Mężczyzna,21,2021-07-13_22h12.30.026,rantool2,2021.1.4,Win32,143.6781609,5e33544f6d19d831e20e0e07,60d9d14f4a8a35a482e0d9bf,60edf1443b2b838b063233ee,,,,,,,,,,,,
"[""period""]",0,[0.24600000000000932],50,0,50,0,1,5e33544f6d19d831e20e0e07,Mężczyzna,21,2021-07-13_22h12.30.026,rantool2,2021.1.4,Win32,143.6781609,5e33544f6d19d831e20e0e07,60d9d14f4a8a35a482e0d9bf,60edf1443b2b838b063233ee,,,,,,,,,,,,
"[""comma""]",0,[0.7599999999999909],51,0,51,0,1,5e33544f6d19d831e20e0e07,Mężczyzna,21,2021-07-13_22h12.30.026,rantool2,2021.1.4,Win32,143.6781609,5e33544f6d19d831e20e0e07,60d9d14f4a8a35a482e0d9bf,60edf1443b2b838b063233ee,,,,,,,,,,,,
"[""period""]",0,[0.30400000000000205],52,0,52,0,1,5e33544f6d19d831e20e0e07,Mężczyzna,21,2021-07-13_22h12.30.026,rantool2,2021.1.4,Win32,143.6781609,5e33544f6d19d831e20e0e07,60d9d14f4a8a35a482e0d9bf,60edf1443b2b838b063233ee,,,,,,,,,,,,
"[""comma""]",0,[0.22400000000001796],53,0,53,0,1,5e33544f6d19d831e20e0e07,Mężczyzna,21,2021-07-13_22h12.30.026,rantool2,2021.1.4,Win32,143.6781609,5e33544f6d19d831e20e0e07,60d9d14f4a8a35a482e0d9bf,60edf1443b2b838b063233ee,,,,,,,,,,,,
"[""period""]",0,[0.23799999999999955],54,0,54,0,1,5e33544f6d19d831e20e0e07,Mężczyzna,21,2021-07-13_22h12.30.026,rantool2,2021.1.4,Win32,143.6781609,5e33544f6d19d831e20e0e07,60d9d14f4a8a35a482e0d9bf,60edf1443b2b838b063233ee,,,,,,,,,,,,
"[""period""]",0,[0.6879999999999882],55,0,55,0,1,5e33544f6d19d831e20e0e07,Mężczyzna,21,2021-07-13_22h12.30.026,rantool2,2021.1.4,Win32,143.6781609,5e33544f6d19d831e20e0e07,60d9d14f4a8a35a482e0d9bf,60edf1443b2b838b063233ee,,,,,,,,,,,,
"[""comma""]",0,[0.4240000000000066],56,0,56,0,1,5e33544f6d19d831e20e0e07,Mężczyzna,21,2021-07-13_22h12.30.026,rantool2,2021.1.4,Win32,143.6781609,5e33544f6d19d831e20e0e07,60d9d14f4a8a35a482e0d9bf,60edf1443b2b838b063233ee,,,,,,,,,,,,
"[""comma""]",0,[0.9269999999999925],57,0,57,0,1,5e33544f6d19d831e20e0e07,Mężczyzna,21,2021-07-13_22h12.30.026,rantool2,2021.1.4,Win32,143.6781609,5e33544f6d19d831e20e0e07,60d9d14f4a8a35a482e0d9bf,60edf1443b2b838b063233ee,,,,,,,,,,,,
"[""period""]",0,[0.2650000000000148],58,0,58,0,1,5e33544f6d19d831e20e0e07,Mężczyzna,21,2021-07-13_22h12.30.026,rantool2,2021.1.4,Win32,143.6781609,5e33544f6d19d831e20e0e07,60d9d14f4a8a35a482e0d9bf,60edf1443b2b838b063233ee,,,,,,,,,,,,
"[""period""]",0,[0.4310000000000116],59,0,59,0,1,5e33544f6d19d831e20e0e07,Mężczyzna,21,2021-07-13_22h12.30.026,rantool2,2021.1.4,Win32,143.6781609,5e33544f6d19d831e20e0e07,60d9d14f4a8a35a482e0d9bf,60edf1443b2b838b063233ee,,,,,,,,,,,,
"[""period""]",0,[0.26400000000001],60,0,60,0,1,5e33544f6d19d831e20e0e07,Mężczyzna,21,2021-07-13_22h12.30.026,rantool2,2021.1.4,Win32,143.6781609,5e33544f6d19d831e20e0e07,60d9d14f4a8a35a482e0d9bf,60edf1443b2b838b063233ee,,,,,,,,,,,,
"[""period""]",0,[0.2779999999999916],61,0,61,0,1,5e33544f6d19d831e20e0e07,Mężczyzna,21,2021-07-13_22h12.30.026,rantool2,2021.1.4,Win32,143.6781609,5e33544f6d19d831e20e0e07,60d9d14f4a8a35a482e0d9bf,60edf1443b2b838b063233ee,,,,,,,,,,,,
"[""period""]",0,[0.24600000000000932],62,0,62,0,1,5e33544f6d19d831e20e0e07,Mężczyzna,21,2021-07-13_22h12.30.026,rantool2,2021.1.4,Win32,143.6781609,5e33544f6d19d831e20e0e07,60d9d14f4a8a35a482e0d9bf,60edf1443b2b838b063233ee,,,,,,,,,,,,
"[""comma""]",0,[0.23799999999999955],63,0,63,0,1,5e33544f6d19d831e20e0e07,Mężczyzna,21,2021-07-13_22h12.30.026,rantool2,2021.1.4,Win32,143.6781609,5e33544f6d19d831e20e0e07,60d9d14f4a8a35a482e0d9bf,60edf1443b2b838b063233ee,,,,,,,,,,,,
"[""comma"",""period""]",0,"[0.2150000000000034,0.5660000000000025]",64,0,64,0,1,5e33544f6d19d831e20e0e07,Mężczyzna,21,2021-07-13_22h12.30.026,rantool2,2021.1.4,Win32,143.6781609,5e33544f6d19d831e20e0e07,60d9d14f4a8a35a482e0d9bf,60edf1443b2b838b063233ee,,,,,,,,,,,,
"[""period""]",0,[0.2949999999999875],65,0,65,0,1,5e33544f6d19d831e20e0e07,Mężczyzna,21,2021-07-13_22h12.30.026,rantool2,2021.1.4,Win32,143.6781609,5e33544f6d19d831e20e0e07,60d9d14f4a8a35a482e0d9bf,60edf1443b2b838b063233ee,,,,,,,,,,,,
"[""comma""]",0,[0.3269999999999982],66,0,66,0,1,5e33544f6d19d831e20e0e07,Mężczyzna,21,2021-07-13_22h12.30.026,rantool2,2021.1.4,Win32,143.6781609,5e33544f6d19d831e20e0e07,60d9d14f4a8a35a482e0d9bf,60edf1443b2b838b063233ee,,,,,,,,,,,,
"[""period"",""period""]",0,"[0.2230000000000132,0.710000000000008]",67,0,67,0,1,5e33544f6d19d831e20e0e07,Mężczyzna,21,2021-07-13_22h12.30.026,rantool2,2021.1.4,Win32,143.6781609,5e33544f6d19d831e20e0e07,60d9d14f4a8a35a482e0d9bf,60edf1443b2b838b063233ee,,,,,,,,,,,,
"[""period""]",0,[0.17500000000001137],68,0,68,0,1,5e33544f6d19d831e20e0e07,Mężczyzna,21,2021-07-13_22h12.30.026,rantool2,2021.1.4,Win32,143.6781609,5e33544f6d19d831e20e0e07,60d9d14f4a8a35a482e0d9bf,60edf1443b2b838b063233ee,,,,,,,,,,,,
"[""comma""]",0,[0.014999999999986358],69,0,69,0,1,5e33544f6d19d831e20e0e07,Mężczyzna,21,2021-07-13_22h12.30.026,rantool2,2021.1.4,Win32,143.6781609,5e33544f6d19d831e20e0e07,60d9d14f4a8a35a482e0d9bf,60edf1443b2b838b063233ee,,,,,,,,,,,,
"[""period""]",0,[0.2939999999999827],70,0,70,0,1,5e33544f6d19d831e20e0e07,Mężczyzna,21,2021-07-13_22h12.30.026,rantool2,2021.1.4,Win32,143.6781609,5e33544f6d19d831e20e0e07,60d9d14f4a8a35a482e0d9bf,60edf1443b2b838b063233ee,,,,,,,,,,,,
"[""period""]",0,[0.13399999999998613],71,0,71,0,1,5e33544f6d19d831e20e0e07,Mężczyzna,21,2021-07-13_22h12.30.026,rantool2,2021.1.4,Win32,143.6781609,5e33544f6d19d831e20e0e07,60d9d14f4a8a35a482e0d9bf,60edf1443b2b838b063233ee,,,,,,,,,,,,
"[""comma""]",0,[0.31100000000000705],72,0,72,0,1,5e33544f6d19d831e20e0e07,Mężczyzna,21,2021-07-13_22h12.30.026,rantool2,2021.1.4,Win32,143.6781609,5e33544f6d19d831e20e0e07,60d9d14f4a8a35a482e0d9bf,60edf1443b2b838b063233ee,,,,,,,,,,,,
"[""period"",""period""]",0,"[0.08699999999998909,1.2549999999999955]",73,0,73,0,1,5e33544f6d19d831e20e0e07,Mężczyzna,21,2021-07-13_22h12.30.026,rantool2,2021.1.4,Win32,143.6781609,5e33544f6d19d831e20e0e07,60d9d14f4a8a35a482e0d9bf,60edf1443b2b838b063233ee,,,,,,,,,,,,
"[""period""]",0,[0.5010000000000048],74,0,74,0,1,5e33544f6d19d831e20e0e07,Mężczyzna,21,2021-07-13_22h12.30.026,rantool2,2021.1.4,Win32,143.6781609,5e33544f6d19d831e20e0e07,60d9d14f4a8a35a482e0d9bf,60edf1443b2b838b063233ee,,,,,,,,,,,,
"[""period""]",0,[0.06399999999999295],75,0,75,0,1,5e33544f6d19d831e20e0e07,Mężczyzna,21,2021-07-13_22h12.30.026,rantool2,2021.1.4,Win32,143.6781609,5e33544f6d19d831e20e0e07,60d9d14f4a8a35a482e0d9bf,60edf1443b2b838b063233ee,,,,,,,,,,,,
"[""comma""]",0,[0.22999999999998977],76,0,76,0,1,5e33544f6d19d831e20e0e07,Mężczyzna,21,2021-07-13_22h12.30.026,rantool2,2021.1.4,Win32,143.6781609,5e33544f6d19d831e20e0e07,60d9d14f4a8a35a482e0d9bf,60edf1443b2b838b063233ee,,,,,,,,,,,,
"[""period""]",0,[0.34199999999998454],77,0,77,0,1,5e33544f6d19d831e20e0e07,Mężczyzna,21,2021-07-13_22h12.30.026,rantool2,2021.1.4,Win32,143.6781609,5e33544f6d19d831e20e0e07,60d9d14f4a8a35a482e0d9bf,60edf1443b2b838b063233ee,,,,,,,,,,,,
"[""comma""]",0,[0.2939999999999827],78,0,78,0,1,5e33544f6d19d831e20e0e07,Mężczyzna,21,2021-07-13_22h12.30.026,rantool2,2021.1.4,Win32,143.6781609,5e33544f6d19d831e20e0e07,60d9d14f4a8a35a482e0d9bf,60edf1443b2b838b063233ee,,,,,,,,,,,,
"[""period""]",0,[0.2779999999999916],79,0,79,0,1,5e33544f6d19d831e20e0e07,Mężczyzna,21,2021-07-13_22h12.30.026,rantool2,2021.1.4,Win32,143.6781609,5e33544f6d19d831e20e0e07,60d9d14f4a8a35a482e0d9bf,60edf1443b2b838b063233ee,,,,,,,,,,,,
"[""period""]",0,[0.23099999999999454],80,0,80,0,1,5e33544f6d19d831e20e0e07,Mężczyzna,21,2021-07-13_22h12.30.026,rantool2,2021.1.4,Win32,143.6781609,5e33544f6d19d831e20e0e07,60d9d14f4a8a35a482e0d9bf,60edf1443b2b838b063233ee,,,,,,,,,,,,
"[""comma""]",0,[0.38999999999998636],81,0,81,0,1,5e33544f6d19d831e20e0e07,Mężczyzna,21,2021-07-13_22h12.30.026,rantool2,2021.1.4,Win32,143.6781609,5e33544f6d19d831e20e0e07,60d9d14f4a8a35a482e0d9bf,60edf1443b2b838b063233ee,,,,,,,,,,,,
"[""comma"",""period""]",0,"[0.27000000000001023,1.9749999999999943]",82,0,82,0,1,5e33544f6d19d831e20e0e07,Mężczyzna,21,2021-07-13_22h12.30.026,rantool2,2021.1.4,Win32,143.6781609,5e33544f6d19d831e20e0e07,60d9d14f4a8a35a482e0d9bf,60edf1443b2b838b063233ee,,,,,,,,,,,,
0,0,,83,0,83,0,1,5e33544f6d19d831e20e0e07,Mężczyzna,21,2021-07-13_22h12.30.026,rantool2,2021.1.4,Win32,143.6781609,5e33544f6d19d831e20e0e07,60d9d14f4a8a35a482e0d9bf,60edf1443b2b838b063233ee,,,,,,,,,,,,
"[""comma""]",0,[0.28600000000000136],84,0,84,0,1,5e33544f6d19d831e20e0e07,Mężczyzna,21,2021-07-13_22h12.30.026,rantool2,2021.1.4,Win32,143.6781609,5e33544f6d19d831e20e0e07,60d9d14f4a8a35a482e0d9bf,60edf1443b2b838b063233ee,,,,,,,,,,,,
"[""period""]",0,[0.3009999999999877],85,0,85,0,1,5e33544f6d19d831e20e0e07,Mężczyzna,21,2021-07-13_22h12.30.026,rantool2,2021.1.4,Win32,143.6781609,5e33544f6d19d831e20e0e07,60d9d14f4a8a35a482e0d9bf,60edf1443b2b838b063233ee,,,,,,,,,,,,
"[""comma""]",0,[0.22999999999998977],86,0,86,0,1,5e33544f6d19d831e20e0e07,Mężczyzna,21,2021-07-13_22h12.30.026,rantool2,2021.1.4,Win32,143.6781609,5e33544f6d19d831e20e0e07,60d9d14f4a8a35a482e0d9bf,60edf1443b2b838b063233ee,,,,,,,,,,,,
"[""period""]",0,[0.27899999999999636],87,0,87,0,1,5e33544f6d19d831e20e0e07,Mężczyzna,21,2021-07-13_22h12.30.026,rantool2,2021.1.4,Win32,143.6781609,5e33544f6d19d831e20e0e07,60d9d14f4a8a35a482e0d9bf,60edf1443b2b838b063233ee,,,,,,,,,,,,
"[""comma""]",0,[0.2939999999999827],88,0,88,0,1,5e33544f6d19d831e20e0e07,Mężczyzna,21,2021-07-13_22h12.30.026,rantool2,2021.1.4,Win32,143.6781609,5e33544f6d19d831e20e0e07,60d9d14f4a8a35a482e0d9bf,60edf1443b2b838b063233ee,,,,,,,,,,,,
"[""period""]",0,[0.3089999999999975],89,0,89,0,1,5e33544f6d19d831e20e0e07,Mężczyzna,21,2021-07-13_22h12.30.026,rantool2,2021.1.4,Win32,143.6781609,5e33544f6d19d831e20e0e07,60d9d14f4a8a35a482e0d9bf,60edf1443b2b838b063233ee,,,,,,,,,,,,
"[""comma""]",0,[0.3340000000000032],90,0,90,0,1,5e33544f6d19d831e20e0e07,Mężczyzna,21,2021-07-13_22h12.30.026,rantool2,2021.1.4,Win32,143.6781609,5e33544f6d19d831e20e0e07,60d9d14f4a8a35a482e0d9bf,60edf1443b2b838b063233ee,,,,,,,,,,,,
"[""period""]",0,[0.26200000000000045],91,0,91,0,1,5e33544f6d19d831e20e0e07,Mężczyzna,21,2021-07-13_22h12.30.026,rantool2,2021.1.4,Win32,143.6781609,5e33544f6d19d831e20e0e07,60d9d14f4a8a35a482e0d9bf,60edf1443b2b838b063233ee,,,,,,,,,,,,
"[""period""]",0,[0.2849999999999966],92,0,92,0,1,5e33544f6d19d831e20e0e07,Mężczyzna,21,2021-07-13_22h12.30.026,rantool2,2021.1.4,Win32,143.6781609,5e33544f6d19d831e20e0e07,60d9d14f4a8a35a482e0d9bf,60edf1443b2b838b063233ee,,,,,,,,,,,,
"[""period""]",0,[0.24300000000002342],93,0,93,0,1,5e33544f6d19d831e20e0e07,Mężczyzna,21,2021-07-13_22h12.30.026,rantool2,2021.1.4,Win32,143.6781609,5e33544f6d19d831e20e0e07,60d9d14f4a8a35a482e0d9bf,60edf1443b2b838b063233ee,,,,,,,,,,,,
"[""period""]",0,[0.22100000000000364],94,0,94,0,1,5e33544f6d19d831e20e0e07,Mężczyzna,21,2021-07-13_22h12.30.026,rantool2,2021.1.4,Win32,143.6781609,5e33544f6d19d831e20e0e07,60d9d14f4a8a35a482e0d9bf,60edf1443b2b838b063233ee,,,,,,,,,,,,
"[""period""]",0,[0.2599999999999909],95,0,95,0,1,5e33544f6d19d831e20e0e07,Mężczyzna,21,2021-07-13_22h12.30.026,rantool2,2021.1.4,Win32,143.6781609,5e33544f6d19d831e20e0e07,60d9d14f4a8a35a482e0d9bf,60edf1443b2b838b063233ee,,,,,,,,,,,,
"[""period""]",0,[0.2220000000000084],96,0,96,0,1,5e33544f6d19d831e20e0e07,Mężczyzna,21,2021-07-13_22h12.30.026,rantool2,2021.1.4,Win32,143.6781609,5e33544f6d19d831e20e0e07,60d9d14f4a8a35a482e0d9bf,60edf1443b2b838b063233ee,,,,,,,,,,,,
"[""period""]",0,[0.28600000000000136],97,0,97,0,1,5e33544f6d19d831e20e0e07,Mężczyzna,21,2021-07-13_22h12.30.026,rantool2,2021.1.4,Win32,143.6781609,5e33544f6d19d831e20e0e07,60d9d14f4a8a35a482e0d9bf,60edf1443b2b838b063233ee,,,,,,,,,,,,
"[""period""]",0,[0.294000000000068],98,0,98,0,1,5e33544f6d19d831e20e0e07,Mężczyzna,21,2021-07-13_22h12.30.026,rantool2,2021.1.4,Win32,143.6781609,5e33544f6d19d831e20e0e07,60d9d14f4a8a35a482e0d9bf,60edf1443b2b838b063233ee,,,,,,,,,,,,
"[""period""]",0,[0.29300000000000637],99,0,99,0,1,5e33544f6d19d831e20e0e07,Mężczyzna,21,2021-07-13_22h12.30.026,rantool2,2021.1.4,Win32,143.6781609,5e33544f6d19d831e20e0e07,60d9d14f4a8a35a482e0d9bf,60edf1443b2b838b063233ee,,,,,,,,,,,,
"[""comma""]",0,[0.3240000000000123],100,0,100,0,1,5e33544f6d19d831e20e0e07,Mężczyzna,21,2021-07-13_22h12.30.026,rantool2,2021.1.4,Win32,143.6781609,5e33544f6d19d831e20e0e07,60d9d14f4a8a35a482e0d9bf,60edf1443b2b838b063233ee,,,,,,,,,,,,
"[""period""]",0,[0.3170000000000073],101,0,101,0,1,5e33544f6d19d831e20e0e07,Mężczyzna,21,2021-07-13_22h12.30.026,rantool2,2021.1.4,Win32,143.6781609,5e33544f6d19d831e20e0e07,60d9d14f4a8a35a482e0d9bf,60edf1443b2b838b063233ee,,,,,,,,,,,,
"[""comma""]",0,[0.19599999999996953],102,0,102,0,1,5e33544f6d19d831e20e0e07,Mężczyzna,21,2021-07-13_22h12.30.026,rantool2,2021.1.4,Win32,143.6781609,5e33544f6d19d831e20e0e07,60d9d14f4a8a35a482e0d9bf,60edf1443b2b838b063233ee,,,,,,,,,,,,
"[""comma""]",0,[0.29300000000000637],103,0,103,0,1,5e33544f6d19d831e20e0e07,Mężczyzna,21,2021-07-13_22h12.30.026,rantool2,2021.1.4,Win32,143.6781609,5e33544f6d19d831e20e0e07,60d9d14f4a8a35a482e0d9bf,60edf1443b2b838b063233ee,,,,,,,,,,,,
"[""period"",""comma""]",0,"[0.5720000000000027,0.7630000000000337]",104,0,104,0,1,5e33544f6d19d831e20e0e07,Mężczyzna,21,2021-07-13_22h12.30.026,rantool2,2021.1.4,Win32,143.6781609,5e33544f6d19d831e20e0e07,60d9d14f4a8a35a482e0d9bf,60edf1443b2b838b063233ee,,,,,,,,,,,,
"[""comma""]",0,[0.26900000000000546],105,0,105,0,1,5e33544f6d19d831e20e0e07,Mężczyzna,21,2021-07-13_22h12.30.026,rantool2,2021.1.4,Win32,143.6781609,5e33544f6d19d831e20e0e07,60d9d14f4a8a35a482e0d9bf,60edf1443b2b838b063233ee,,,,,,,,,,,,
"[""period""]",0,[0.3410000000000082],106,0,106,0,1,5e33544f6d19d831e20e0e07,Mężczyzna,21,2021-07-13_22h12.30.026,rantool2,2021.1.4,Win32,143.6781609,5e33544f6d19d831e20e0e07,60d9d14f4a8a35a482e0d9bf,60edf1443b2b838b063233ee,,,,,,,,,,,,
"[""comma""]",0,[0.28600000000000136],107,0,107,0,1,5e33544f6d19d831e20e0e07,Mężczyzna,21,2021-07-13_22h12.30.026,rantool2,2021.1.4,Win32,143.6781609,5e33544f6d19d831e20e0e07,60d9d14f4a8a35a482e0d9bf,60edf1443b2b838b063233ee,,,,,,,,,,,,
"[""comma""]",0,[0.24500000000000455],108,0,108,0,1,5e33544f6d19d831e20e0e07,Mężczyzna,21,2021-07-13_22h12.30.026,rantool2,2021.1.4,Win32,143.6781609,5e33544f6d19d831e20e0e07,60d9d14f4a8a35a482e0d9bf,60edf1443b2b838b063233ee,,,,,,,,,,,,
"[""comma""]",0,[0.35599999999999454],109,0,109,0,1,5e33544f6d19d831e20e0e07,Mężczyzna,21,2021-07-13_22h12.30.026,rantool2,2021.1.4,Win32,143.6781609,5e33544f6d19d831e20e0e07,60d9d14f4a8a35a482e0d9bf,60edf1443b2b838b063233ee,,,,,,,,,,,,
"[""period""]",0,[0.22900000000004184],110,0,110,0,1,5e33544f6d19d831e20e0e07,Mężczyzna,21,2021-07-13_22h12.30.026,rantool2,2021.1.4,Win32,143.6781609,5e33544f6d19d831e20e0e07,60d9d14f4a8a35a482e0d9bf,60edf1443b2b838b063233ee,,,,,,,,,,,,
"[""comma"",""comma""]",0,"[0.26799999999997226,1.9089999999999918]",111,0,111,0,1,5e33544f6d19d831e20e0e07,Mężczyzna,21,2021-07-13_22h12.30.026,rantool2,2021.1.4,Win32,143.6781609,5e33544f6d19d831e20e0e07,60d9d14f4a8a35a482e0d9bf,60edf1443b2b838b063233ee,,,,,,,,,,,,
0,0,,112,0,112,0,1,5e33544f6d19d831e20e0e07,Mężczyzna,21,2021-07-13_22h12.30.026,rantool2,2021.1.4,Win32,143.6781609,5e33544f6d19d831e20e0e07,60d9d14f4a8a35a482e0d9bf,60edf1443b2b838b063233ee,,,,,,,,,,,,
"[""comma""]",0,[0.21299999999996544],113,0,113,0,1,5e33544f6d19d831e20e0e07,Mężczyzna,21,2021-07-13_22h12.30.026,rantool2,2021.1.4,Win32,143.6781609,5e33544f6d19d831e20e0e07,60d9d14f4a8a35a482e0d9bf,60edf1443b2b838b063233ee,,,,,,,,,,,,
"[""comma""]",0,[0.22800000000000864],114,0,114,0,1,5e33544f6d19d831e20e0e07,Mężczyzna,21,2021-07-13_22h12.30.026,rantool2,2021.1.4,Win32,143.6781609,5e33544f6d19d831e20e0e07,60d9d14f4a8a35a482e0d9bf,60edf1443b2b838b063233ee,,,,,,,,,,,,
"[""period""]",0,[0.2909999999999968],115,0,115,0,1,5e33544f6d19d831e20e0e07,Mężczyzna,21,2021-07-13_22h12.30.026,rantool2,2021.1.4,Win32,143.6781609,5e33544f6d19d831e20e0e07,60d9d14f4a8a35a482e0d9bf,60edf1443b2b838b063233ee,,,,,,,,,,,,
"[""comma"",""period""]",0,"[0.26799999999997226,1.8360000000000127]",116,0,116,0,1,5e33544f6d19d831e20e0e07,Mężczyzna,21,2021-07-13_22h12.30.026,rantool2,2021.1.4,Win32,143.6781609,5e33544f6d19d831e20e0e07,60d9d14f4a8a35a482e0d9bf,60edf1443b2b838b063233ee,,,,,,,,,,,,
0,0,,117,0,117,0,1,5e33544f6d19d831e20e0e07,Mężczyzna,21,2021-07-13_22h12.30.026,rantool2,2021.1.4,Win32,143.6781609,5e33544f6d19d831e20e0e07,60d9d14f4a8a35a482e0d9bf,60edf1443b2b838b063233ee,,,,,,,,,,,,
"[""comma""]",0,[0.285000000000025],118,0,118,0,1,5e33544f6d19d831e20e0e07,Mężczyzna,21,2021-07-13_22h12.30.026,rantool2,2021.1.4,Win32,143.6781609,5e33544f6d19d831e20e0e07,60d9d14f4a8a35a482e0d9bf,60edf1443b2b838b063233ee,,,,,,,,,,,,
"[""period""]",0,[0.2599999999999909],119,0,119,0,1,5e33544f6d19d831e20e0e07,Mężczyzna,21,2021-07-13_22h12.30.026,rantool2,2021.1.4,Win32,143.6781609,5e33544f6d19d831e20e0e07,60d9d14f4a8a35a482e0d9bf,60edf1443b2b838b063233ee,,,,,,,,,,,,
,,,,,,,,5e33544f6d19d831e20e0e07,Mężczyzna,21,2021-07-13_22h12.30.026,rantool2,2021.1.4,Win32,143.6781609,5e33544f6d19d831e20e0e07,60d9d14f4a8a35a482e0d9bf,60edf1443b2b838b063233ee,f,3.641,0,0,0,13,1,OORRORO,OORRORR,21.66733484,22.11181017,series_1
,,,,,,,,5e33544f6d19d831e20e0e07,Mężczyzna,21,2021-07-13_22h12.30.026,rantool2,2021.1.4,Win32,143.6781609,5e33544f6d19d831e20e0e07,60d9d14f4a8a35a482e0d9bf,60edf1443b2b838b063233ee,j,2.524,0,1,1,30,1,ORRRROO,ORRRROR,22.46748491,22.03072203,series_0
,,,,,,,,5e33544f6d19d831e20e0e07,Mężczyzna,21,2021-07-13_22h12.30.026,rantool2,2021.1.4,Win32,143.6781609,5e33544f6d19d831e20e0e07,60d9d14f4a8a35a482e0d9bf,60edf1443b2b838b063233ee,j,3.773,0,2,2,41,1,ROROORO,ROROORR,20.42602454,21.71443381,series_1
,,,,,,,,5e33544f6d19d831e20e0e07,Mężczyzna,21,2021-07-13_22h12.30.026,rantool2,2021.1.4,Win32,143.6781609,5e33544f6d19d831e20e0e07,60d9d14f4a8a35a482e0d9bf,60edf1443b2b838b063233ee,f,2.613,0,3,3,31,1,ORRRRRO,ORRRRRR,22.16413392,20.74050628,series_0
,,,,,,,,5e33544f6d19d831e20e0e07,Mężczyzna,21,2021-07-13_22h12.30.026,rantool2,2021.1.4,Win32,143.6781609,5e33544f6d19d831e20e0e07,60d9d14f4a8a35a482e0d9bf,60edf1443b2b838b063233ee,j,1.242,0,4,4,37,1,ROORORO,ROORORR,20.42602454,21.57657071,series_1
,,,,,,,,5e33544f6d19d831e20e0e07,Mężczyzna,21,2021-07-13_22h12.30.026,rantool2,2021.1.4,Win32,143.6781609,5e33544f6d19d831e20e0e07,60d9d14f4a8a35a482e0d9bf,60edf1443b2b838b063233ee,f,0.653,0,5,5,32,1,ROOOOOO,ROOOOOR,19.92253567,21.27974287,series_1
,,,,,,,,5e33544f6d19d831e20e0e07,Mężczyzna,21,2021-07-13_22h12.30.026,rantool2,2021.1.4,Win32,143.6781609,5e33544f6d19d831e20e0e07,60d9d14f4a8a35a482e0d9bf,60edf1443b2b838b063233ee,f,0.556,0,6,6,56,1,RRROOOO,RRROOOR,21.6194508,22.31681875,series_1
,,,,,,,,5e33544f6d19d831e20e0e07,Mężczyzna,21,2021-07-13_22h12.30.026,rantool2,2021.1.4,Win32,143.6781609,5e33544f6d19d831e20e0e07,60d9d14f4a8a35a482e0d9bf,60edf1443b2b838b063233ee,j,0.399,0,7,7,40,1,ROROOOO,ROROOOR,20.87963819,21.37121559,series_1
,,,,,,,,5e33544f6d19d831e20e0e07,Mężczyzna,21,2021-07-13_22h12.30.026,rantool2,2021.1.4,Win32,143.6781609,5e33544f6d19d831e20e0e07,60d9d14f4a8a35a482e0d9bf,60edf1443b2b838b063233ee,j,3.685,0,8,8,39,1,ROORRRO,ROORRRR,21.82425538,21.38562617,series_0
,,,,,,,,5e33544f6d19d831e20e0e07,Mężczyzna,21,2021-07-13_22h12.30.026,rantool2,2021.1.4,Win32,143.6781609,5e33544f6d19d831e20e0e07,60d9d14f4a8a35a482e0d9bf,60edf1443b2b838b063233ee,f,3.95,0,9,9,63,1,RRRRRRO,RRRRRRR,21.35278725,19.62521613,series_0
,,,,,,,,5e33544f6d19d831e20e0e07,Mężczyzna,21,2021-07-13_22h12.30.026,rantool2,2021.1.4,Win32,143.6781609,5e33544f6d19d831e20e0e07,60d9d14f4a8a35a482e0d9bf,60edf1443b2b838b063233ee,j,2.584,0,10,10,62,1,RRRRROO,RRRRROR,22.16413392,21.27974287,series_0
,,,,,,,,5e33544f6d19d831e20e0e07,Mężczyzna,21,2021-07-13_22h12.30.026,rantool2,2021.1.4,Win32,143.6781609,5e33544f6d19d831e20e0e07,60d9d14f4a8a35a482e0d9bf,60edf1443b2b838b063233ee,f,2.105,0,11,11,38,1,ROORROO,ROORROR,21.79500819,21.36812781,series_0
,,,,,,,,5e33544f6d19d831e20e0e07,Mężczyzna,21,2021-07-13_22h12.30.026,rantool2,2021.1.4,Win32,143.6781609,5e33544f6d19d831e20e0e07,60d9d14f4a8a35a482e0d9bf,60edf1443b2b838b063233ee,j,3.312,0,12,12,43,1,RORORRO,RORORRR,20.71309134,21.07490964,series_1
,,,,,,,,5e33544f6d19d831e20e0e07,Mężczyzna,21,2021-07-13_22h12.30.026,rantool2,2021.1.4,Win32,143.6781609,5e33544f6d19d831e20e0e07,60d9d14f4a8a35a482e0d9bf,60edf1443b2b838b063233ee,f,1.153,0,13,13,8,1,OOROOOO,OOROOOR,19.91402015,20.89823192,series_1
,,,,,,,,5e33544f6d19d831e20e0e07,Mężczyzna,21,2021-07-13_22h12.30.026,rantool2,2021.1.4,Win32,143.6781609,5e33544f6d19d831e20e0e07,60d9d14f4a8a35a482e0d9bf,60edf1443b2b838b063233ee,j,1.257,0,14,14,19,1,OROORRO,OROORRR,21.73568164,22.11181017,series_1
,,,,,,,,5e33544f6d19d831e20e0e07,Mężczyzna,21,2021-07-13_22h12.30.026,rantool2,2021.1.4,Win32,143.6781609,5e33544f6d19d831e20e0e07,60d9d14f4a8a35a482e0d9bf,60edf1443b2b838b063233ee,f,1.41,0,15,15,15,1,OORRRRO,OORRRRR,22.10108823,21.74922619,series_0
,,,,,,,,5e33544f6d19d831e20e0e07,Mężczyzna,21,2021-07-13_22h12.30.026,rantool2,2021.1.4,Win32,143.6781609,5e33544f6d19d831e20e0e07,60d9d14f4a8a35a482e0d9bf,60edf1443b2b838b063233ee,j,1.057,0,16,16,51,1,RROORRO,RROORRR,21.89852628,22.02786418,series_1
,,,,,,,,5e33544f6d19d831e20e0e07,Mężczyzna,21,2021-07-13_22h12.30.026,rantool2,2021.1.4,Win32,143.6781609,5e33544f6d19d831e20e0e07,60d9d14f4a8a35a482e0d9bf,60edf1443b2b838b063233ee,j,1.259,0,17,17,25,1,ORROORO,ORROORR,21.79500819,22.61624387,series_1
,,,,,,,,5e33544f6d19d831e20e0e07,Mężczyzna,21,2021-07-13_22h12.30.026,rantool2,2021.1.4,Win32,143.6781609,5e33544f6d19d831e20e0e07,60d9d14f4a8a35a482e0d9bf,60edf1443b2b838b063233ee,j,0.876,0,18,18,4,1,OOOROOO,OOOROOR,19.91402015,21.21223021,series_1
,,,,,,,,5e33544f6d19d831e20e0e07,Mężczyzna,21,2021-07-13_22h12.30.026,rantool2,2021.1.4,Win32,143.6781609,5e33544f6d19d831e20e0e07,60d9d14f4a8a35a482e0d9bf,60edf1443b2b838b063233ee,f,1.066,0,19,19,24,1,ORROOOO,ORROOOR,21.12383932,22.07102821,series_1
,,,,,,,,5e33544f6d19d831e20e0e07,Mężczyzna,21,2021-07-13_22h12.30.026,rantool2,2021.1.4,Win32,143.6781609,5e33544f6d19d831e20e0e07,60d9d14f4a8a35a482e0d9bf,60edf1443b2b838b063233ee,j,1.035,0,20,20,50,1,RROOROO,RROOROR,21.73568164,22.02566557,series_1
,,,,,,,,5e33544f6d19d831e20e0e07,Mężczyzna,21,2021-07-13_22h12.30.026,rantool2,2021.1.4,Win32,143.6781609,5e33544f6d19d831e20e0e07,60d9d14f4a8a35a482e0d9bf,60edf1443b2b838b063233ee,f,1.257,0,21,21,48,1,RROOOOO,RROOOOR,20.90986523,22.15934078,series_1
,,,,,,,,5e33544f6d19d831e20e0e07,Mężczyzna,21,2021-07-13_22h12.30.026,rantool2,2021.1.4,Win32,143.6781609,5e33544f6d19d831e20e0e07,60d9d14f4a8a35a482e0d9bf,60edf1443b2b838b063233ee,j,1.066,0,22,22,61,1,RRRRORO,RRRRORR,21.81333602,21.17347734,series_0
,,,,,,,,5e33544f6d19d831e20e0e07,Mężczyzna,21,2021-07-13_22h12.30.026,rantool2,2021.1.4,Win32,143.6781609,5e33544f6d19d831e20e0e07,60d9d14f4a8a35a482e0d9bf,60edf1443b2b838b063233ee,j,1.236,0,23,23,10,1,OOROROO,OOROROR,21.31236711,21.07490964,series_0
,,,,,,,,5e33544f6d19d831e20e0e07,Mężczyzna,21,2021-07-13_22h12.30.026,rantool2,2021.1.4,Win32,143.6781609,5e33544f6d19d831e20e0e07,60d9d14f4a8a35a482e0d9bf,60edf1443b2b838b063233ee,j,1.393,0,24,24,0,1,OOOOOOO,OOOOOOR,18.52739004,19.62521613,series_1
,,,,,,,,5e33544f6d19d831e20e0e07,Mężczyzna,21,2021-07-13_22h12.30.026,rantool2,2021.1.4,Win32,143.6781609,5e33544f6d19d831e20e0e07,60d9d14f4a8a35a482e0d9bf,60edf1443b2b838b063233ee,f,1.429,0,25,25,42,1,ROROROO,ROROROR,20.39515459,19.8361834,series_0
,,,,,,,,5e33544f6d19d831e20e0e07,Mężczyzna,21,2021-07-13_22h12.30.026,rantool2,2021.1.4,Win32,143.6781609,5e33544f6d19d831e20e0e07,60d9d14f4a8a35a482e0d9bf,60edf1443b2b838b063233ee,j,0.879,0,26,26,14,1,OORRROO,OORRROR,22.24142883,22.16977179,series_0
,,,,,,,,5e33544f6d19d831e20e0e07,Mężczyzna,21,2021-07-13_22h12.30.026,rantool2,2021.1.4,Win32,143.6781609,5e33544f6d19d831e20e0e07,60d9d14f4a8a35a482e0d9bf,60edf1443b2b838b063233ee,j,0.837,0,27,27,9,1,OOROORO,OOROORR,21.07991943,22.2428857,series_1
,,,,,,,,5e33544f6d19d831e20e0e07,Mężczyzna,21,2021-07-13_22h12.30.026,rantool2,2021.1.4,Win32,143.6781609,5e33544f6d19d831e20e0e07,60d9d14f4a8a35a482e0d9bf,60edf1443b2b838b063233ee,f,1.292,0,28,28,53,1,RRORORO,RRORORR,20.71309134,21.90565814,series_1
,,,,,,,,5e33544f6d19d831e20e0e07,Mężczyzna,21,2021-07-13_22h12.30.026,rantool2,2021.1.4,Win32,143.6781609,5e33544f6d19d831e20e0e07,60d9d14f4a8a35a482e0d9bf,60edf1443b2b838b063233ee,j,0.434,0,29,29,36,1,ROOROOO,ROOROOR,21.07991943,20.9984461,series_0
,,,,,,,,5e33544f6d19d831e20e0e07,Mężczyzna,21,2021-07-13_22h12.30.026,rantool2,2021.1.4,Win32,143.6781609,5e33544f6d19d831e20e0e07,60d9d14f4a8a35a482e0d9bf,60edf1443b2b838b063233ee,f,0.563,0,30,30,16,1,OROOOOO,OROOOOR,20.43051175,21.17347734,series_1
,,,,,,,,5e33544f6d19d831e20e0e07,Mężczyzna,21,2021-07-13_22h12.30.026,rantool2,2021.1.4,Win32,143.6781609,5e33544f6d19d831e20e0e07,60d9d14f4a8a35a482e0d9bf,60edf1443b2b838b063233ee,j,0.612,0,31,31,55,1,RRORRRO,RRORRRR,21.56657303,21.21223021,series_0
,,,,,,,,5e33544f6d19d831e20e0e07,Mężczyzna,21,2021-07-13_22h12.30.026,rantool2,2021.1.4,Win32,143.6781609,5e33544f6d19d831e20e0e07,60d9d14f4a8a35a482e0d9bf,60edf1443b2b838b063233ee,f,0.48,0,32,32,22,1,ORORROO,ORORROR,22.02732763,21.57657071,series_0
,,,,,,,,5e33544f6d19d831e20e0e07,Mężczyzna,21,2021-07-13_22h12.30.026,rantool2,2021.1.4,Win32,143.6781609,5e33544f6d19d831e20e0e07,60d9d14f4a8a35a482e0d9bf,60edf1443b2b838b063233ee,j,0.452,0,33,33,7,1,OOORRRO,OOORRRR,21.6194508,21.899017,series_1
,,,,,,,,5e33544f6d19d831e20e0e07,Mężczyzna,21,2021-07-13_22h12.30.026,rantool2,2021.1.4,Win32,143.6781609,5e33544f6d19d831e20e0e07,60d9d14f4a8a35a482e0d9bf,60edf1443b2b838b063233ee,j,1.128,0,34,34,58,1,RRROROO,RRROROR,22.1285618,21.37121559,series_0
,,,,,,,,5e33544f6d19d831e20e0e07,Mężczyzna,21,2021-07-13_22h12.30.026,rantool2,2021.1.4,Win32,143.6781609,5e33544f6d19d831e20e0e07,60d9d14f4a8a35a482e0d9bf,60edf1443b2b838b063233ee,j,1.598,0,35,35,1,1,OOOOORO,OOOOORR,19.92253567,20.74050628,series_1
,,,,,,,,5e33544f6d19d831e20e0e07,Mężczyzna,21,2021-07-13_22h12.30.026,rantool2,2021.1.4,Win32,143.6781609,5e33544f6d19d831e20e0e07,60d9d14f4a8a35a482e0d9bf,60edf1443b2b838b063233ee,j,1.361,0,36,36,20,1,OROROOO,OROROOR,21.31236711,21.90565814,series_1
,,,,,,,,5e33544f6d19d831e20e0e07,Mężczyzna,21,2021-07-13_22h12.30.026,rantool2,2021.1.4,Win32,143.6781609,5e33544f6d19d831e20e0e07,60d9d14f4a8a35a482e0d9bf,60edf1443b2b838b063233ee,f,1.865,0,37,37,59,1,RRRORRO,RRRORRR,21.56657303,20.89823192,series_0
,,,,,,,,5e33544f6d19d831e20e0e07,Mężczyzna,21,2021-07-13_22h12.30.026,rantool2,2021.1.4,Win32,143.6781609,5e33544f6d19d831e20e0e07,60d9d14f4a8a35a482e0d9bf,60edf1443b2b838b063233ee,j,1.012,0,38,38,28,1,ORRROOO,ORRROOR,22.24142883,22.53364006,series_1
,,,,,,,,5e33544f6d19d831e20e0e07,Mężczyzna,21,2021-07-13_22h12.30.026,rantool2,2021.1.4,Win32,143.6781609,5e33544f6d19d831e20e0e07,60d9d14f4a8a35a482e0d9bf,60edf1443b2b838b063233ee,f,1.182,0,39,39,3,1,OOOORRO,OOOORRR,20.90986523,21.74922619,series_1
,,,,,,,,5e33544f6d19d831e20e0e07,Mężczyzna,21,2021-07-13_22h12.30.026,rantool2,2021.1.4,Win32,143.6781609,5e33544f6d19d831e20e0e07,60d9d14f4a8a35a482e0d9bf,60edf1443b2b838b063233ee,j,0.723,0,40,40,6,1,OOORROO,OOORROR,21.12383932,21.38562617,series_1
,,,,,,,,5e33544f6d19d831e20e0e07,Mężczyzna,21,2021-07-13_22h12.30.026,rantool2,2021.1.4,Win32,143.6781609,5e33544f6d19d831e20e0e07,60d9d14f4a8a35a482e0d9bf,60edf1443b2b838b063233ee,f,0.761,0,41,41,49,1,RROOORO,RROOORR,21.76276513,22.53364006,series_1
,,,,,,,,5e33544f6d19d831e20e0e07,Mężczyzna,21,2021-07-13_22h12.30.026,rantool2,2021.1.4,Win32,143.6781609,5e33544f6d19d831e20e0e07,60d9d14f4a8a35a482e0d9bf,60edf1443b2b838b063233ee,j,0.63,0,42,42,11,1,OORORRO,OORORRR,22.18365867,22.6797523,series_1
,,,,,,,,5e33544f6d19d831e20e0e07,Mężczyzna,21,2021-07-13_22h12.30.026,rantool2,2021.1.4,Win32,143.6781609,5e33544f6d19d831e20e0e07,60d9d14f4a8a35a482e0d9bf,60edf1443b2b838b063233ee,f,1.941,0,43,43,23,1,ORORRRO,ORORRRR,22.1285618,21.9921709,series_0
,,,,,,,,5e33544f6d19d831e20e0e07,Mężczyzna,21,2021-07-13_22h12.30.026,rantool2,2021.1.4,Win32,143.6781609,5e33544f6d19d831e20e0e07,60d9d14f4a8a35a482e0d9bf,60edf1443b2b838b063233ee,j,0.716,0,44,44,47,1,RORRRRO,RORRRRR,21.81333602,21.02936224,series_0
,,,,,,,,5e33544f6d19d831e20e0e07,Mężczyzna,21,2021-07-13_22h12.30.026,rantool2,2021.1.4,Win32,143.6781609,5e33544f6d19d831e20e0e07,60d9d14f4a8a35a482e0d9bf,60edf1443b2b838b063233ee,f,0.618,0,45,45,44,1,RORROOO,RORROOR,21.66733484,22.02566557,series_1
,,,,,,,,5e33544f6d19d831e20e0e07,Mężczyzna,21,2021-07-13_22h12.30.026,rantool2,2021.1.4,Win32,143.6781609,5e33544f6d19d831e20e0e07,60d9d14f4a8a35a482e0d9bf,60edf1443b2b838b063233ee,j,0.753,0,46,46,2,1,OOOOROO,OOOOROR,20.43051175,21.02936224,series_1
,,,,,,,,5e33544f6d19d831e20e0e07,Mężczyzna,21,2021-07-13_22h12.30.026,rantool2,2021.1.4,Win32,143.6781609,5e33544f6d19d831e20e0e07,60d9d14f4a8a35a482e0d9bf,60edf1443b2b838b063233ee,f,0.91,0,47,47,60,1,RRRROOO,RRRROOR,22.10108823,22.15934078,series_1
,,,,,,,,5e33544f6d19d831e20e0e07,Mężczyzna,21,2021-07-13_22h12.30.026,rantool2,2021.1.4,Win32,143.6781609,5e33544f6d19d831e20e0e07,60d9d14f4a8a35a482e0d9bf,60edf1443b2b838b063233ee,j,0.984,0,48,48,46,1,RORRROO,RORRROR,22.00300695,21.24781509,series_0
,,,,,,,,5e33544f6d19d831e20e0e07,Mężczyzna,21,2021-07-13_22h12.30.026,rantool2,2021.1.4,Win32,143.6781609,5e33544f6d19d831e20e0e07,60d9d14f4a8a35a482e0d9bf,60edf1443b2b838b063233ee,f,0.981,0,49,49,57,1,RRROORO,RRROORR,21.82425538,22.07102821,series_1
,,,,,,,,5e33544f6d19d831e20e0e07,Mężczyzna,21,2021-07-13_22h12.30.026,rantool2,2021.1.4,Win32,143.6781609,5e33544f6d19d831e20e0e07,60d9d14f4a8a35a482e0d9bf,60edf1443b2b838b063233ee,j,0.66,0,50,50,29,1,ORRRORO,ORRRORR,22.00300695,22.12173012,series_1
,,,,,,,,5e33544f6d19d831e20e0e07,Mężczyzna,21,2021-07-13_22h12.30.026,rantool2,2021.1.4,Win32,143.6781609,5e33544f6d19d831e20e0e07,60d9d14f4a8a35a482e0d9bf,60edf1443b2b838b063233ee,f,0.785,0,51,51,52,1,RROROOO,RROROOR,22.18365867,22.11097995,series_0
,,,,,,,,5e33544f6d19d831e20e0e07,Mężczyzna,21,2021-07-13_22h12.30.026,rantool2,2021.1.4,Win32,143.6781609,5e33544f6d19d831e20e0e07,60d9d14f4a8a35a482e0d9bf,60edf1443b2b838b063233ee,j,0.562,0,52,52,54,1,RRORROO,RRORROR,21.55250791,20.9984461,series_0
,,,,,,,,5e33544f6d19d831e20e0e07,Mężczyzna,21,2021-07-13_22h12.30.026,rantool2,2021.1.4,Win32,143.6781609,5e33544f6d19d831e20e0e07,60d9d14f4a8a35a482e0d9bf,60edf1443b2b838b063233ee,f,0.703,0,53,53,5,1,OOORORO,OOORORR,20.87963819,21.9921709,series_1
,,,,,,,,5e33544f6d19d831e20e0e07,Mężczyzna,21,2021-07-13_22h12.30.026,rantool2,2021.1.4,Win32,143.6781609,5e33544f6d19d831e20e0e07,60d9d14f4a8a35a482e0d9bf,60edf1443b2b838b063233ee,j,1.057,0,54,54,33,1,ROOOORO,ROOOORR,20.83779602,22.03072203,series_1
,,,,,,,,5e33544f6d19d831e20e0e07,Mężczyzna,21,2021-07-13_22h12.30.026,rantool2,2021.1.4,Win32,143.6781609,5e33544f6d19d831e20e0e07,60d9d14f4a8a35a482e0d9bf,60edf1443b2b838b063233ee,f,0.628,0,55,55,34,1,ROOOROO,ROOOROR,21.03750787,21.24781509,series_1
,,,,,,,,5e33544f6d19d831e20e0e07,Mężczyzna,21,2021-07-13_22h12.30.026,rantool2,2021.1.4,Win32,143.6781609,5e33544f6d19d831e20e0e07,60d9d14f4a8a35a482e0d9bf,60edf1443b2b838b063233ee,j,0.797,0,56,56,45,1,RORRORO,RORRORR,20.78182524,21.22513037,series_1
,,,,,,,,5e33544f6d19d831e20e0e07,Mężczyzna,21,2021-07-13_22h12.30.026,rantool2,2021.1.4,Win32,143.6781609,5e33544f6d19d831e20e0e07,60d9d14f4a8a35a482e0d9bf,60edf1443b2b838b063233ee,f,0.838,0,57,57,12,1,OORROOO,OORROOR,21.30250474,22.02786418,series_1
,,,,,,,,5e33544f6d19d831e20e0e07,Mężczyzna,21,2021-07-13_22h12.30.026,rantool2,2021.1.4,Win32,143.6781609,5e33544f6d19d831e20e0e07,60d9d14f4a8a35a482e0d9bf,60edf1443b2b838b063233ee,j,0.646,0,58,58,26,1,ORROROO,ORROROR,22.02732763,21.71443381,series_0
,,,,,,,,5e33544f6d19d831e20e0e07,Mężczyzna,21,2021-07-13_22h12.30.026,rantool2,2021.1.4,Win32,143.6781609,5e33544f6d19d831e20e0e07,60d9d14f4a8a35a482e0d9bf,60edf1443b2b838b063233ee,j,0.688,0,59,59,35,1,ROOORRO,ROOORRR,21.76276513,22.16977179,series_1
,,,,,,,,5e33544f6d19d831e20e0e07,Mężczyzna,21,2021-07-13_22h12.30.026,rantool2,2021.1.4,Win32,143.6781609,5e33544f6d19d831e20e0e07,60d9d14f4a8a35a482e0d9bf,60edf1443b2b838b063233ee,f,1.425,0,60,60,17,1,OROOORO,OROOORR,21.03750787,22.12173012,series_1
,,,,,,,,5e33544f6d19d831e20e0e07,Mężczyzna,21,2021-07-13_22h12.30.026,rantool2,2021.1.4,Win32,143.6781609,5e33544f6d19d831e20e0e07,60d9d14f4a8a35a482e0d9bf,60edf1443b2b838b063233ee,j,0.564,0,61,61,18,1,OROOROO,OROOROR,20.84860893,21.22513037,series_1
,,,,,,,,5e33544f6d19d831e20e0e07,Mężczyzna,21,2021-07-13_22h12.30.026,rantool2,2021.1.4,Win32,143.6781609,5e33544f6d19d831e20e0e07,60d9d14f4a8a35a482e0d9bf,60edf1443b2b838b063233ee,f,0.608,0,62,62,21,1,ORORORO,ORORORR,20.39515459,22.06781359,series_1
,,,,,,,,5e33544f6d19d831e20e0e07,Mężczyzna,21,2021-07-13_22h12.30.026,rantool2,2021.1.4,Win32,143.6781609,5e33544f6d19d831e20e0e07,60d9d14f4a8a35a482e0d9bf,60edf1443b2b838b063233ee,j,0.584,0,63,63,27,1,ORRORRO,ORRORRR,21.55250791,22.2428857,series_1
