key_resp_7.keys,key_resp_7.rt,trials_2.thisRepN,trials_2.thisTrialN,trials_2.thisN,trials_2.thisIndex,trials_2.ran,id,series_0,series_1,acss_0,acss_1,comparison,id*,Płeć*,Wiek*,date,expName,psychopyVersion,OS,frameRate,STUDY_ID,SESSION_ID,key_resp_5.keys,key_resp_5.corr,key_resp_5.rt,trials.thisRepN,trials.thisTrialN,trials.thisN,trials.thisIndex,trials.ran
f,2.3904,0,0,0,7,1,5f5286c9fe322954c5256681,OOORRRO,OOORRRR,21.6194508,21.899017,series_1,5f5286c9fe322954c5256681,Mężczyzna,20,2021-09-06_19h25.55.437,rantool2,2021.1.4,Win32,60.0060006,6135e006383e6ea6c3d06a28,61364ec46ce25e291b8fc175,,,,,,,,
f,2.8572,0,1,1,1,1,5f5286c9fe322954c5256681,OOOOORO,OOOOORR,19.92253567,20.74050628,series_1,5f5286c9fe322954c5256681,Mężczyzna,20,2021-09-06_19h25.55.437,rantool2,2021.1.4,Win32,60.0060006,6135e006383e6ea6c3d06a28,61364ec46ce25e291b8fc175,,,,,,,,
f,3.0324,0,2,2,20,1,5f5286c9fe322954c5256681,OROROOO,OROROOR,21.31236711,21.90565814,series_1,5f5286c9fe322954c5256681,Mężczyzna,20,2021-09-06_19h25.55.437,rantool2,2021.1.4,Win32,60.0060006,6135e006383e6ea6c3d06a28,61364ec46ce25e291b8fc175,,,,,,,,
j,1.9084,0,3,3,61,1,5f5286c9fe322954c5256681,RRRRORO,RRRRORR,21.81333602,21.17347734,series_0,5f5286c9fe322954c5256681,Mężczyzna,20,2021-09-06_19h25.55.437,rantool2,2021.1.4,Win32,60.0060006,6135e006383e6ea6c3d06a28,61364ec46ce25e291b8fc175,,,,,,,,
j,3.4324,0,4,4,13,1,5f5286c9fe322954c5256681,OORRORO,OORRORR,21.66733484,22.11181017,series_1,5f5286c9fe322954c5256681,Mężczyzna,20,2021-09-06_19h25.55.437,rantool2,2021.1.4,Win32,60.0060006,6135e006383e6ea6c3d06a28,61364ec46ce25e291b8fc175,,,,,,,,
f,1.9491,0,5,5,60,1,5f5286c9fe322954c5256681,RRRROOO,RRRROOR,22.10108823,22.15934078,series_1,5f5286c9fe322954c5256681,Mężczyzna,20,2021-09-06_19h25.55.437,rantool2,2021.1.4,Win32,60.0060006,6135e006383e6ea6c3d06a28,61364ec46ce25e291b8fc175,,,,,,,,
j,3.2946,0,6,6,6,1,5f5286c9fe322954c5256681,OOORROO,OOORROR,21.12383932,21.38562617,series_1,5f5286c9fe322954c5256681,Mężczyzna,20,2021-09-06_19h25.55.437,rantool2,2021.1.4,Win32,60.0060006,6135e006383e6ea6c3d06a28,61364ec46ce25e291b8fc175,,,,,,,,
j,1.7948,0,7,7,8,1,5f5286c9fe322954c5256681,OOROOOO,OOROOOR,19.91402015,20.89823192,series_1,5f5286c9fe322954c5256681,Mężczyzna,20,2021-09-06_19h25.55.437,rantool2,2021.1.4,Win32,60.0060006,6135e006383e6ea6c3d06a28,61364ec46ce25e291b8fc175,,,,,,,,
j,1.4822,0,8,8,30,1,5f5286c9fe322954c5256681,ORRRROO,ORRRROR,22.46748491,22.03072203,series_0,5f5286c9fe322954c5256681,Mężczyzna,20,2021-09-06_19h25.55.437,rantool2,2021.1.4,Win32,60.0060006,6135e006383e6ea6c3d06a28,61364ec46ce25e291b8fc175,,,,,,,,
j,1.2323,0,9,9,0,1,5f5286c9fe322954c5256681,OOOOOOO,OOOOOOR,18.52739004,19.62521613,series_1,5f5286c9fe322954c5256681,Mężczyzna,20,2021-09-06_19h25.55.437,rantool2,2021.1.4,Win32,60.0060006,6135e006383e6ea6c3d06a28,61364ec46ce25e291b8fc175,,,,,,,,
j,2.8042,0,10,10,34,1,5f5286c9fe322954c5256681,ROOOROO,ROOOROR,21.03750787,21.24781509,series_1,5f5286c9fe322954c5256681,Mężczyzna,20,2021-09-06_19h25.55.437,rantool2,2021.1.4,Win32,60.0060006,6135e006383e6ea6c3d06a28,61364ec46ce25e291b8fc175,,,,,,,,
f,2.6594,0,11,11,42,1,5f5286c9fe322954c5256681,ROROROO,ROROROR,20.39515459,19.8361834,series_0,5f5286c9fe322954c5256681,Mężczyzna,20,2021-09-06_19h25.55.437,rantool2,2021.1.4,Win32,60.0060006,6135e006383e6ea6c3d06a28,61364ec46ce25e291b8fc175,,,,,,,,
f,1.9928,0,12,12,4,1,5f5286c9fe322954c5256681,OOOROOO,OOOROOR,19.91402015,21.21223021,series_1,5f5286c9fe322954c5256681,Mężczyzna,20,2021-09-06_19h25.55.437,rantool2,2021.1.4,Win32,60.0060006,6135e006383e6ea6c3d06a28,61364ec46ce25e291b8fc175,,,,,,,,
f,2.4165,0,13,13,26,1,5f5286c9fe322954c5256681,ORROROO,ORROROR,22.02732763,21.71443381,series_0,5f5286c9fe322954c5256681,Mężczyzna,20,2021-09-06_19h25.55.437,rantool2,2021.1.4,Win32,60.0060006,6135e006383e6ea6c3d06a28,61364ec46ce25e291b8fc175,,,,,,,,
f,1.783,0,14,14,63,1,5f5286c9fe322954c5256681,RRRRRRO,RRRRRRR,21.35278725,19.62521613,series_0,5f5286c9fe322954c5256681,Mężczyzna,20,2021-09-06_19h25.55.437,rantool2,2021.1.4,Win32,60.0060006,6135e006383e6ea6c3d06a28,61364ec46ce25e291b8fc175,,,,,,,,
j,3.7111,0,15,15,5,1,5f5286c9fe322954c5256681,OOORORO,OOORORR,20.87963819,21.9921709,series_1,5f5286c9fe322954c5256681,Mężczyzna,20,2021-09-06_19h25.55.437,rantool2,2021.1.4,Win32,60.0060006,6135e006383e6ea6c3d06a28,61364ec46ce25e291b8fc175,,,,,,,,
f,3.2425,0,16,16,9,1,5f5286c9fe322954c5256681,OOROORO,OOROORR,21.07991943,22.2428857,series_1,5f5286c9fe322954c5256681,Mężczyzna,20,2021-09-06_19h25.55.437,rantool2,2021.1.4,Win32,60.0060006,6135e006383e6ea6c3d06a28,61364ec46ce25e291b8fc175,,,,,,,,
j,1.3602,0,17,17,33,1,5f5286c9fe322954c5256681,ROOOORO,ROOOORR,20.83779602,22.03072203,series_1,5f5286c9fe322954c5256681,Mężczyzna,20,2021-09-06_19h25.55.437,rantool2,2021.1.4,Win32,60.0060006,6135e006383e6ea6c3d06a28,61364ec46ce25e291b8fc175,,,,,,,,
f,2.8012,0,18,18,35,1,5f5286c9fe322954c5256681,ROOORRO,ROOORRR,21.76276513,22.16977179,series_1,5f5286c9fe322954c5256681,Mężczyzna,20,2021-09-06_19h25.55.437,rantool2,2021.1.4,Win32,60.0060006,6135e006383e6ea6c3d06a28,61364ec46ce25e291b8fc175,,,,,,,,
j,2.4727,0,19,19,27,1,5f5286c9fe322954c5256681,ORRORRO,ORRORRR,21.55250791,22.2428857,series_1,5f5286c9fe322954c5256681,Mężczyzna,20,2021-09-06_19h25.55.437,rantool2,2021.1.4,Win32,60.0060006,6135e006383e6ea6c3d06a28,61364ec46ce25e291b8fc175,,,,,,,,
f,2.1012,0,20,20,36,1,5f5286c9fe322954c5256681,ROOROOO,ROOROOR,21.07991943,20.9984461,series_0,5f5286c9fe322954c5256681,Mężczyzna,20,2021-09-06_19h25.55.437,rantool2,2021.1.4,Win32,60.0060006,6135e006383e6ea6c3d06a28,61364ec46ce25e291b8fc175,,,,,,,,
j,3.0489,0,21,21,49,1,5f5286c9fe322954c5256681,RROOORO,RROOORR,21.76276513,22.53364006,series_1,5f5286c9fe322954c5256681,Mężczyzna,20,2021-09-06_19h25.55.437,rantool2,2021.1.4,Win32,60.0060006,6135e006383e6ea6c3d06a28,61364ec46ce25e291b8fc175,,,,,,,,
j,1.8617,0,22,22,46,1,5f5286c9fe322954c5256681,RORRROO,RORRROR,22.00300695,21.24781509,series_0,5f5286c9fe322954c5256681,Mężczyzna,20,2021-09-06_19h25.55.437,rantool2,2021.1.4,Win32,60.0060006,6135e006383e6ea6c3d06a28,61364ec46ce25e291b8fc175,,,,,,,,
j,2.355,0,23,23,39,1,5f5286c9fe322954c5256681,ROORRRO,ROORRRR,21.82425538,21.38562617,series_0,5f5286c9fe322954c5256681,Mężczyzna,20,2021-09-06_19h25.55.437,rantool2,2021.1.4,Win32,60.0060006,6135e006383e6ea6c3d06a28,61364ec46ce25e291b8fc175,,,,,,,,
j,3.3162,0,24,24,50,1,5f5286c9fe322954c5256681,RROOROO,RROOROR,21.73568164,22.02566557,series_1,5f5286c9fe322954c5256681,Mężczyzna,20,2021-09-06_19h25.55.437,rantool2,2021.1.4,Win32,60.0060006,6135e006383e6ea6c3d06a28,61364ec46ce25e291b8fc175,,,,,,,,
j,2.8823,0,25,25,14,1,5f5286c9fe322954c5256681,OORRROO,OORRROR,22.24142883,22.16977179,series_0,5f5286c9fe322954c5256681,Mężczyzna,20,2021-09-06_19h25.55.437,rantool2,2021.1.4,Win32,60.0060006,6135e006383e6ea6c3d06a28,61364ec46ce25e291b8fc175,,,,,,,,
f,3.4106,0,26,26,25,1,5f5286c9fe322954c5256681,ORROORO,ORROORR,21.79500819,22.61624387,series_1,5f5286c9fe322954c5256681,Mężczyzna,20,2021-09-06_19h25.55.437,rantool2,2021.1.4,Win32,60.0060006,6135e006383e6ea6c3d06a28,61364ec46ce25e291b8fc175,,,,,,,,
f,1.2496,0,27,27,28,1,5f5286c9fe322954c5256681,ORRROOO,ORRROOR,22.24142883,22.53364006,series_1,5f5286c9fe322954c5256681,Mężczyzna,20,2021-09-06_19h25.55.437,rantool2,2021.1.4,Win32,60.0060006,6135e006383e6ea6c3d06a28,61364ec46ce25e291b8fc175,,,,,,,,
f,1.3271,0,28,28,31,1,5f5286c9fe322954c5256681,ORRRRRO,ORRRRRR,22.16413392,20.74050628,series_0,5f5286c9fe322954c5256681,Mężczyzna,20,2021-09-06_19h25.55.437,rantool2,2021.1.4,Win32,60.0060006,6135e006383e6ea6c3d06a28,61364ec46ce25e291b8fc175,,,,,,,,
j,1.9056,0,29,29,40,1,5f5286c9fe322954c5256681,ROROOOO,ROROOOR,20.87963819,21.37121559,series_1,5f5286c9fe322954c5256681,Mężczyzna,20,2021-09-06_19h25.55.437,rantool2,2021.1.4,Win32,60.0060006,6135e006383e6ea6c3d06a28,61364ec46ce25e291b8fc175,,,,,,,,
f,3.141,0,30,30,11,1,5f5286c9fe322954c5256681,OORORRO,OORORRR,22.18365867,22.6797523,series_1,5f5286c9fe322954c5256681,Mężczyzna,20,2021-09-06_19h25.55.437,rantool2,2021.1.4,Win32,60.0060006,6135e006383e6ea6c3d06a28,61364ec46ce25e291b8fc175,,,,,,,,
f,1.9269,0,31,31,32,1,5f5286c9fe322954c5256681,ROOOOOO,ROOOOOR,19.92253567,21.27974287,series_1,5f5286c9fe322954c5256681,Mężczyzna,20,2021-09-06_19h25.55.437,rantool2,2021.1.4,Win32,60.0060006,6135e006383e6ea6c3d06a28,61364ec46ce25e291b8fc175,,,,,,,,
j,2.8093,0,32,32,54,1,5f5286c9fe322954c5256681,RRORROO,RRORROR,21.55250791,20.9984461,series_0,5f5286c9fe322954c5256681,Mężczyzna,20,2021-09-06_19h25.55.437,rantool2,2021.1.4,Win32,60.0060006,6135e006383e6ea6c3d06a28,61364ec46ce25e291b8fc175,,,,,,,,
j,3.9445,0,33,33,19,1,5f5286c9fe322954c5256681,OROORRO,OROORRR,21.73568164,22.11181017,series_1,5f5286c9fe322954c5256681,Mężczyzna,20,2021-09-06_19h25.55.437,rantool2,2021.1.4,Win32,60.0060006,6135e006383e6ea6c3d06a28,61364ec46ce25e291b8fc175,,,,,,,,
j,1.5489,0,34,34,58,1,5f5286c9fe322954c5256681,RRROROO,RRROROR,22.1285618,21.37121559,series_0,5f5286c9fe322954c5256681,Mężczyzna,20,2021-09-06_19h25.55.437,rantool2,2021.1.4,Win32,60.0060006,6135e006383e6ea6c3d06a28,61364ec46ce25e291b8fc175,,,,,,,,
j,3.1839,0,35,35,38,1,5f5286c9fe322954c5256681,ROORROO,ROORROR,21.79500819,21.36812781,series_0,5f5286c9fe322954c5256681,Mężczyzna,20,2021-09-06_19h25.55.437,rantool2,2021.1.4,Win32,60.0060006,6135e006383e6ea6c3d06a28,61364ec46ce25e291b8fc175,,,,,,,,
f,2.0915,0,36,36,12,1,5f5286c9fe322954c5256681,OORROOO,OORROOR,21.30250474,22.02786418,series_1,5f5286c9fe322954c5256681,Mężczyzna,20,2021-09-06_19h25.55.437,rantool2,2021.1.4,Win32,60.0060006,6135e006383e6ea6c3d06a28,61364ec46ce25e291b8fc175,,,,,,,,
j,2.1674,0,37,37,53,1,5f5286c9fe322954c5256681,RRORORO,RRORORR,20.71309134,21.90565814,series_1,5f5286c9fe322954c5256681,Mężczyzna,20,2021-09-06_19h25.55.437,rantool2,2021.1.4,Win32,60.0060006,6135e006383e6ea6c3d06a28,61364ec46ce25e291b8fc175,,,,,,,,
f,2.7923,0,38,38,29,1,5f5286c9fe322954c5256681,ORRRORO,ORRRORR,22.00300695,22.12173012,series_1,5f5286c9fe322954c5256681,Mężczyzna,20,2021-09-06_19h25.55.437,rantool2,2021.1.4,Win32,60.0060006,6135e006383e6ea6c3d06a28,61364ec46ce25e291b8fc175,,,,,,,,
j,2.8239,0,39,39,17,1,5f5286c9fe322954c5256681,OROOORO,OROOORR,21.03750787,22.12173012,series_1,5f5286c9fe322954c5256681,Mężczyzna,20,2021-09-06_19h25.55.437,rantool2,2021.1.4,Win32,60.0060006,6135e006383e6ea6c3d06a28,61364ec46ce25e291b8fc175,,,,,,,,
f,3.2864,0,40,40,24,1,5f5286c9fe322954c5256681,ORROOOO,ORROOOR,21.12383932,22.07102821,series_1,5f5286c9fe322954c5256681,Mężczyzna,20,2021-09-06_19h25.55.437,rantool2,2021.1.4,Win32,60.0060006,6135e006383e6ea6c3d06a28,61364ec46ce25e291b8fc175,,,,,,,,
j,4.1321,0,41,41,45,1,5f5286c9fe322954c5256681,RORRORO,RORRORR,20.78182524,21.22513037,series_1,5f5286c9fe322954c5256681,Mężczyzna,20,2021-09-06_19h25.55.437,rantool2,2021.1.4,Win32,60.0060006,6135e006383e6ea6c3d06a28,61364ec46ce25e291b8fc175,,,,,,,,
f,2.0839,0,42,42,23,1,5f5286c9fe322954c5256681,ORORRRO,ORORRRR,22.1285618,21.9921709,series_0,5f5286c9fe322954c5256681,Mężczyzna,20,2021-09-06_19h25.55.437,rantool2,2021.1.4,Win32,60.0060006,6135e006383e6ea6c3d06a28,61364ec46ce25e291b8fc175,,,,,,,,
,,0,43,43,52,1,5f5286c9fe322954c5256681,RROROOO,RROROOR,22.18365867,22.11097995,series_0,5f5286c9fe322954c5256681,Mężczyzna,20,2021-09-06_19h25.55.437,rantool2,2021.1.4,Win32,60.0060006,6135e006383e6ea6c3d06a28,61364ec46ce25e291b8fc175,,,,,,,,
f,2.4238,0,44,44,22,1,5f5286c9fe322954c5256681,ORORROO,ORORROR,22.02732763,21.57657071,series_0,5f5286c9fe322954c5256681,Mężczyzna,20,2021-09-06_19h25.55.437,rantool2,2021.1.4,Win32,60.0060006,6135e006383e6ea6c3d06a28,61364ec46ce25e291b8fc175,,,,,,,,
j,2.5266,0,45,45,62,1,5f5286c9fe322954c5256681,RRRRROO,RRRRROR,22.16413392,21.27974287,series_0,5f5286c9fe322954c5256681,Mężczyzna,20,2021-09-06_19h25.55.437,rantool2,2021.1.4,Win32,60.0060006,6135e006383e6ea6c3d06a28,61364ec46ce25e291b8fc175,,,,,,,,
j,3.1528,0,46,46,18,1,5f5286c9fe322954c5256681,OROOROO,OROOROR,20.84860893,21.22513037,series_1,5f5286c9fe322954c5256681,Mężczyzna,20,2021-09-06_19h25.55.437,rantool2,2021.1.4,Win32,60.0060006,6135e006383e6ea6c3d06a28,61364ec46ce25e291b8fc175,,,,,,,,
j,1.2823,0,47,47,15,1,5f5286c9fe322954c5256681,OORRRRO,OORRRRR,22.10108823,21.74922619,series_0,5f5286c9fe322954c5256681,Mężczyzna,20,2021-09-06_19h25.55.437,rantool2,2021.1.4,Win32,60.0060006,6135e006383e6ea6c3d06a28,61364ec46ce25e291b8fc175,,,,,,,,
f,1.8155,0,48,48,55,1,5f5286c9fe322954c5256681,RRORRRO,RRORRRR,21.56657303,21.21223021,series_0,5f5286c9fe322954c5256681,Mężczyzna,20,2021-09-06_19h25.55.437,rantool2,2021.1.4,Win32,60.0060006,6135e006383e6ea6c3d06a28,61364ec46ce25e291b8fc175,,,,,,,,
j,1.7007,0,49,49,41,1,5f5286c9fe322954c5256681,ROROORO,ROROORR,20.42602454,21.71443381,series_1,5f5286c9fe322954c5256681,Mężczyzna,20,2021-09-06_19h25.55.437,rantool2,2021.1.4,Win32,60.0060006,6135e006383e6ea6c3d06a28,61364ec46ce25e291b8fc175,,,,,,,,
f,1.6719,0,50,50,57,1,5f5286c9fe322954c5256681,RRROORO,RRROORR,21.82425538,22.07102821,series_1,5f5286c9fe322954c5256681,Mężczyzna,20,2021-09-06_19h25.55.437,rantool2,2021.1.4,Win32,60.0060006,6135e006383e6ea6c3d06a28,61364ec46ce25e291b8fc175,,,,,,,,
j,1.4206,0,51,51,47,1,5f5286c9fe322954c5256681,RORRRRO,RORRRRR,21.81333602,21.02936224,series_0,5f5286c9fe322954c5256681,Mężczyzna,20,2021-09-06_19h25.55.437,rantool2,2021.1.4,Win32,60.0060006,6135e006383e6ea6c3d06a28,61364ec46ce25e291b8fc175,,,,,,,,
j,1.699,0,52,52,56,1,5f5286c9fe322954c5256681,RRROOOO,RRROOOR,21.6194508,22.31681875,series_1,5f5286c9fe322954c5256681,Mężczyzna,20,2021-09-06_19h25.55.437,rantool2,2021.1.4,Win32,60.0060006,6135e006383e6ea6c3d06a28,61364ec46ce25e291b8fc175,,,,,,,,
j,1.7024,0,53,53,48,1,5f5286c9fe322954c5256681,RROOOOO,RROOOOR,20.90986523,22.15934078,series_1,5f5286c9fe322954c5256681,Mężczyzna,20,2021-09-06_19h25.55.437,rantool2,2021.1.4,Win32,60.0060006,6135e006383e6ea6c3d06a28,61364ec46ce25e291b8fc175,,,,,,,,
f,0.8336,0,54,54,2,1,5f5286c9fe322954c5256681,OOOOROO,OOOOROR,20.43051175,21.02936224,series_1,5f5286c9fe322954c5256681,Mężczyzna,20,2021-09-06_19h25.55.437,rantool2,2021.1.4,Win32,60.0060006,6135e006383e6ea6c3d06a28,61364ec46ce25e291b8fc175,,,,,,,,
j,2.5597,0,55,55,51,1,5f5286c9fe322954c5256681,RROORRO,RROORRR,21.89852628,22.02786418,series_1,5f5286c9fe322954c5256681,Mężczyzna,20,2021-09-06_19h25.55.437,rantool2,2021.1.4,Win32,60.0060006,6135e006383e6ea6c3d06a28,61364ec46ce25e291b8fc175,,,,,,,,
f,2.5849,0,56,56,37,1,5f5286c9fe322954c5256681,ROORORO,ROORORR,20.42602454,21.57657071,series_1,5f5286c9fe322954c5256681,Mężczyzna,20,2021-09-06_19h25.55.437,rantool2,2021.1.4,Win32,60.0060006,6135e006383e6ea6c3d06a28,61364ec46ce25e291b8fc175,,,,,,,,
j,1.3049,0,57,57,44,1,5f5286c9fe322954c5256681,RORROOO,RORROOR,21.66733484,22.02566557,series_1,5f5286c9fe322954c5256681,Mężczyzna,20,2021-09-06_19h25.55.437,rantool2,2021.1.4,Win32,60.0060006,6135e006383e6ea6c3d06a28,61364ec46ce25e291b8fc175,,,,,,,,
j,1.9323,0,58,58,3,1,5f5286c9fe322954c5256681,OOOORRO,OOOORRR,20.90986523,21.74922619,series_1,5f5286c9fe322954c5256681,Mężczyzna,20,2021-09-06_19h25.55.437,rantool2,2021.1.4,Win32,60.0060006,6135e006383e6ea6c3d06a28,61364ec46ce25e291b8fc175,,,,,,,,
j,1.4539,0,59,59,21,1,5f5286c9fe322954c5256681,ORORORO,ORORORR,20.39515459,22.06781359,series_1,5f5286c9fe322954c5256681,Mężczyzna,20,2021-09-06_19h25.55.437,rantool2,2021.1.4,Win32,60.0060006,6135e006383e6ea6c3d06a28,61364ec46ce25e291b8fc175,,,,,,,,
f,1.3072,0,60,60,59,1,5f5286c9fe322954c5256681,RRRORRO,RRRORRR,21.56657303,20.89823192,series_0,5f5286c9fe322954c5256681,Mężczyzna,20,2021-09-06_19h25.55.437,rantool2,2021.1.4,Win32,60.0060006,6135e006383e6ea6c3d06a28,61364ec46ce25e291b8fc175,,,,,,,,
j,1.7667,0,61,61,43,1,5f5286c9fe322954c5256681,RORORRO,RORORRR,20.71309134,21.07490964,series_1,5f5286c9fe322954c5256681,Mężczyzna,20,2021-09-06_19h25.55.437,rantool2,2021.1.4,Win32,60.0060006,6135e006383e6ea6c3d06a28,61364ec46ce25e291b8fc175,,,,,,,,
f,1.7031,0,62,62,10,1,5f5286c9fe322954c5256681,OOROROO,OOROROR,21.31236711,21.07490964,series_0,5f5286c9fe322954c5256681,Mężczyzna,20,2021-09-06_19h25.55.437,rantool2,2021.1.4,Win32,60.0060006,6135e006383e6ea6c3d06a28,61364ec46ce25e291b8fc175,,,,,,,,
j,1.2105,0,63,63,16,1,5f5286c9fe322954c5256681,OROOOOO,OROOOOR,20.43051175,21.17347734,series_1,5f5286c9fe322954c5256681,Mężczyzna,20,2021-09-06_19h25.55.437,rantool2,2021.1.4,Win32,60.0060006,6135e006383e6ea6c3d06a28,61364ec46ce25e291b8fc175,,,,,,,,
,,,,,,,5f5286c9fe322954c5256681,,,,,,5f5286c9fe322954c5256681,Mężczyzna,20,2021-09-06_19h25.55.437,rantool2,2021.1.4,Win32,60.0060006,6135e006383e6ea6c3d06a28,61364ec46ce25e291b8fc175,"[""comma""]",0,[0.9082999999998265],0,0,0,0,1
,,,,,,,5f5286c9fe322954c5256681,,,,,,5f5286c9fe322954c5256681,Mężczyzna,20,2021-09-06_19h25.55.437,rantool2,2021.1.4,Win32,60.0060006,6135e006383e6ea6c3d06a28,61364ec46ce25e291b8fc175,"[""period""]",0,[0.2610000000000241],1,0,1,0,1
,,,,,,,5f5286c9fe322954c5256681,,,,,,5f5286c9fe322954c5256681,Mężczyzna,20,2021-09-06_19h25.55.437,rantool2,2021.1.4,Win32,60.0060006,6135e006383e6ea6c3d06a28,61364ec46ce25e291b8fc175,"[""comma""]",0,[0.5169999999999959],2,0,2,0,1
,,,,,,,5f5286c9fe322954c5256681,,,,,,5f5286c9fe322954c5256681,Mężczyzna,20,2021-09-06_19h25.55.437,rantool2,2021.1.4,Win32,60.0060006,6135e006383e6ea6c3d06a28,61364ec46ce25e291b8fc175,"[""period""]",0,[0.2608999999999355],3,0,3,0,1
,,,,,,,5f5286c9fe322954c5256681,,,,,,5f5286c9fe322954c5256681,Mężczyzna,20,2021-09-06_19h25.55.437,rantool2,2021.1.4,Win32,60.0060006,6135e006383e6ea6c3d06a28,61364ec46ce25e291b8fc175,"[""period""]",0,[0.29269999999968377],4,0,4,0,1
,,,,,,,5f5286c9fe322954c5256681,,,,,,5f5286c9fe322954c5256681,Mężczyzna,20,2021-09-06_19h25.55.437,rantool2,2021.1.4,Win32,60.0060006,6135e006383e6ea6c3d06a28,61364ec46ce25e291b8fc175,"[""comma""]",0,[0.2608999999998787],5,0,5,0,1
,,,,,,,5f5286c9fe322954c5256681,,,,,,5f5286c9fe322954c5256681,Mężczyzna,20,2021-09-06_19h25.55.437,rantool2,2021.1.4,Win32,60.0060006,6135e006383e6ea6c3d06a28,61364ec46ce25e291b8fc175,"[""period""]",0,[0.33269999999970423],6,0,6,0,1
,,,,,,,5f5286c9fe322954c5256681,,,,,,5f5286c9fe322954c5256681,Mężczyzna,20,2021-09-06_19h25.55.437,rantool2,2021.1.4,Win32,60.0060006,6135e006383e6ea6c3d06a28,61364ec46ce25e291b8fc175,"[""comma""]",0,[0.27640000000042164],7,0,7,0,1
,,,,,,,5f5286c9fe322954c5256681,,,,,,5f5286c9fe322954c5256681,Mężczyzna,20,2021-09-06_19h25.55.437,rantool2,2021.1.4,Win32,60.0060006,6135e006383e6ea6c3d06a28,61364ec46ce25e291b8fc175,"[""period""]",0,[0.28450000000003683],8,0,8,0,1
,,,,,,,5f5286c9fe322954c5256681,,,,,,5f5286c9fe322954c5256681,Mężczyzna,20,2021-09-06_19h25.55.437,rantool2,2021.1.4,Win32,60.0060006,6135e006383e6ea6c3d06a28,61364ec46ce25e291b8fc175,"[""period""]",0,[0.5003000000002658],9,0,9,0,1
,,,,,,,5f5286c9fe322954c5256681,,,,,,5f5286c9fe322954c5256681,Mężczyzna,20,2021-09-06_19h25.55.437,rantool2,2021.1.4,Win32,60.0060006,6135e006383e6ea6c3d06a28,61364ec46ce25e291b8fc175,"[""period""]",0,[0.40449999999998454],10,0,10,0,1
,,,,,,,5f5286c9fe322954c5256681,,,,,,5f5286c9fe322954c5256681,Mężczyzna,20,2021-09-06_19h25.55.437,rantool2,2021.1.4,Win32,60.0060006,6135e006383e6ea6c3d06a28,61364ec46ce25e291b8fc175,"[""comma""]",0,[0.9399999999999977],11,0,11,0,1
,,,,,,,5f5286c9fe322954c5256681,,,,,,5f5286c9fe322954c5256681,Mężczyzna,20,2021-09-06_19h25.55.437,rantool2,2021.1.4,Win32,60.0060006,6135e006383e6ea6c3d06a28,61364ec46ce25e291b8fc175,"[""comma""]",0,[0.33209999999962747],12,0,12,0,1
,,,,,,,5f5286c9fe322954c5256681,,,,,,5f5286c9fe322954c5256681,Mężczyzna,20,2021-09-06_19h25.55.437,rantool2,2021.1.4,Win32,60.0060006,6135e006383e6ea6c3d06a28,61364ec46ce25e291b8fc175,"[""period""]",0,[0.27600000000001046],13,0,13,0,1
,,,,,,,5f5286c9fe322954c5256681,,,,,,5f5286c9fe322954c5256681,Mężczyzna,20,2021-09-06_19h25.55.437,rantool2,2021.1.4,Win32,60.0060006,6135e006383e6ea6c3d06a28,61364ec46ce25e291b8fc175,"[""period""]",0,[0.651900000000353],14,0,14,0,1
,,,,,,,5f5286c9fe322954c5256681,,,,,,5f5286c9fe322954c5256681,Mężczyzna,20,2021-09-06_19h25.55.437,rantool2,2021.1.4,Win32,60.0060006,6135e006383e6ea6c3d06a28,61364ec46ce25e291b8fc175,"[""comma""]",0,[0.3077000000001817],15,0,15,0,1
,,,,,,,5f5286c9fe322954c5256681,,,,,,5f5286c9fe322954c5256681,Mężczyzna,20,2021-09-06_19h25.55.437,rantool2,2021.1.4,Win32,60.0060006,6135e006383e6ea6c3d06a28,61364ec46ce25e291b8fc175,"[""comma""]",0,[0.3652999999998201],16,0,16,0,1
,,,,,,,5f5286c9fe322954c5256681,,,,,,5f5286c9fe322954c5256681,Mężczyzna,20,2021-09-06_19h25.55.437,rantool2,2021.1.4,Win32,60.0060006,6135e006383e6ea6c3d06a28,61364ec46ce25e291b8fc175,"[""period""]",0,[0.7876000000001113],17,0,17,0,1
,,,,,,,5f5286c9fe322954c5256681,,,,,,5f5286c9fe322954c5256681,Mężczyzna,20,2021-09-06_19h25.55.437,rantool2,2021.1.4,Win32,60.0060006,6135e006383e6ea6c3d06a28,61364ec46ce25e291b8fc175,"[""comma""]",0,[0.2916000000000736],18,0,18,0,1
,,,,,,,5f5286c9fe322954c5256681,,,,,,5f5286c9fe322954c5256681,Mężczyzna,20,2021-09-06_19h25.55.437,rantool2,2021.1.4,Win32,60.0060006,6135e006383e6ea6c3d06a28,61364ec46ce25e291b8fc175,"[""period""]",0,[0.35550000000000637],19,0,19,0,1
,,,,,,,5f5286c9fe322954c5256681,,,,,,5f5286c9fe322954c5256681,Mężczyzna,20,2021-09-06_19h25.55.437,rantool2,2021.1.4,Win32,60.0060006,6135e006383e6ea6c3d06a28,61364ec46ce25e291b8fc175,"[""comma""]",0,[0.4194000000003939],20,0,20,0,1
,,,,,,,5f5286c9fe322954c5256681,,,,,,5f5286c9fe322954c5256681,Mężczyzna,20,2021-09-06_19h25.55.437,rantool2,2021.1.4,Win32,60.0060006,6135e006383e6ea6c3d06a28,61364ec46ce25e291b8fc175,"[""comma""]",0,[0.2834000000003698],21,0,21,0,1
,,,,,,,5f5286c9fe322954c5256681,,,,,,5f5286c9fe322954c5256681,Mężczyzna,20,2021-09-06_19h25.55.437,rantool2,2021.1.4,Win32,60.0060006,6135e006383e6ea6c3d06a28,61364ec46ce25e291b8fc175,"[""comma""]",0,[0.13230000000027076],22,0,22,0,1
,,,,,,,5f5286c9fe322954c5256681,,,,,,5f5286c9fe322954c5256681,Mężczyzna,20,2021-09-06_19h25.55.437,rantool2,2021.1.4,Win32,60.0060006,6135e006383e6ea6c3d06a28,61364ec46ce25e291b8fc175,"[""comma""]",0,[0.34989999999993415],23,0,23,0,1
,,,,,,,5f5286c9fe322954c5256681,,,,,,5f5286c9fe322954c5256681,Mężczyzna,20,2021-09-06_19h25.55.437,rantool2,2021.1.4,Win32,60.0060006,6135e006383e6ea6c3d06a28,61364ec46ce25e291b8fc175,"[""comma""]",0,[0.39409999999958245],24,0,24,0,1
,,,,,,,5f5286c9fe322954c5256681,,,,,,5f5286c9fe322954c5256681,Mężczyzna,20,2021-09-06_19h25.55.437,rantool2,2021.1.4,Win32,60.0060006,6135e006383e6ea6c3d06a28,61364ec46ce25e291b8fc175,"[""comma""]",0,[0.46699999999998454],25,0,25,0,1
,,,,,,,5f5286c9fe322954c5256681,,,,,,5f5286c9fe322954c5256681,Mężczyzna,20,2021-09-06_19h25.55.437,rantool2,2021.1.4,Win32,60.0060006,6135e006383e6ea6c3d06a28,61364ec46ce25e291b8fc175,"[""period""]",0,[0.33219999999971606],26,0,26,0,1
,,,,,,,5f5286c9fe322954c5256681,,,,,,5f5286c9fe322954c5256681,Mężczyzna,20,2021-09-06_19h25.55.437,rantool2,2021.1.4,Win32,60.0060006,6135e006383e6ea6c3d06a28,61364ec46ce25e291b8fc175,"[""comma""]",0,[0.3322000000001708],27,0,27,0,1
,,,,,,,5f5286c9fe322954c5256681,,,,,,5f5286c9fe322954c5256681,Mężczyzna,20,2021-09-06_19h25.55.437,rantool2,2021.1.4,Win32,60.0060006,6135e006383e6ea6c3d06a28,61364ec46ce25e291b8fc175,"[""period""]",0,[0.48280000000028167],28,0,28,0,1
,,,,,,,5f5286c9fe322954c5256681,,,,,,5f5286c9fe322954c5256681,Mężczyzna,20,2021-09-06_19h25.55.437,rantool2,2021.1.4,Win32,60.0060006,6135e006383e6ea6c3d06a28,61364ec46ce25e291b8fc175,"[""comma""]",0,[0.4988000000003012],29,0,29,0,1
,,,,,,,5f5286c9fe322954c5256681,,,,,,5f5286c9fe322954c5256681,Mężczyzna,20,2021-09-06_19h25.55.437,rantool2,2021.1.4,Win32,60.0060006,6135e006383e6ea6c3d06a28,61364ec46ce25e291b8fc175,"[""period""]",0,[0.24250000000000682],30,0,30,0,1
,,,,,,,5f5286c9fe322954c5256681,,,,,,5f5286c9fe322954c5256681,Mężczyzna,20,2021-09-06_19h25.55.437,rantool2,2021.1.4,Win32,60.0060006,6135e006383e6ea6c3d06a28,61364ec46ce25e291b8fc175,"[""comma""]",0,[0.3065000000000282],31,0,31,0,1
,,,,,,,5f5286c9fe322954c5256681,,,,,,5f5286c9fe322954c5256681,Mężczyzna,20,2021-09-06_19h25.55.437,rantool2,2021.1.4,Win32,60.0060006,6135e006383e6ea6c3d06a28,61364ec46ce25e291b8fc175,"[""comma""]",0,[0.33190000000041664],32,0,32,0,1
,,,,,,,5f5286c9fe322954c5256681,,,,,,5f5286c9fe322954c5256681,Mężczyzna,20,2021-09-06_19h25.55.437,rantool2,2021.1.4,Win32,60.0060006,6135e006383e6ea6c3d06a28,61364ec46ce25e291b8fc175,"[""period""]",0,[0.3066000000001168],33,0,33,0,1
,,,,,,,5f5286c9fe322954c5256681,,,,,,5f5286c9fe322954c5256681,Mężczyzna,20,2021-09-06_19h25.55.437,rantool2,2021.1.4,Win32,60.0060006,6135e006383e6ea6c3d06a28,61364ec46ce25e291b8fc175,"[""comma""]",0,[0.4022000000002208],34,0,34,0,1
,,,,,,,5f5286c9fe322954c5256681,,,,,,5f5286c9fe322954c5256681,Mężczyzna,20,2021-09-06_19h25.55.437,rantool2,2021.1.4,Win32,60.0060006,6135e006383e6ea6c3d06a28,61364ec46ce25e291b8fc175,"[""period""]",0,[0.7860000000000014],35,0,35,0,1
,,,,,,,5f5286c9fe322954c5256681,,,,,,5f5286c9fe322954c5256681,Mężczyzna,20,2021-09-06_19h25.55.437,rantool2,2021.1.4,Win32,60.0060006,6135e006383e6ea6c3d06a28,61364ec46ce25e291b8fc175,"[""comma""]",0,[0.6021000000001209],36,0,36,0,1
,,,,,,,5f5286c9fe322954c5256681,,,,,,5f5286c9fe322954c5256681,Mężczyzna,20,2021-09-06_19h25.55.437,rantool2,2021.1.4,Win32,60.0060006,6135e006383e6ea6c3d06a28,61364ec46ce25e291b8fc175,"[""comma""]",0,[0.27410000000014634],37,0,37,0,1
,,,,,,,5f5286c9fe322954c5256681,,,,,,5f5286c9fe322954c5256681,Mężczyzna,20,2021-09-06_19h25.55.437,rantool2,2021.1.4,Win32,60.0060006,6135e006383e6ea6c3d06a28,61364ec46ce25e291b8fc175,"[""comma""]",0,[0.2658999999998741],38,0,38,0,1
,,,,,,,5f5286c9fe322954c5256681,,,,,,5f5286c9fe322954c5256681,Mężczyzna,20,2021-09-06_19h25.55.437,rantool2,2021.1.4,Win32,60.0060006,6135e006383e6ea6c3d06a28,61364ec46ce25e291b8fc175,"[""period""]",0,[0.33819999999968786],39,0,39,0,1
,,,,,,,5f5286c9fe322954c5256681,,,,,,5f5286c9fe322954c5256681,Mężczyzna,20,2021-09-06_19h25.55.437,rantool2,2021.1.4,Win32,60.0060006,6135e006383e6ea6c3d06a28,61364ec46ce25e291b8fc175,"[""period""]",0,[0.20970000000016853],40,0,40,0,1
,,,,,,,5f5286c9fe322954c5256681,,,,,,5f5286c9fe322954c5256681,Mężczyzna,20,2021-09-06_19h25.55.437,rantool2,2021.1.4,Win32,60.0060006,6135e006383e6ea6c3d06a28,61364ec46ce25e291b8fc175,"[""period""]",0,[0.7938000000002603],41,0,41,0,1
,,,,,,,5f5286c9fe322954c5256681,,,,,,5f5286c9fe322954c5256681,Mężczyzna,20,2021-09-06_19h25.55.437,rantool2,2021.1.4,Win32,60.0060006,6135e006383e6ea6c3d06a28,61364ec46ce25e291b8fc175,"[""period""]",0,[0.36170000000015534],42,0,42,0,1
,,,,,,,5f5286c9fe322954c5256681,,,,,,5f5286c9fe322954c5256681,Mężczyzna,20,2021-09-06_19h25.55.437,rantool2,2021.1.4,Win32,60.0060006,6135e006383e6ea6c3d06a28,61364ec46ce25e291b8fc175,"[""comma""]",0,[0.25760000000008176],43,0,43,0,1
,,,,,,,5f5286c9fe322954c5256681,,,,,,5f5286c9fe322954c5256681,Mężczyzna,20,2021-09-06_19h25.55.437,rantool2,2021.1.4,Win32,60.0060006,6135e006383e6ea6c3d06a28,61364ec46ce25e291b8fc175,"[""comma""]",0,[1.0494999999999663],44,0,44,0,1
,,,,,,,5f5286c9fe322954c5256681,,,,,,5f5286c9fe322954c5256681,Mężczyzna,20,2021-09-06_19h25.55.437,rantool2,2021.1.4,Win32,60.0060006,6135e006383e6ea6c3d06a28,61364ec46ce25e291b8fc175,"[""comma""]",0,[0.2892999999997983],45,0,45,0,1
,,,,,,,5f5286c9fe322954c5256681,,,,,,5f5286c9fe322954c5256681,Mężczyzna,20,2021-09-06_19h25.55.437,rantool2,2021.1.4,Win32,60.0060006,6135e006383e6ea6c3d06a28,61364ec46ce25e291b8fc175,0,0,,46,0,46,0,1
,,,,,,,5f5286c9fe322954c5256681,,,,,,5f5286c9fe322954c5256681,Mężczyzna,20,2021-09-06_19h25.55.437,rantool2,2021.1.4,Win32,60.0060006,6135e006383e6ea6c3d06a28,61364ec46ce25e291b8fc175,0,0,,47,0,47,0,1
,,,,,,,5f5286c9fe322954c5256681,,,,,,5f5286c9fe322954c5256681,Mężczyzna,20,2021-09-06_19h25.55.437,rantool2,2021.1.4,Win32,60.0060006,6135e006383e6ea6c3d06a28,61364ec46ce25e291b8fc175,"[""period""]",0,[0.3531000000000972],48,0,48,0,1
,,,,,,,5f5286c9fe322954c5256681,,,,,,5f5286c9fe322954c5256681,Mężczyzna,20,2021-09-06_19h25.55.437,rantool2,2021.1.4,Win32,60.0060006,6135e006383e6ea6c3d06a28,61364ec46ce25e291b8fc175,"[""period""]",0,[0.27310000000011314],49,0,49,0,1
,,,,,,,5f5286c9fe322954c5256681,,,,,,5f5286c9fe322954c5256681,Mężczyzna,20,2021-09-06_19h25.55.437,rantool2,2021.1.4,Win32,60.0060006,6135e006383e6ea6c3d06a28,61364ec46ce25e291b8fc175,"[""period""]",0,[0.3051000000000954],50,0,50,0,1
,,,,,,,5f5286c9fe322954c5256681,,,,,,5f5286c9fe322954c5256681,Mężczyzna,20,2021-09-06_19h25.55.437,rantool2,2021.1.4,Win32,60.0060006,6135e006383e6ea6c3d06a28,61364ec46ce25e291b8fc175,"[""comma""]",0,[0.3927999999997951],51,0,51,0,1
,,,,,,,5f5286c9fe322954c5256681,,,,,,5f5286c9fe322954c5256681,Mężczyzna,20,2021-09-06_19h25.55.437,rantool2,2021.1.4,Win32,60.0060006,6135e006383e6ea6c3d06a28,61364ec46ce25e291b8fc175,"[""comma""]",0,[0.9607000000002017],52,0,52,0,1
,,,,,,,5f5286c9fe322954c5256681,,,,,,5f5286c9fe322954c5256681,Mężczyzna,20,2021-09-06_19h25.55.437,rantool2,2021.1.4,Win32,60.0060006,6135e006383e6ea6c3d06a28,61364ec46ce25e291b8fc175,"[""comma""]",0,[0.35250000000002046],53,0,53,0,1
,,,,,,,5f5286c9fe322954c5256681,,,,,,5f5286c9fe322954c5256681,Mężczyzna,20,2021-09-06_19h25.55.437,rantool2,2021.1.4,Win32,60.0060006,6135e006383e6ea6c3d06a28,61364ec46ce25e291b8fc175,"[""comma"",""comma"",""comma"",""comma"",""comma"",""comma""]",0,"[0.30439999999993006,0.7044999999999959,1.0653999999998973,1.3363999999999123,1.6324999999999932,1.928600000000074]",54,0,54,0,1
,,,,,,,5f5286c9fe322954c5256681,,,,,,5f5286c9fe322954c5256681,Mężczyzna,20,2021-09-06_19h25.55.437,rantool2,2021.1.4,Win32,60.0060006,6135e006383e6ea6c3d06a28,61364ec46ce25e291b8fc175,"[""comma"",""comma"",""comma"",""period""]",0,"[0.20070000000021082,0.4328000000002703,0.6656000000000972,0.9046000000000731]",55,0,55,0,1
,,,,,,,5f5286c9fe322954c5256681,,,,,,5f5286c9fe322954c5256681,Mężczyzna,20,2021-09-06_19h25.55.437,rantool2,2021.1.4,Win32,60.0060006,6135e006383e6ea6c3d06a28,61364ec46ce25e291b8fc175,"[""period""]",0,[0.23239999999992733],56,0,56,0,1
,,,,,,,5f5286c9fe322954c5256681,,,,,,5f5286c9fe322954c5256681,Mężczyzna,20,2021-09-06_19h25.55.437,rantool2,2021.1.4,Win32,60.0060006,6135e006383e6ea6c3d06a28,61364ec46ce25e291b8fc175,"[""comma""]",0,[0.4002999999998451],57,0,57,0,1
,,,,,,,5f5286c9fe322954c5256681,,,,,,5f5286c9fe322954c5256681,Mężczyzna,20,2021-09-06_19h25.55.437,rantool2,2021.1.4,Win32,60.0060006,6135e006383e6ea6c3d06a28,61364ec46ce25e291b8fc175,"[""period""]",0,[0.3285999999996534],58,0,58,0,1
,,,,,,,5f5286c9fe322954c5256681,,,,,,5f5286c9fe322954c5256681,Mężczyzna,20,2021-09-06_19h25.55.437,rantool2,2021.1.4,Win32,60.0060006,6135e006383e6ea6c3d06a28,61364ec46ce25e291b8fc175,"[""comma""]",0,[0.472200000000214],59,0,59,0,1
,,,,,,,5f5286c9fe322954c5256681,,,,,,5f5286c9fe322954c5256681,Mężczyzna,20,2021-09-06_19h25.55.437,rantool2,2021.1.4,Win32,60.0060006,6135e006383e6ea6c3d06a28,61364ec46ce25e291b8fc175,"[""period""]",0,[0.38410000000010314],60,0,60,0,1
,,,,,,,5f5286c9fe322954c5256681,,,,,,5f5286c9fe322954c5256681,Mężczyzna,20,2021-09-06_19h25.55.437,rantool2,2021.1.4,Win32,60.0060006,6135e006383e6ea6c3d06a28,61364ec46ce25e291b8fc175,"[""comma""]",0,[0.2821000000001277],61,0,61,0,1
,,,,,,,5f5286c9fe322954c5256681,,,,,,5f5286c9fe322954c5256681,Mężczyzna,20,2021-09-06_19h25.55.437,rantool2,2021.1.4,Win32,60.0060006,6135e006383e6ea6c3d06a28,61364ec46ce25e291b8fc175,"[""period""]",0,[0.29889999999994643],62,0,62,0,1
,,,,,,,5f5286c9fe322954c5256681,,,,,,5f5286c9fe322954c5256681,Mężczyzna,20,2021-09-06_19h25.55.437,rantool2,2021.1.4,Win32,60.0060006,6135e006383e6ea6c3d06a28,61364ec46ce25e291b8fc175,"[""period""]",0,[0.26549999999997453],63,0,63,0,1
,,,,,,,5f5286c9fe322954c5256681,,,,,,5f5286c9fe322954c5256681,Mężczyzna,20,2021-09-06_19h25.55.437,rantool2,2021.1.4,Win32,60.0060006,6135e006383e6ea6c3d06a28,61364ec46ce25e291b8fc175,"[""comma""]",0,[0.24910000000011223],64,0,64,0,1
,,,,,,,5f5286c9fe322954c5256681,,,,,,5f5286c9fe322954c5256681,Mężczyzna,20,2021-09-06_19h25.55.437,rantool2,2021.1.4,Win32,60.0060006,6135e006383e6ea6c3d06a28,61364ec46ce25e291b8fc175,"[""comma""]",0,[0.439600000000155],65,0,65,0,1
,,,,,,,5f5286c9fe322954c5256681,,,,,,5f5286c9fe322954c5256681,Mężczyzna,20,2021-09-06_19h25.55.437,rantool2,2021.1.4,Win32,60.0060006,6135e006383e6ea6c3d06a28,61364ec46ce25e291b8fc175,"[""comma"",""comma"",""comma""]",0,"[0.23959999999965476,0.8877999999998565,1.9357999999998583]",66,0,66,0,1
,,,,,,,5f5286c9fe322954c5256681,,,,,,5f5286c9fe322954c5256681,Mężczyzna,20,2021-09-06_19h25.55.437,rantool2,2021.1.4,Win32,60.0060006,6135e006383e6ea6c3d06a28,61364ec46ce25e291b8fc175,"[""comma"",""comma"",""comma"",""comma"",""comma""]",0,"[0.13549999999997908,0.33560000000011314,0.53550000000007,0.7593999999999141,1.0715000000000146]",67,0,67,0,1
,,,,,,,5f5286c9fe322954c5256681,,,,,,5f5286c9fe322954c5256681,Mężczyzna,20,2021-09-06_19h25.55.437,rantool2,2021.1.4,Win32,60.0060006,6135e006383e6ea6c3d06a28,61364ec46ce25e291b8fc175,"[""period""]",0,[0.24870000000021264],68,0,68,0,1
,,,,,,,5f5286c9fe322954c5256681,,,,,,5f5286c9fe322954c5256681,Mężczyzna,20,2021-09-06_19h25.55.437,rantool2,2021.1.4,Win32,60.0060006,6135e006383e6ea6c3d06a28,61364ec46ce25e291b8fc175,"[""period""]",0,[0.3994999999999891],69,0,69,0,1
,,,,,,,5f5286c9fe322954c5256681,,,,,,5f5286c9fe322954c5256681,Mężczyzna,20,2021-09-06_19h25.55.437,rantool2,2021.1.4,Win32,60.0060006,6135e006383e6ea6c3d06a28,61364ec46ce25e291b8fc175,"[""comma""]",0,[0.3351999999997588],70,0,70,0,1
,,,,,,,5f5286c9fe322954c5256681,,,,,,5f5286c9fe322954c5256681,Mężczyzna,20,2021-09-06_19h25.55.437,rantool2,2021.1.4,Win32,60.0060006,6135e006383e6ea6c3d06a28,61364ec46ce25e291b8fc175,"[""period""]",0,[0.28219999999976153],71,0,71,0,1
,,,,,,,5f5286c9fe322954c5256681,,,,,,5f5286c9fe322954c5256681,Mężczyzna,20,2021-09-06_19h25.55.437,rantool2,2021.1.4,Win32,60.0060006,6135e006383e6ea6c3d06a28,61364ec46ce25e291b8fc175,"[""period""]",0,[1.1833999999998923],72,0,72,0,1
,,,,,,,5f5286c9fe322954c5256681,,,,,,5f5286c9fe322954c5256681,Mężczyzna,20,2021-09-06_19h25.55.437,rantool2,2021.1.4,Win32,60.0060006,6135e006383e6ea6c3d06a28,61364ec46ce25e291b8fc175,"[""period""]",0,[0.48700000000008004],73,0,73,0,1
,,,,,,,5f5286c9fe322954c5256681,,,,,,5f5286c9fe322954c5256681,Mężczyzna,20,2021-09-06_19h25.55.437,rantool2,2021.1.4,Win32,60.0060006,6135e006383e6ea6c3d06a28,61364ec46ce25e291b8fc175,"[""comma""]",0,[0.5828999999999951],74,0,74,0,1
,,,,,,,5f5286c9fe322954c5256681,,,,,,5f5286c9fe322954c5256681,Mężczyzna,20,2021-09-06_19h25.55.437,rantool2,2021.1.4,Win32,60.0060006,6135e006383e6ea6c3d06a28,61364ec46ce25e291b8fc175,"[""period""]",0,[1.1188999999999396],75,0,75,0,1
,,,,,,,5f5286c9fe322954c5256681,,,,,,5f5286c9fe322954c5256681,Mężczyzna,20,2021-09-06_19h25.55.437,rantool2,2021.1.4,Win32,60.0060006,6135e006383e6ea6c3d06a28,61364ec46ce25e291b8fc175,"[""period""]",0,[0.3588999999999487],76,0,76,0,1
,,,,,,,5f5286c9fe322954c5256681,,,,,,5f5286c9fe322954c5256681,Mężczyzna,20,2021-09-06_19h25.55.437,rantool2,2021.1.4,Win32,60.0060006,6135e006383e6ea6c3d06a28,61364ec46ce25e291b8fc175,"[""comma""]",0,[0.4545999999996866],77,0,77,0,1
,,,,,,,5f5286c9fe322954c5256681,,,,,,5f5286c9fe322954c5256681,Mężczyzna,20,2021-09-06_19h25.55.437,rantool2,2021.1.4,Win32,60.0060006,6135e006383e6ea6c3d06a28,61364ec46ce25e291b8fc175,"[""period""]",0,[0.40679999999986194],78,0,78,0,1
,,,,,,,5f5286c9fe322954c5256681,,,,,,5f5286c9fe322954c5256681,Mężczyzna,20,2021-09-06_19h25.55.437,rantool2,2021.1.4,Win32,60.0060006,6135e006383e6ea6c3d06a28,61364ec46ce25e291b8fc175,"[""comma""]",0,[0.3425000000000864],79,0,79,0,1
,,,,,,,5f5286c9fe322954c5256681,,,,,,5f5286c9fe322954c5256681,Mężczyzna,20,2021-09-06_19h25.55.437,rantool2,2021.1.4,Win32,60.0060006,6135e006383e6ea6c3d06a28,61364ec46ce25e291b8fc175,0,0,,80,0,80,0,1
,,,,,,,5f5286c9fe322954c5256681,,,,,,5f5286c9fe322954c5256681,Mężczyzna,20,2021-09-06_19h25.55.437,rantool2,2021.1.4,Win32,60.0060006,6135e006383e6ea6c3d06a28,61364ec46ce25e291b8fc175,"[""comma""]",0,[0.3586000000001377],81,0,81,0,1
,,,,,,,5f5286c9fe322954c5256681,,,,,,5f5286c9fe322954c5256681,Mężczyzna,20,2021-09-06_19h25.55.437,rantool2,2021.1.4,Win32,60.0060006,6135e006383e6ea6c3d06a28,61364ec46ce25e291b8fc175,0,0,,82,0,82,0,1
,,,,,,,5f5286c9fe322954c5256681,,,,,,5f5286c9fe322954c5256681,Mężczyzna,20,2021-09-06_19h25.55.437,rantool2,2021.1.4,Win32,60.0060006,6135e006383e6ea6c3d06a28,61364ec46ce25e291b8fc175,"[""comma""]",0,[0.3821999999996706],83,0,83,0,1
,,,,,,,5f5286c9fe322954c5256681,,,,,,5f5286c9fe322954c5256681,Mężczyzna,20,2021-09-06_19h25.55.437,rantool2,2021.1.4,Win32,60.0060006,6135e006383e6ea6c3d06a28,61364ec46ce25e291b8fc175,0,0,,84,0,84,0,1
,,,,,,,5f5286c9fe322954c5256681,,,,,,5f5286c9fe322954c5256681,Mężczyzna,20,2021-09-06_19h25.55.437,rantool2,2021.1.4,Win32,60.0060006,6135e006383e6ea6c3d06a28,61364ec46ce25e291b8fc175,"[""comma""]",0,[0.3419000000004644],85,0,85,0,1
,,,,,,,5f5286c9fe322954c5256681,,,,,,5f5286c9fe322954c5256681,Mężczyzna,20,2021-09-06_19h25.55.437,rantool2,2021.1.4,Win32,60.0060006,6135e006383e6ea6c3d06a28,61364ec46ce25e291b8fc175,0,0,,86,0,86,0,1
,,,,,,,5f5286c9fe322954c5256681,,,,,,5f5286c9fe322954c5256681,Mężczyzna,20,2021-09-06_19h25.55.437,rantool2,2021.1.4,Win32,60.0060006,6135e006383e6ea6c3d06a28,61364ec46ce25e291b8fc175,"[""comma""]",0,[0.37370000000009895],87,0,87,0,1
,,,,,,,5f5286c9fe322954c5256681,,,,,,5f5286c9fe322954c5256681,Mężczyzna,20,2021-09-06_19h25.55.437,rantool2,2021.1.4,Win32,60.0060006,6135e006383e6ea6c3d06a28,61364ec46ce25e291b8fc175,"[""comma""]",0,[0.4318999999998141],88,0,88,0,1
,,,,,,,5f5286c9fe322954c5256681,,,,,,5f5286c9fe322954c5256681,Mężczyzna,20,2021-09-06_19h25.55.437,rantool2,2021.1.4,Win32,60.0060006,6135e006383e6ea6c3d06a28,61364ec46ce25e291b8fc175,0,0,,89,0,89,0,1
,,,,,,,5f5286c9fe322954c5256681,,,,,,5f5286c9fe322954c5256681,Mężczyzna,20,2021-09-06_19h25.55.437,rantool2,2021.1.4,Win32,60.0060006,6135e006383e6ea6c3d06a28,61364ec46ce25e291b8fc175,0,0,,90,0,90,0,1
,,,,,,,5f5286c9fe322954c5256681,,,,,,5f5286c9fe322954c5256681,Mężczyzna,20,2021-09-06_19h25.55.437,rantool2,2021.1.4,Win32,60.0060006,6135e006383e6ea6c3d06a28,61364ec46ce25e291b8fc175,"[""comma""]",0,[0.4855000000000018],91,0,91,0,1
,,,,,,,5f5286c9fe322954c5256681,,,,,,5f5286c9fe322954c5256681,Mężczyzna,20,2021-09-06_19h25.55.437,rantool2,2021.1.4,Win32,60.0060006,6135e006383e6ea6c3d06a28,61364ec46ce25e291b8fc175,0,0,,92,0,92,0,1
,,,,,,,5f5286c9fe322954c5256681,,,,,,5f5286c9fe322954c5256681,Mężczyzna,20,2021-09-06_19h25.55.437,rantool2,2021.1.4,Win32,60.0060006,6135e006383e6ea6c3d06a28,61364ec46ce25e291b8fc175,"[""comma""]",0,[0.38220000000012533],93,0,93,0,1
,,,,,,,5f5286c9fe322954c5256681,,,,,,5f5286c9fe322954c5256681,Mężczyzna,20,2021-09-06_19h25.55.437,rantool2,2021.1.4,Win32,60.0060006,6135e006383e6ea6c3d06a28,61364ec46ce25e291b8fc175,0,0,,94,0,94,0,1
,,,,,,,5f5286c9fe322954c5256681,,,,,,5f5286c9fe322954c5256681,Mężczyzna,20,2021-09-06_19h25.55.437,rantool2,2021.1.4,Win32,60.0060006,6135e006383e6ea6c3d06a28,61364ec46ce25e291b8fc175,"[""comma""]",0,[0.34110000000009677],95,0,95,0,1
,,,,,,,5f5286c9fe322954c5256681,,,,,,5f5286c9fe322954c5256681,Mężczyzna,20,2021-09-06_19h25.55.437,rantool2,2021.1.4,Win32,60.0060006,6135e006383e6ea6c3d06a28,61364ec46ce25e291b8fc175,0,0,,96,0,96,0,1
,,,,,,,5f5286c9fe322954c5256681,,,,,,5f5286c9fe322954c5256681,Mężczyzna,20,2021-09-06_19h25.55.437,rantool2,2021.1.4,Win32,60.0060006,6135e006383e6ea6c3d06a28,61364ec46ce25e291b8fc175,"[""comma""]",0,[0.44499999999993634],97,0,97,0,1
,,,,,,,5f5286c9fe322954c5256681,,,,,,5f5286c9fe322954c5256681,Mężczyzna,20,2021-09-06_19h25.55.437,rantool2,2021.1.4,Win32,60.0060006,6135e006383e6ea6c3d06a28,61364ec46ce25e291b8fc175,0,0,,98,0,98,0,1
,,,,,,,5f5286c9fe322954c5256681,,,,,,5f5286c9fe322954c5256681,Mężczyzna,20,2021-09-06_19h25.55.437,rantool2,2021.1.4,Win32,60.0060006,6135e006383e6ea6c3d06a28,61364ec46ce25e291b8fc175,"[""comma""]",0,[0.3487000000001217],99,0,99,0,1
,,,,,,,5f5286c9fe322954c5256681,,,,,,5f5286c9fe322954c5256681,Mężczyzna,20,2021-09-06_19h25.55.437,rantool2,2021.1.4,Win32,60.0060006,6135e006383e6ea6c3d06a28,61364ec46ce25e291b8fc175,0,0,,100,0,100,0,1
,,,,,,,5f5286c9fe322954c5256681,,,,,,5f5286c9fe322954c5256681,Mężczyzna,20,2021-09-06_19h25.55.437,rantool2,2021.1.4,Win32,60.0060006,6135e006383e6ea6c3d06a28,61364ec46ce25e291b8fc175,"[""comma""]",0,[0.3086000000000695],101,0,101,0,1
,,,,,,,5f5286c9fe322954c5256681,,,,,,5f5286c9fe322954c5256681,Mężczyzna,20,2021-09-06_19h25.55.437,rantool2,2021.1.4,Win32,60.0060006,6135e006383e6ea6c3d06a28,61364ec46ce25e291b8fc175,0,0,,102,0,102,0,1
,,,,,,,5f5286c9fe322954c5256681,,,,,,5f5286c9fe322954c5256681,Mężczyzna,20,2021-09-06_19h25.55.437,rantool2,2021.1.4,Win32,60.0060006,6135e006383e6ea6c3d06a28,61364ec46ce25e291b8fc175,"[""comma""]",0,[0.34869999999966694],103,0,103,0,1
,,,,,,,5f5286c9fe322954c5256681,,,,,,5f5286c9fe322954c5256681,Mężczyzna,20,2021-09-06_19h25.55.437,rantool2,2021.1.4,Win32,60.0060006,6135e006383e6ea6c3d06a28,61364ec46ce25e291b8fc175,0,0,,104,0,104,0,1
,,,,,,,5f5286c9fe322954c5256681,,,,,,5f5286c9fe322954c5256681,Mężczyzna,20,2021-09-06_19h25.55.437,rantool2,2021.1.4,Win32,60.0060006,6135e006383e6ea6c3d06a28,61364ec46ce25e291b8fc175,"[""comma""]",0,[0.4124000000003889],105,0,105,0,1
,,,,,,,5f5286c9fe322954c5256681,,,,,,5f5286c9fe322954c5256681,Mężczyzna,20,2021-09-06_19h25.55.437,rantool2,2021.1.4,Win32,60.0060006,6135e006383e6ea6c3d06a28,61364ec46ce25e291b8fc175,0,0,,106,0,106,0,1
,,,,,,,5f5286c9fe322954c5256681,,,,,,5f5286c9fe322954c5256681,Mężczyzna,20,2021-09-06_19h25.55.437,rantool2,2021.1.4,Win32,60.0060006,6135e006383e6ea6c3d06a28,61364ec46ce25e291b8fc175,"[""comma""]",0,[0.32429999999976644],107,0,107,0,1
,,,,,,,5f5286c9fe322954c5256681,,,,,,5f5286c9fe322954c5256681,Mężczyzna,20,2021-09-06_19h25.55.437,rantool2,2021.1.4,Win32,60.0060006,6135e006383e6ea6c3d06a28,61364ec46ce25e291b8fc175,0,0,,108,0,108,0,1
,,,,,,,5f5286c9fe322954c5256681,,,,,,5f5286c9fe322954c5256681,Mężczyzna,20,2021-09-06_19h25.55.437,rantool2,2021.1.4,Win32,60.0060006,6135e006383e6ea6c3d06a28,61364ec46ce25e291b8fc175,"[""comma""]",0,[0.34000000000003183],109,0,109,0,1
,,,,,,,5f5286c9fe322954c5256681,,,,,,5f5286c9fe322954c5256681,Mężczyzna,20,2021-09-06_19h25.55.437,rantool2,2021.1.4,Win32,60.0060006,6135e006383e6ea6c3d06a28,61364ec46ce25e291b8fc175,0,0,,110,0,110,0,1
,,,,,,,5f5286c9fe322954c5256681,,,,,,5f5286c9fe322954c5256681,Mężczyzna,20,2021-09-06_19h25.55.437,rantool2,2021.1.4,Win32,60.0060006,6135e006383e6ea6c3d06a28,61364ec46ce25e291b8fc175,"[""comma""]",0,[0.34880000000032396],111,0,111,0,1
,,,,,,,5f5286c9fe322954c5256681,,,,,,5f5286c9fe322954c5256681,Mężczyzna,20,2021-09-06_19h25.55.437,rantool2,2021.1.4,Win32,60.0060006,6135e006383e6ea6c3d06a28,61364ec46ce25e291b8fc175,0,0,,112,0,112,0,1
,,,,,,,5f5286c9fe322954c5256681,,,,,,5f5286c9fe322954c5256681,Mężczyzna,20,2021-09-06_19h25.55.437,rantool2,2021.1.4,Win32,60.0060006,6135e006383e6ea6c3d06a28,61364ec46ce25e291b8fc175,"[""comma""]",0,[0.2999999999999545],113,0,113,0,1
,,,,,,,5f5286c9fe322954c5256681,,,,,,5f5286c9fe322954c5256681,Mężczyzna,20,2021-09-06_19h25.55.437,rantool2,2021.1.4,Win32,60.0060006,6135e006383e6ea6c3d06a28,61364ec46ce25e291b8fc175,"[""comma""]",0,[0.34879999999975553],114,0,114,0,1
,,,,,,,5f5286c9fe322954c5256681,,,,,,5f5286c9fe322954c5256681,Mężczyzna,20,2021-09-06_19h25.55.437,rantool2,2021.1.4,Win32,60.0060006,6135e006383e6ea6c3d06a28,61364ec46ce25e291b8fc175,0,0,,115,0,115,0,1
,,,,,,,5f5286c9fe322954c5256681,,,,,,5f5286c9fe322954c5256681,Mężczyzna,20,2021-09-06_19h25.55.437,rantool2,2021.1.4,Win32,60.0060006,6135e006383e6ea6c3d06a28,61364ec46ce25e291b8fc175,0,0,,116,0,116,0,1
,,,,,,,5f5286c9fe322954c5256681,,,,,,5f5286c9fe322954c5256681,Mężczyzna,20,2021-09-06_19h25.55.437,rantool2,2021.1.4,Win32,60.0060006,6135e006383e6ea6c3d06a28,61364ec46ce25e291b8fc175,"[""comma""]",0,[0.3490000000000464],117,0,117,0,1
,,,,,,,5f5286c9fe322954c5256681,,,,,,5f5286c9fe322954c5256681,Mężczyzna,20,2021-09-06_19h25.55.437,rantool2,2021.1.4,Win32,60.0060006,6135e006383e6ea6c3d06a28,61364ec46ce25e291b8fc175,"[""comma""]",0,[0.30739999999991596],118,0,118,0,1
,,,,,,,5f5286c9fe322954c5256681,,,,,,5f5286c9fe322954c5256681,Mężczyzna,20,2021-09-06_19h25.55.437,rantool2,2021.1.4,Win32,60.0060006,6135e006383e6ea6c3d06a28,61364ec46ce25e291b8fc175,0,0,,119,0,119,0,1
