key_resp_5.keys,key_resp_5.corr,key_resp_5.rt,trials.thisRepN,trials.thisTrialN,trials.thisN,trials.thisIndex,trials.ran,id*,Płeć*,Wiek*,date,expName,psychopyVersion,OS,frameRate,id,STUDY_ID,SESSION_ID,key_resp_7.keys,key_resp_7.rt,trials_2.thisRepN,trials_2.thisTrialN,trials_2.thisN,trials_2.thisIndex,trials_2.ran,series_0,series_1,acss_0,acss_1,comparison
0,,,0,0,0,0,1,60ec2a3c77245c91cd44b93a,Kobieta,19,2021-07-13_21h09.09.411,rantool2,2021.1.4,Win32,59.91611744,60ec2a3c77245c91cd44b93a,60d9d14f4a8a35a482e0d9bf,60ede4a7087668ff6201e9e9,,,,,,,,,,,,
"[""comma""]",0,[0.334900000005959],1,0,1,0,1,60ec2a3c77245c91cd44b93a,Kobieta,19,2021-07-13_21h09.09.411,rantool2,2021.1.4,Win32,59.91611744,60ec2a3c77245c91cd44b93a,60d9d14f4a8a35a482e0d9bf,60ede4a7087668ff6201e9e9,,,,,,,,,,,,
"[""comma""]",0,[0.3001999999880809],2,0,2,0,1,60ec2a3c77245c91cd44b93a,Kobieta,19,2021-07-13_21h09.09.411,rantool2,2021.1.4,Win32,59.91611744,60ec2a3c77245c91cd44b93a,60d9d14f4a8a35a482e0d9bf,60ede4a7087668ff6201e9e9,,,,,,,,,,,,
"[""period""]",0,[0.22090000000596888],3,0,3,0,1,60ec2a3c77245c91cd44b93a,Kobieta,19,2021-07-13_21h09.09.411,rantool2,2021.1.4,Win32,59.91611744,60ec2a3c77245c91cd44b93a,60d9d14f4a8a35a482e0d9bf,60ede4a7087668ff6201e9e9,,,,,,,,,,,,
"[""comma""]",0,[0.25709999999403976],4,0,4,0,1,60ec2a3c77245c91cd44b93a,Kobieta,19,2021-07-13_21h09.09.411,rantool2,2021.1.4,Win32,59.91611744,60ec2a3c77245c91cd44b93a,60d9d14f4a8a35a482e0d9bf,60ede4a7087668ff6201e9e9,,,,,,,,,,,,
"[""period""]",0,[0.2507000000178863],5,0,5,0,1,60ec2a3c77245c91cd44b93a,Kobieta,19,2021-07-13_21h09.09.411,rantool2,2021.1.4,Win32,59.91611744,60ec2a3c77245c91cd44b93a,60d9d14f4a8a35a482e0d9bf,60ede4a7087668ff6201e9e9,,,,,,,,,,,,
"[""comma""]",0,[0.27809999999404056],6,0,6,0,1,60ec2a3c77245c91cd44b93a,Kobieta,19,2021-07-13_21h09.09.411,rantool2,2021.1.4,Win32,59.91611744,60ec2a3c77245c91cd44b93a,60d9d14f4a8a35a482e0d9bf,60ede4a7087668ff6201e9e9,,,,,,,,,,,,
"[""period""]",0,[0.2674999999999983],7,0,7,0,1,60ec2a3c77245c91cd44b93a,Kobieta,19,2021-07-13_21h09.09.411,rantool2,2021.1.4,Win32,59.91611744,60ec2a3c77245c91cd44b93a,60d9d14f4a8a35a482e0d9bf,60ede4a7087668ff6201e9e9,,,,,,,,,,,,
"[""comma""]",0,[0.38370000001788185],8,0,8,0,1,60ec2a3c77245c91cd44b93a,Kobieta,19,2021-07-13_21h09.09.411,rantool2,2021.1.4,Win32,59.91611744,60ec2a3c77245c91cd44b93a,60d9d14f4a8a35a482e0d9bf,60ede4a7087668ff6201e9e9,,,,,,,,,,,,
"[""comma""]",0,[0.27670000001788253],9,0,9,0,1,60ec2a3c77245c91cd44b93a,Kobieta,19,2021-07-13_21h09.09.411,rantool2,2021.1.4,Win32,59.91611744,60ec2a3c77245c91cd44b93a,60d9d14f4a8a35a482e0d9bf,60ede4a7087668ff6201e9e9,,,,,,,,,,,,
"[""comma""]",0,[0.3104000000059699],10,0,10,0,1,60ec2a3c77245c91cd44b93a,Kobieta,19,2021-07-13_21h09.09.411,rantool2,2021.1.4,Win32,59.91611744,60ec2a3c77245c91cd44b93a,60d9d14f4a8a35a482e0d9bf,60ede4a7087668ff6201e9e9,,,,,,,,,,,,
"[""period""]",0,[0.2213000000119223],11,0,11,0,1,60ec2a3c77245c91cd44b93a,Kobieta,19,2021-07-13_21h09.09.411,rantool2,2021.1.4,Win32,59.91611744,60ec2a3c77245c91cd44b93a,60d9d14f4a8a35a482e0d9bf,60ede4a7087668ff6201e9e9,,,,,,,,,,,,
"[""period""]",0,[0.2562999999821187],12,0,12,0,1,60ec2a3c77245c91cd44b93a,Kobieta,19,2021-07-13_21h09.09.411,rantool2,2021.1.4,Win32,59.91611744,60ec2a3c77245c91cd44b93a,60d9d14f4a8a35a482e0d9bf,60ede4a7087668ff6201e9e9,,,,,,,,,,,,
"[""comma""]",0,[0.29350000000000875],13,0,13,0,1,60ec2a3c77245c91cd44b93a,Kobieta,19,2021-07-13_21h09.09.411,rantool2,2021.1.4,Win32,59.91611744,60ec2a3c77245c91cd44b93a,60d9d14f4a8a35a482e0d9bf,60ede4a7087668ff6201e9e9,,,,,,,,,,,,
"[""comma""]",0,[0.2673000000119288],14,0,14,0,1,60ec2a3c77245c91cd44b93a,Kobieta,19,2021-07-13_21h09.09.411,rantool2,2021.1.4,Win32,59.91611744,60ec2a3c77245c91cd44b93a,60d9d14f4a8a35a482e0d9bf,60ede4a7087668ff6201e9e9,,,,,,,,,,,,
"[""period""]",0,[0.233699999988076],15,0,15,0,1,60ec2a3c77245c91cd44b93a,Kobieta,19,2021-07-13_21h09.09.411,rantool2,2021.1.4,Win32,59.91611744,60ec2a3c77245c91cd44b93a,60d9d14f4a8a35a482e0d9bf,60ede4a7087668ff6201e9e9,,,,,,,,,,,,
"[""comma""]",0,[0.3008999999761528],16,0,16,0,1,60ec2a3c77245c91cd44b93a,Kobieta,19,2021-07-13_21h09.09.411,rantool2,2021.1.4,Win32,59.91611744,60ec2a3c77245c91cd44b93a,60d9d14f4a8a35a482e0d9bf,60ede4a7087668ff6201e9e9,,,,,,,,,,,,
"[""period""]",0,[0.2795999999940477],17,0,17,0,1,60ec2a3c77245c91cd44b93a,Kobieta,19,2021-07-13_21h09.09.411,rantool2,2021.1.4,Win32,59.91611744,60ec2a3c77245c91cd44b93a,60d9d14f4a8a35a482e0d9bf,60ede4a7087668ff6201e9e9,,,,,,,,,,,,
"[""comma""]",0,[0.5500000000000114],18,0,18,0,1,60ec2a3c77245c91cd44b93a,Kobieta,19,2021-07-13_21h09.09.411,rantool2,2021.1.4,Win32,59.91611744,60ec2a3c77245c91cd44b93a,60d9d14f4a8a35a482e0d9bf,60ede4a7087668ff6201e9e9,,,,,,,,,,,,
"[""comma""]",0,[0.3002999999821441],19,0,19,0,1,60ec2a3c77245c91cd44b93a,Kobieta,19,2021-07-13_21h09.09.411,rantool2,2021.1.4,Win32,59.91611744,60ec2a3c77245c91cd44b93a,60d9d14f4a8a35a482e0d9bf,60ede4a7087668ff6201e9e9,,,,,,,,,,,,
"[""comma""]",0,[0.2817999999821268],20,0,20,0,1,60ec2a3c77245c91cd44b93a,Kobieta,19,2021-07-13_21h09.09.411,rantool2,2021.1.4,Win32,59.91611744,60ec2a3c77245c91cd44b93a,60d9d14f4a8a35a482e0d9bf,60ede4a7087668ff6201e9e9,,,,,,,,,,,,
"[""period""]",0,[0.2506999999880861],21,0,21,0,1,60ec2a3c77245c91cd44b93a,Kobieta,19,2021-07-13_21h09.09.411,rantool2,2021.1.4,Win32,59.91611744,60ec2a3c77245c91cd44b93a,60d9d14f4a8a35a482e0d9bf,60ede4a7087668ff6201e9e9,,,,,,,,,,,,
"[""period""]",0,[0.3886999999880629],22,0,22,0,1,60ec2a3c77245c91cd44b93a,Kobieta,19,2021-07-13_21h09.09.411,rantool2,2021.1.4,Win32,59.91611744,60ec2a3c77245c91cd44b93a,60d9d14f4a8a35a482e0d9bf,60ede4a7087668ff6201e9e9,,,,,,,,,,,,
"[""period""]",0,[0.34120000001786366],23,0,23,0,1,60ec2a3c77245c91cd44b93a,Kobieta,19,2021-07-13_21h09.09.411,rantool2,2021.1.4,Win32,59.91611744,60ec2a3c77245c91cd44b93a,60d9d14f4a8a35a482e0d9bf,60ede4a7087668ff6201e9e9,,,,,,,,,,,,
"[""comma""]",0,[0.2735999999940475],24,0,24,0,1,60ec2a3c77245c91cd44b93a,Kobieta,19,2021-07-13_21h09.09.411,rantool2,2021.1.4,Win32,59.91611744,60ec2a3c77245c91cd44b93a,60d9d14f4a8a35a482e0d9bf,60ede4a7087668ff6201e9e9,,,,,,,,,,,,
"[""comma""]",0,[0.28589999997615223],25,0,25,0,1,60ec2a3c77245c91cd44b93a,Kobieta,19,2021-07-13_21h09.09.411,rantool2,2021.1.4,Win32,59.91611744,60ec2a3c77245c91cd44b93a,60d9d14f4a8a35a482e0d9bf,60ede4a7087668ff6201e9e9,,,,,,,,,,,,
"[""comma""]",0,[0.28459999999401475],26,0,26,0,1,60ec2a3c77245c91cd44b93a,Kobieta,19,2021-07-13_21h09.09.411,rantool2,2021.1.4,Win32,59.91611744,60ec2a3c77245c91cd44b93a,60d9d14f4a8a35a482e0d9bf,60ede4a7087668ff6201e9e9,,,,,,,,,,,,
"[""comma""]",0,[0.29440000000596456],27,0,27,0,1,60ec2a3c77245c91cd44b93a,Kobieta,19,2021-07-13_21h09.09.411,rantool2,2021.1.4,Win32,59.91611744,60ec2a3c77245c91cd44b93a,60d9d14f4a8a35a482e0d9bf,60ede4a7087668ff6201e9e9,,,,,,,,,,,,
"[""period""]",0,[0.302199999988062],28,0,28,0,1,60ec2a3c77245c91cd44b93a,Kobieta,19,2021-07-13_21h09.09.411,rantool2,2021.1.4,Win32,59.91611744,60ec2a3c77245c91cd44b93a,60d9d14f4a8a35a482e0d9bf,60ede4a7087668ff6201e9e9,,,,,,,,,,,,
"[""period""]",0,[0.32169999998805565],29,0,29,0,1,60ec2a3c77245c91cd44b93a,Kobieta,19,2021-07-13_21h09.09.411,rantool2,2021.1.4,Win32,59.91611744,60ec2a3c77245c91cd44b93a,60d9d14f4a8a35a482e0d9bf,60ede4a7087668ff6201e9e9,,,,,,,,,,,,
"[""period""]",0,[0.44950000000000045],30,0,30,0,1,60ec2a3c77245c91cd44b93a,Kobieta,19,2021-07-13_21h09.09.411,rantool2,2021.1.4,Win32,59.91611744,60ec2a3c77245c91cd44b93a,60d9d14f4a8a35a482e0d9bf,60ede4a7087668ff6201e9e9,,,,,,,,,,,,
"[""comma""]",0,[0.2680000000000007],31,0,31,0,1,60ec2a3c77245c91cd44b93a,Kobieta,19,2021-07-13_21h09.09.411,rantool2,2021.1.4,Win32,59.91611744,60ec2a3c77245c91cd44b93a,60d9d14f4a8a35a482e0d9bf,60ede4a7087668ff6201e9e9,,,,,,,,,,,,
"[""period""]",0,[0.3064999999999998],32,0,32,0,1,60ec2a3c77245c91cd44b93a,Kobieta,19,2021-07-13_21h09.09.411,rantool2,2021.1.4,Win32,59.91611744,60ec2a3c77245c91cd44b93a,60d9d14f4a8a35a482e0d9bf,60ede4a7087668ff6201e9e9,,,,,,,,,,,,
"[""period""]",0,[0.41690000000596683],33,0,33,0,1,60ec2a3c77245c91cd44b93a,Kobieta,19,2021-07-13_21h09.09.411,rantool2,2021.1.4,Win32,59.91611744,60ec2a3c77245c91cd44b93a,60d9d14f4a8a35a482e0d9bf,60ede4a7087668ff6201e9e9,,,,,,,,,,,,
"[""period""]",0,[0.33779999998210997],34,0,34,0,1,60ec2a3c77245c91cd44b93a,Kobieta,19,2021-07-13_21h09.09.411,rantool2,2021.1.4,Win32,59.91611744,60ec2a3c77245c91cd44b93a,60d9d14f4a8a35a482e0d9bf,60ede4a7087668ff6201e9e9,,,,,,,,,,,,
"[""period""]",0,[0.17069999998807361],35,0,35,0,1,60ec2a3c77245c91cd44b93a,Kobieta,19,2021-07-13_21h09.09.411,rantool2,2021.1.4,Win32,59.91611744,60ec2a3c77245c91cd44b93a,60d9d14f4a8a35a482e0d9bf,60ede4a7087668ff6201e9e9,,,,,,,,,,,,
"[""comma""]",0,[0.1565000000000225],36,0,36,0,1,60ec2a3c77245c91cd44b93a,Kobieta,19,2021-07-13_21h09.09.411,rantool2,2021.1.4,Win32,59.91611744,60ec2a3c77245c91cd44b93a,60d9d14f4a8a35a482e0d9bf,60ede4a7087668ff6201e9e9,,,,,,,,,,,,
"[""comma""]",0,[0.23799999999999955],37,0,37,0,1,60ec2a3c77245c91cd44b93a,Kobieta,19,2021-07-13_21h09.09.411,rantool2,2021.1.4,Win32,59.91611744,60ec2a3c77245c91cd44b93a,60d9d14f4a8a35a482e0d9bf,60ede4a7087668ff6201e9e9,,,,,,,,,,,,
"[""comma""]",0,[0.2887999999821034],38,0,38,0,1,60ec2a3c77245c91cd44b93a,Kobieta,19,2021-07-13_21h09.09.411,rantool2,2021.1.4,Win32,59.91611744,60ec2a3c77245c91cd44b93a,60d9d14f4a8a35a482e0d9bf,60ede4a7087668ff6201e9e9,,,,,,,,,,,,
"[""comma""]",0,[0.3906999999880725],39,0,39,0,1,60ec2a3c77245c91cd44b93a,Kobieta,19,2021-07-13_21h09.09.411,rantool2,2021.1.4,Win32,59.91611744,60ec2a3c77245c91cd44b93a,60d9d14f4a8a35a482e0d9bf,60ede4a7087668ff6201e9e9,,,,,,,,,,,,
"[""period""]",0,[0.26690000000596115],40,0,40,0,1,60ec2a3c77245c91cd44b93a,Kobieta,19,2021-07-13_21h09.09.411,rantool2,2021.1.4,Win32,59.91611744,60ec2a3c77245c91cd44b93a,60d9d14f4a8a35a482e0d9bf,60ede4a7087668ff6201e9e9,,,,,,,,,,,,
"[""period""]",0,[0.25030000001191866],41,0,41,0,1,60ec2a3c77245c91cd44b93a,Kobieta,19,2021-07-13_21h09.09.411,rantool2,2021.1.4,Win32,59.91611744,60ec2a3c77245c91cd44b93a,60d9d14f4a8a35a482e0d9bf,60ede4a7087668ff6201e9e9,,,,,,,,,,,,
"[""period""]",0,[0.26659999999401407],42,0,42,0,1,60ec2a3c77245c91cd44b93a,Kobieta,19,2021-07-13_21h09.09.411,rantool2,2021.1.4,Win32,59.91611744,60ec2a3c77245c91cd44b93a,60d9d14f4a8a35a482e0d9bf,60ede4a7087668ff6201e9e9,,,,,,,,,,,,
"[""comma""]",0,[-0.01570000001785843],43,0,43,0,1,60ec2a3c77245c91cd44b93a,Kobieta,19,2021-07-13_21h09.09.411,rantool2,2021.1.4,Win32,59.91611744,60ec2a3c77245c91cd44b93a,60d9d14f4a8a35a482e0d9bf,60ede4a7087668ff6201e9e9,,,,,,,,,,,,
"[""comma""]",0,[0.22259999999403135],44,0,44,0,1,60ec2a3c77245c91cd44b93a,Kobieta,19,2021-07-13_21h09.09.411,rantool2,2021.1.4,Win32,59.91611744,60ec2a3c77245c91cd44b93a,60d9d14f4a8a35a482e0d9bf,60ede4a7087668ff6201e9e9,,,,,,,,,,,,
"[""comma""]",0,[0.26809999999403544],45,0,45,0,1,60ec2a3c77245c91cd44b93a,Kobieta,19,2021-07-13_21h09.09.411,rantool2,2021.1.4,Win32,59.91611744,60ec2a3c77245c91cd44b93a,60d9d14f4a8a35a482e0d9bf,60ede4a7087668ff6201e9e9,,,,,,,,,,,,
"[""comma""]",0,[0.38289999997616064],46,0,46,0,1,60ec2a3c77245c91cd44b93a,Kobieta,19,2021-07-13_21h09.09.411,rantool2,2021.1.4,Win32,59.91611744,60ec2a3c77245c91cd44b93a,60d9d14f4a8a35a482e0d9bf,60ede4a7087668ff6201e9e9,,,,,,,,,,,,
"[""period""]",0,[0.2668999999761752],47,0,47,0,1,60ec2a3c77245c91cd44b93a,Kobieta,19,2021-07-13_21h09.09.411,rantool2,2021.1.4,Win32,59.91611744,60ec2a3c77245c91cd44b93a,60d9d14f4a8a35a482e0d9bf,60ede4a7087668ff6201e9e9,,,,,,,,,,,,
"[""comma""]",0,[0.3545000000000016],48,0,48,0,1,60ec2a3c77245c91cd44b93a,Kobieta,19,2021-07-13_21h09.09.411,rantool2,2021.1.4,Win32,59.91611744,60ec2a3c77245c91cd44b93a,60d9d14f4a8a35a482e0d9bf,60ede4a7087668ff6201e9e9,,,,,,,,,,,,
"[""period""]",0,[0.2516000000238421],49,0,49,0,1,60ec2a3c77245c91cd44b93a,Kobieta,19,2021-07-13_21h09.09.411,rantool2,2021.1.4,Win32,59.91611744,60ec2a3c77245c91cd44b93a,60d9d14f4a8a35a482e0d9bf,60ede4a7087668ff6201e9e9,,,,,,,,,,,,
"[""period""]",0,[0.20109999999402817],50,0,50,0,1,60ec2a3c77245c91cd44b93a,Kobieta,19,2021-07-13_21h09.09.411,rantool2,2021.1.4,Win32,59.91611744,60ec2a3c77245c91cd44b93a,60d9d14f4a8a35a482e0d9bf,60ede4a7087668ff6201e9e9,,,,,,,,,,,,
"[""comma""]",0,[0.6989999999999839],51,0,51,0,1,60ec2a3c77245c91cd44b93a,Kobieta,19,2021-07-13_21h09.09.411,rantool2,2021.1.4,Win32,59.91611744,60ec2a3c77245c91cd44b93a,60d9d14f4a8a35a482e0d9bf,60ede4a7087668ff6201e9e9,,,,,,,,,,,,
"[""period""]",0,[0.4332000000178766],52,0,52,0,1,60ec2a3c77245c91cd44b93a,Kobieta,19,2021-07-13_21h09.09.411,rantool2,2021.1.4,Win32,59.91611744,60ec2a3c77245c91cd44b93a,60d9d14f4a8a35a482e0d9bf,60ede4a7087668ff6201e9e9,,,,,,,,,,,,
"[""comma""]",0,[0.267300000011943],53,0,53,0,1,60ec2a3c77245c91cd44b93a,Kobieta,19,2021-07-13_21h09.09.411,rantool2,2021.1.4,Win32,59.91611744,60ec2a3c77245c91cd44b93a,60d9d14f4a8a35a482e0d9bf,60ede4a7087668ff6201e9e9,,,,,,,,,,,,
"[""period""]",0,[0.28390000000595705],54,0,54,0,1,60ec2a3c77245c91cd44b93a,Kobieta,19,2021-07-13_21h09.09.411,rantool2,2021.1.4,Win32,59.91611744,60ec2a3c77245c91cd44b93a,60d9d14f4a8a35a482e0d9bf,60ede4a7087668ff6201e9e9,,,,,,,,,,,,
"[""comma""]",0,[0.4008000000119125],55,0,55,0,1,60ec2a3c77245c91cd44b93a,Kobieta,19,2021-07-13_21h09.09.411,rantool2,2021.1.4,Win32,59.91611744,60ec2a3c77245c91cd44b93a,60d9d14f4a8a35a482e0d9bf,60ede4a7087668ff6201e9e9,,,,,,,,,,,,
"[""comma""]",0,[0.3174000000059607],56,0,56,0,1,60ec2a3c77245c91cd44b93a,Kobieta,19,2021-07-13_21h09.09.411,rantool2,2021.1.4,Win32,59.91611744,60ec2a3c77245c91cd44b93a,60d9d14f4a8a35a482e0d9bf,60ede4a7087668ff6201e9e9,,,,,,,,,,,,
"[""period""]",0,[0.2418000000119207],57,0,57,0,1,60ec2a3c77245c91cd44b93a,Kobieta,19,2021-07-13_21h09.09.411,rantool2,2021.1.4,Win32,59.91611744,60ec2a3c77245c91cd44b93a,60d9d14f4a8a35a482e0d9bf,60ede4a7087668ff6201e9e9,,,,,,,,,,,,
"[""period""]",0,[0.4339999999999975],58,0,58,0,1,60ec2a3c77245c91cd44b93a,Kobieta,19,2021-07-13_21h09.09.411,rantool2,2021.1.4,Win32,59.91611744,60ec2a3c77245c91cd44b93a,60d9d14f4a8a35a482e0d9bf,60ede4a7087668ff6201e9e9,,,,,,,,,,,,
"[""comma""]",0,[0.3390999999940334],59,0,59,0,1,60ec2a3c77245c91cd44b93a,Kobieta,19,2021-07-13_21h09.09.411,rantool2,2021.1.4,Win32,59.91611744,60ec2a3c77245c91cd44b93a,60d9d14f4a8a35a482e0d9bf,60ede4a7087668ff6201e9e9,,,,,,,,,,,,
"[""comma""]",0,[0.24990000000596524],60,0,60,0,1,60ec2a3c77245c91cd44b93a,Kobieta,19,2021-07-13_21h09.09.411,rantool2,2021.1.4,Win32,59.91611744,60ec2a3c77245c91cd44b93a,60d9d14f4a8a35a482e0d9bf,60ede4a7087668ff6201e9e9,,,,,,,,,,,,
"[""comma""]",0,[0.2830999999940502],61,0,61,0,1,60ec2a3c77245c91cd44b93a,Kobieta,19,2021-07-13_21h09.09.411,rantool2,2021.1.4,Win32,59.91611744,60ec2a3c77245c91cd44b93a,60d9d14f4a8a35a482e0d9bf,60ede4a7087668ff6201e9e9,,,,,,,,,,,,
"[""period"",""period""]",0,"[0.24080000001191593,1.8840999999940493]",62,0,62,0,1,60ec2a3c77245c91cd44b93a,Kobieta,19,2021-07-13_21h09.09.411,rantool2,2021.1.4,Win32,59.91611744,60ec2a3c77245c91cd44b93a,60d9d14f4a8a35a482e0d9bf,60ede4a7087668ff6201e9e9,,,,,,,,,,,,
0,0,,63,0,63,0,1,60ec2a3c77245c91cd44b93a,Kobieta,19,2021-07-13_21h09.09.411,rantool2,2021.1.4,Win32,59.91611744,60ec2a3c77245c91cd44b93a,60d9d14f4a8a35a482e0d9bf,60ede4a7087668ff6201e9e9,,,,,,,,,,,,
"[""period""]",0,[0.00959999999403749],64,0,64,0,1,60ec2a3c77245c91cd44b93a,Kobieta,19,2021-07-13_21h09.09.411,rantool2,2021.1.4,Win32,59.91611744,60ec2a3c77245c91cd44b93a,60d9d14f4a8a35a482e0d9bf,60ede4a7087668ff6201e9e9,,,,,,,,,,,,
"[""comma""]",0,[0.3838999999761654],65,0,65,0,1,60ec2a3c77245c91cd44b93a,Kobieta,19,2021-07-13_21h09.09.411,rantool2,2021.1.4,Win32,59.91611744,60ec2a3c77245c91cd44b93a,60d9d14f4a8a35a482e0d9bf,60ede4a7087668ff6201e9e9,,,,,,,,,,,,
"[""comma""]",0,[0.26590000000595637],66,0,66,0,1,60ec2a3c77245c91cd44b93a,Kobieta,19,2021-07-13_21h09.09.411,rantool2,2021.1.4,Win32,59.91611744,60ec2a3c77245c91cd44b93a,60d9d14f4a8a35a482e0d9bf,60ede4a7087668ff6201e9e9,,,,,,,,,,,,
"[""period""]",0,[0.293300000011925],67,0,67,0,1,60ec2a3c77245c91cd44b93a,Kobieta,19,2021-07-13_21h09.09.411,rantool2,2021.1.4,Win32,59.91611744,60ec2a3c77245c91cd44b93a,60d9d14f4a8a35a482e0d9bf,60ede4a7087668ff6201e9e9,,,,,,,,,,,,
"[""period""]",0,[0.3563000000119132],68,0,68,0,1,60ec2a3c77245c91cd44b93a,Kobieta,19,2021-07-13_21h09.09.411,rantool2,2021.1.4,Win32,59.91611744,60ec2a3c77245c91cd44b93a,60d9d14f4a8a35a482e0d9bf,60ede4a7087668ff6201e9e9,,,,,,,,,,,,
"[""comma""]",0,[0.2600000000000193],69,0,69,0,1,60ec2a3c77245c91cd44b93a,Kobieta,19,2021-07-13_21h09.09.411,rantool2,2021.1.4,Win32,59.91611744,60ec2a3c77245c91cd44b93a,60d9d14f4a8a35a482e0d9bf,60ede4a7087668ff6201e9e9,,,,,,,,,,,,
"[""comma""]",0,[0.2834000000059689],70,0,70,0,1,60ec2a3c77245c91cd44b93a,Kobieta,19,2021-07-13_21h09.09.411,rantool2,2021.1.4,Win32,59.91611744,60ec2a3c77245c91cd44b93a,60d9d14f4a8a35a482e0d9bf,60ede4a7087668ff6201e9e9,,,,,,,,,,,,
"[""period""]",0,[0.29230000001192025],71,0,71,0,1,60ec2a3c77245c91cd44b93a,Kobieta,19,2021-07-13_21h09.09.411,rantool2,2021.1.4,Win32,59.91611744,60ec2a3c77245c91cd44b93a,60d9d14f4a8a35a482e0d9bf,60ede4a7087668ff6201e9e9,,,,,,,,,,,,
"[""period""]",0,[0.29219999998809953],72,0,72,0,1,60ec2a3c77245c91cd44b93a,Kobieta,19,2021-07-13_21h09.09.411,rantool2,2021.1.4,Win32,59.91611744,60ec2a3c77245c91cd44b93a,60d9d14f4a8a35a482e0d9bf,60ede4a7087668ff6201e9e9,,,,,,,,,,,,
"[""comma""]",0,[0.2881000000238316],73,0,73,0,1,60ec2a3c77245c91cd44b93a,Kobieta,19,2021-07-13_21h09.09.411,rantool2,2021.1.4,Win32,59.91611744,60ec2a3c77245c91cd44b93a,60d9d14f4a8a35a482e0d9bf,60ede4a7087668ff6201e9e9,,,,,,,,,,,,
"[""comma""]",0,[0.23430000001192752],74,0,74,0,1,60ec2a3c77245c91cd44b93a,Kobieta,19,2021-07-13_21h09.09.411,rantool2,2021.1.4,Win32,59.91611744,60ec2a3c77245c91cd44b93a,60d9d14f4a8a35a482e0d9bf,60ede4a7087668ff6201e9e9,,,,,,,,,,,,
"[""period""]",0,[0.5001999999880979],75,0,75,0,1,60ec2a3c77245c91cd44b93a,Kobieta,19,2021-07-13_21h09.09.411,rantool2,2021.1.4,Win32,59.91611744,60ec2a3c77245c91cd44b93a,60d9d14f4a8a35a482e0d9bf,60ede4a7087668ff6201e9e9,,,,,,,,,,,,
"[""period""]",0,[0.3556999999880759],76,0,76,0,1,60ec2a3c77245c91cd44b93a,Kobieta,19,2021-07-13_21h09.09.411,rantool2,2021.1.4,Win32,59.91611744,60ec2a3c77245c91cd44b93a,60d9d14f4a8a35a482e0d9bf,60ede4a7087668ff6201e9e9,,,,,,,,,,,,
"[""period""]",0,[0.3440000000000225],77,0,77,0,1,60ec2a3c77245c91cd44b93a,Kobieta,19,2021-07-13_21h09.09.411,rantool2,2021.1.4,Win32,59.91611744,60ec2a3c77245c91cd44b93a,60d9d14f4a8a35a482e0d9bf,60ede4a7087668ff6201e9e9,,,,,,,,,,,,
"[""period""]",0,[0.3505999999940457],78,0,78,0,1,60ec2a3c77245c91cd44b93a,Kobieta,19,2021-07-13_21h09.09.411,rantool2,2021.1.4,Win32,59.91611744,60ec2a3c77245c91cd44b93a,60d9d14f4a8a35a482e0d9bf,60ede4a7087668ff6201e9e9,,,,,,,,,,,,
"[""comma""]",0,[0.2374000000059482],79,0,79,0,1,60ec2a3c77245c91cd44b93a,Kobieta,19,2021-07-13_21h09.09.411,rantool2,2021.1.4,Win32,59.91611744,60ec2a3c77245c91cd44b93a,60d9d14f4a8a35a482e0d9bf,60ede4a7087668ff6201e9e9,,,,,,,,,,,,
"[""comma""]",0,[0.2336999999880902],80,0,80,0,1,60ec2a3c77245c91cd44b93a,Kobieta,19,2021-07-13_21h09.09.411,rantool2,2021.1.4,Win32,59.91611744,60ec2a3c77245c91cd44b93a,60d9d14f4a8a35a482e0d9bf,60ede4a7087668ff6201e9e9,,,,,,,,,,,,
"[""comma""]",0,[0.28350000000003206],81,0,81,0,1,60ec2a3c77245c91cd44b93a,Kobieta,19,2021-07-13_21h09.09.411,rantool2,2021.1.4,Win32,59.91611744,60ec2a3c77245c91cd44b93a,60d9d14f4a8a35a482e0d9bf,60ede4a7087668ff6201e9e9,,,,,,,,,,,,
"[""comma""]",0,[0.43579999998212315],82,0,82,0,1,60ec2a3c77245c91cd44b93a,Kobieta,19,2021-07-13_21h09.09.411,rantool2,2021.1.4,Win32,59.91611744,60ec2a3c77245c91cd44b93a,60d9d14f4a8a35a482e0d9bf,60ede4a7087668ff6201e9e9,,,,,,,,,,,,
"[""period""]",0,[0.2353000000119323],83,0,83,0,1,60ec2a3c77245c91cd44b93a,Kobieta,19,2021-07-13_21h09.09.411,rantool2,2021.1.4,Win32,59.91611744,60ec2a3c77245c91cd44b93a,60d9d14f4a8a35a482e0d9bf,60ede4a7087668ff6201e9e9,,,,,,,,,,,,
"[""period""]",0,[0.28420000001790413],84,0,84,0,1,60ec2a3c77245c91cd44b93a,Kobieta,19,2021-07-13_21h09.09.411,rantool2,2021.1.4,Win32,59.91611744,60ec2a3c77245c91cd44b93a,60d9d14f4a8a35a482e0d9bf,60ede4a7087668ff6201e9e9,,,,,,,,,,,,
"[""period""]",0,[0.29209999999403635],85,0,85,0,1,60ec2a3c77245c91cd44b93a,Kobieta,19,2021-07-13_21h09.09.411,rantool2,2021.1.4,Win32,59.91611744,60ec2a3c77245c91cd44b93a,60d9d14f4a8a35a482e0d9bf,60ede4a7087668ff6201e9e9,,,,,,,,,,,,
"[""period""]",0,[0.2343000000118991],86,0,86,0,1,60ec2a3c77245c91cd44b93a,Kobieta,19,2021-07-13_21h09.09.411,rantool2,2021.1.4,Win32,59.91611744,60ec2a3c77245c91cd44b93a,60d9d14f4a8a35a482e0d9bf,60ede4a7087668ff6201e9e9,,,,,,,,,,,,
"[""comma""]",0,[0.23979999998209678],87,0,87,0,1,60ec2a3c77245c91cd44b93a,Kobieta,19,2021-07-13_21h09.09.411,rantool2,2021.1.4,Win32,59.91611744,60ec2a3c77245c91cd44b93a,60d9d14f4a8a35a482e0d9bf,60ede4a7087668ff6201e9e9,,,,,,,,,,,,
"[""comma""]",0,[0.4316999999880409],88,0,88,0,1,60ec2a3c77245c91cd44b93a,Kobieta,19,2021-07-13_21h09.09.411,rantool2,2021.1.4,Win32,59.91611744,60ec2a3c77245c91cd44b93a,60d9d14f4a8a35a482e0d9bf,60ede4a7087668ff6201e9e9,,,,,,,,,,,,
"[""comma""]",0,[0.33359999999402135],89,0,89,0,1,60ec2a3c77245c91cd44b93a,Kobieta,19,2021-07-13_21h09.09.411,rantool2,2021.1.4,Win32,59.91611744,60ec2a3c77245c91cd44b93a,60d9d14f4a8a35a482e0d9bf,60ede4a7087668ff6201e9e9,,,,,,,,,,,,
"[""period""]",0,[0.2507999999821209],90,0,90,0,1,60ec2a3c77245c91cd44b93a,Kobieta,19,2021-07-13_21h09.09.411,rantool2,2021.1.4,Win32,59.91611744,60ec2a3c77245c91cd44b93a,60d9d14f4a8a35a482e0d9bf,60ede4a7087668ff6201e9e9,,,,,,,,,,,,
"[""comma""]",0,[0.2574999999999932],91,0,91,0,1,60ec2a3c77245c91cd44b93a,Kobieta,19,2021-07-13_21h09.09.411,rantool2,2021.1.4,Win32,59.91611744,60ec2a3c77245c91cd44b93a,60d9d14f4a8a35a482e0d9bf,60ede4a7087668ff6201e9e9,,,,,,,,,,,,
"[""period""]",0,[0.45459999999400225],92,0,92,0,1,60ec2a3c77245c91cd44b93a,Kobieta,19,2021-07-13_21h09.09.411,rantool2,2021.1.4,Win32,59.91611744,60ec2a3c77245c91cd44b93a,60d9d14f4a8a35a482e0d9bf,60ede4a7087668ff6201e9e9,,,,,,,,,,,,
"[""comma""]",0,[0.4005000000000223],93,0,93,0,1,60ec2a3c77245c91cd44b93a,Kobieta,19,2021-07-13_21h09.09.411,rantool2,2021.1.4,Win32,59.91611744,60ec2a3c77245c91cd44b93a,60d9d14f4a8a35a482e0d9bf,60ede4a7087668ff6201e9e9,,,,,,,,,,,,
"[""comma""]",0,[0.4676000000238787],94,0,94,0,1,60ec2a3c77245c91cd44b93a,Kobieta,19,2021-07-13_21h09.09.411,rantool2,2021.1.4,Win32,59.91611744,60ec2a3c77245c91cd44b93a,60d9d14f4a8a35a482e0d9bf,60ede4a7087668ff6201e9e9,,,,,,,,,,,,
"[""period""]",0,[0.4262000000178432],95,0,95,0,1,60ec2a3c77245c91cd44b93a,Kobieta,19,2021-07-13_21h09.09.411,rantool2,2021.1.4,Win32,59.91611744,60ec2a3c77245c91cd44b93a,60d9d14f4a8a35a482e0d9bf,60ede4a7087668ff6201e9e9,,,,,,,,,,,,
"[""period""]",0,[0.41770000001787366],96,0,96,0,1,60ec2a3c77245c91cd44b93a,Kobieta,19,2021-07-13_21h09.09.411,rantool2,2021.1.4,Win32,59.91611744,60ec2a3c77245c91cd44b93a,60d9d14f4a8a35a482e0d9bf,60ede4a7087668ff6201e9e9,,,,,,,,,,,,
"[""period""]",0,[0.6324999999999932],97,0,97,0,1,60ec2a3c77245c91cd44b93a,Kobieta,19,2021-07-13_21h09.09.411,rantool2,2021.1.4,Win32,59.91611744,60ec2a3c77245c91cd44b93a,60d9d14f4a8a35a482e0d9bf,60ede4a7087668ff6201e9e9,,,,,,,,,,,,
"[""period""]",0,[0.31049999999999045],98,0,98,0,1,60ec2a3c77245c91cd44b93a,Kobieta,19,2021-07-13_21h09.09.411,rantool2,2021.1.4,Win32,59.91611744,60ec2a3c77245c91cd44b93a,60d9d14f4a8a35a482e0d9bf,60ede4a7087668ff6201e9e9,,,,,,,,,,,,
"[""comma""]",0,[0.3332999999821027],99,0,99,0,1,60ec2a3c77245c91cd44b93a,Kobieta,19,2021-07-13_21h09.09.411,rantool2,2021.1.4,Win32,59.91611744,60ec2a3c77245c91cd44b93a,60d9d14f4a8a35a482e0d9bf,60ede4a7087668ff6201e9e9,,,,,,,,,,,,
"[""period""]",0,[0.22040000000595228],100,0,100,0,1,60ec2a3c77245c91cd44b93a,Kobieta,19,2021-07-13_21h09.09.411,rantool2,2021.1.4,Win32,59.91611744,60ec2a3c77245c91cd44b93a,60d9d14f4a8a35a482e0d9bf,60ede4a7087668ff6201e9e9,,,,,,,,,,,,
"[""comma"",""period""]",0,"[0.30259999999401543,1.7531999999880554]",101,0,101,0,1,60ec2a3c77245c91cd44b93a,Kobieta,19,2021-07-13_21h09.09.411,rantool2,2021.1.4,Win32,59.91611744,60ec2a3c77245c91cd44b93a,60d9d14f4a8a35a482e0d9bf,60ede4a7087668ff6201e9e9,,,,,,,,,,,,
"[""comma""]",0,[1.553300000011916],102,0,102,0,1,60ec2a3c77245c91cd44b93a,Kobieta,19,2021-07-13_21h09.09.411,rantool2,2021.1.4,Win32,59.91611744,60ec2a3c77245c91cd44b93a,60d9d14f4a8a35a482e0d9bf,60ede4a7087668ff6201e9e9,,,,,,,,,,,,
0,0,,103,0,103,0,1,60ec2a3c77245c91cd44b93a,Kobieta,19,2021-07-13_21h09.09.411,rantool2,2021.1.4,Win32,59.91611744,60ec2a3c77245c91cd44b93a,60d9d14f4a8a35a482e0d9bf,60ede4a7087668ff6201e9e9,,,,,,,,,,,,
"[""period""]",0,[0.30370000001789776],104,0,104,0,1,60ec2a3c77245c91cd44b93a,Kobieta,19,2021-07-13_21h09.09.411,rantool2,2021.1.4,Win32,59.91611744,60ec2a3c77245c91cd44b93a,60d9d14f4a8a35a482e0d9bf,60ede4a7087668ff6201e9e9,,,,,,,,,,,,
"[""comma""]",0,[0.30000000000001137],105,0,105,0,1,60ec2a3c77245c91cd44b93a,Kobieta,19,2021-07-13_21h09.09.411,rantool2,2021.1.4,Win32,59.91611744,60ec2a3c77245c91cd44b93a,60d9d14f4a8a35a482e0d9bf,60ede4a7087668ff6201e9e9,,,,,,,,,,,,
"[""comma""]",0,[0.2847000000178923],106,0,106,0,1,60ec2a3c77245c91cd44b93a,Kobieta,19,2021-07-13_21h09.09.411,rantool2,2021.1.4,Win32,59.91611744,60ec2a3c77245c91cd44b93a,60d9d14f4a8a35a482e0d9bf,60ede4a7087668ff6201e9e9,,,,,,,,,,,,
"[""period""]",0,[0.322100000023795],107,0,107,0,1,60ec2a3c77245c91cd44b93a,Kobieta,19,2021-07-13_21h09.09.411,rantool2,2021.1.4,Win32,59.91611744,60ec2a3c77245c91cd44b93a,60d9d14f4a8a35a482e0d9bf,60ede4a7087668ff6201e9e9,,,,,,,,,,,,
"[""period""]",0,[0.4013000000119291],108,0,108,0,1,60ec2a3c77245c91cd44b93a,Kobieta,19,2021-07-13_21h09.09.411,rantool2,2021.1.4,Win32,59.91611744,60ec2a3c77245c91cd44b93a,60d9d14f4a8a35a482e0d9bf,60ede4a7087668ff6201e9e9,,,,,,,,,,,,
"[""comma""]",0,[0.3188000000119473],109,0,109,0,1,60ec2a3c77245c91cd44b93a,Kobieta,19,2021-07-13_21h09.09.411,rantool2,2021.1.4,Win32,59.91611744,60ec2a3c77245c91cd44b93a,60d9d14f4a8a35a482e0d9bf,60ede4a7087668ff6201e9e9,,,,,,,,,,,,
"[""period""]",0,[0.31749999999999545],110,0,110,0,1,60ec2a3c77245c91cd44b93a,Kobieta,19,2021-07-13_21h09.09.411,rantool2,2021.1.4,Win32,59.91611744,60ec2a3c77245c91cd44b93a,60d9d14f4a8a35a482e0d9bf,60ede4a7087668ff6201e9e9,,,,,,,,,,,,
"[""comma""]",0,[0.46259999999404045],111,0,111,0,1,60ec2a3c77245c91cd44b93a,Kobieta,19,2021-07-13_21h09.09.411,rantool2,2021.1.4,Win32,59.91611744,60ec2a3c77245c91cd44b93a,60d9d14f4a8a35a482e0d9bf,60ede4a7087668ff6201e9e9,,,,,,,,,,,,
"[""comma""]",0,[0.41940000000596456],112,0,112,0,1,60ec2a3c77245c91cd44b93a,Kobieta,19,2021-07-13_21h09.09.411,rantool2,2021.1.4,Win32,59.91611744,60ec2a3c77245c91cd44b93a,60d9d14f4a8a35a482e0d9bf,60ede4a7087668ff6201e9e9,,,,,,,,,,,,
"[""period""]",0,[0.3057999999821277],113,0,113,0,1,60ec2a3c77245c91cd44b93a,Kobieta,19,2021-07-13_21h09.09.411,rantool2,2021.1.4,Win32,59.91611744,60ec2a3c77245c91cd44b93a,60d9d14f4a8a35a482e0d9bf,60ede4a7087668ff6201e9e9,,,,,,,,,,,,
"[""period""]",0,[0.4023999999761827],114,0,114,0,1,60ec2a3c77245c91cd44b93a,Kobieta,19,2021-07-13_21h09.09.411,rantool2,2021.1.4,Win32,59.91611744,60ec2a3c77245c91cd44b93a,60d9d14f4a8a35a482e0d9bf,60ede4a7087668ff6201e9e9,,,,,,,,,,,,
"[""period""]",0,[0.3341999999880727],115,0,115,0,1,60ec2a3c77245c91cd44b93a,Kobieta,19,2021-07-13_21h09.09.411,rantool2,2021.1.4,Win32,59.91611744,60ec2a3c77245c91cd44b93a,60d9d14f4a8a35a482e0d9bf,60ede4a7087668ff6201e9e9,,,,,,,,,,,,
"[""comma""]",0,[0.3079999999999927],116,0,116,0,1,60ec2a3c77245c91cd44b93a,Kobieta,19,2021-07-13_21h09.09.411,rantool2,2021.1.4,Win32,59.91611744,60ec2a3c77245c91cd44b93a,60d9d14f4a8a35a482e0d9bf,60ede4a7087668ff6201e9e9,,,,,,,,,,,,
"[""period""]",0,[0.6172999999820945],117,0,117,0,1,60ec2a3c77245c91cd44b93a,Kobieta,19,2021-07-13_21h09.09.411,rantool2,2021.1.4,Win32,59.91611744,60ec2a3c77245c91cd44b93a,60d9d14f4a8a35a482e0d9bf,60ede4a7087668ff6201e9e9,,,,,,,,,,,,
"[""comma""]",0,[0.26949999999999363],118,0,118,0,1,60ec2a3c77245c91cd44b93a,Kobieta,19,2021-07-13_21h09.09.411,rantool2,2021.1.4,Win32,59.91611744,60ec2a3c77245c91cd44b93a,60d9d14f4a8a35a482e0d9bf,60ede4a7087668ff6201e9e9,,,,,,,,,,,,
"[""period""]",0,[0.3005999999940627],119,0,119,0,1,60ec2a3c77245c91cd44b93a,Kobieta,19,2021-07-13_21h09.09.411,rantool2,2021.1.4,Win32,59.91611744,60ec2a3c77245c91cd44b93a,60d9d14f4a8a35a482e0d9bf,60ede4a7087668ff6201e9e9,,,,,,,,,,,,
,,,,,,,,60ec2a3c77245c91cd44b93a,Kobieta,19,2021-07-13_21h09.09.411,rantool2,2021.1.4,Win32,59.91611744,60ec2a3c77245c91cd44b93a,60d9d14f4a8a35a482e0d9bf,60ede4a7087668ff6201e9e9,f,1.1767,0,0,0,16,1,OROOOOO,OROOOOR,20.43051175,21.17347734,series_1
,,,,,,,,60ec2a3c77245c91cd44b93a,Kobieta,19,2021-07-13_21h09.09.411,rantool2,2021.1.4,Win32,59.91611744,60ec2a3c77245c91cd44b93a,60d9d14f4a8a35a482e0d9bf,60ede4a7087668ff6201e9e9,f,2.3986,0,1,1,52,1,RROROOO,RROROOR,22.18365867,22.11097995,series_0
,,,,,,,,60ec2a3c77245c91cd44b93a,Kobieta,19,2021-07-13_21h09.09.411,rantool2,2021.1.4,Win32,59.91611744,60ec2a3c77245c91cd44b93a,60d9d14f4a8a35a482e0d9bf,60ede4a7087668ff6201e9e9,j,2.1828,0,2,2,0,1,OOOOOOO,OOOOOOR,18.52739004,19.62521613,series_1
,,,,,,,,60ec2a3c77245c91cd44b93a,Kobieta,19,2021-07-13_21h09.09.411,rantool2,2021.1.4,Win32,59.91611744,60ec2a3c77245c91cd44b93a,60d9d14f4a8a35a482e0d9bf,60ede4a7087668ff6201e9e9,f,2.0492,0,3,3,11,1,OORORRO,OORORRR,22.18365867,22.6797523,series_1
,,,,,,,,60ec2a3c77245c91cd44b93a,Kobieta,19,2021-07-13_21h09.09.411,rantool2,2021.1.4,Win32,59.91611744,60ec2a3c77245c91cd44b93a,60d9d14f4a8a35a482e0d9bf,60ede4a7087668ff6201e9e9,j,3.1813,0,4,4,51,1,RROORRO,RROORRR,21.89852628,22.02786418,series_1
,,,,,,,,60ec2a3c77245c91cd44b93a,Kobieta,19,2021-07-13_21h09.09.411,rantool2,2021.1.4,Win32,59.91611744,60ec2a3c77245c91cd44b93a,60d9d14f4a8a35a482e0d9bf,60ede4a7087668ff6201e9e9,f,2.1412,0,5,5,62,1,RRRRROO,RRRRROR,22.16413392,21.27974287,series_0
,,,,,,,,60ec2a3c77245c91cd44b93a,Kobieta,19,2021-07-13_21h09.09.411,rantool2,2021.1.4,Win32,59.91611744,60ec2a3c77245c91cd44b93a,60d9d14f4a8a35a482e0d9bf,60ede4a7087668ff6201e9e9,j,2.8339,0,6,6,20,1,OROROOO,OROROOR,21.31236711,21.90565814,series_1
,,,,,,,,60ec2a3c77245c91cd44b93a,Kobieta,19,2021-07-13_21h09.09.411,rantool2,2021.1.4,Win32,59.91611744,60ec2a3c77245c91cd44b93a,60d9d14f4a8a35a482e0d9bf,60ede4a7087668ff6201e9e9,f,2.6971,0,7,7,53,1,RRORORO,RRORORR,20.71309134,21.90565814,series_1
,,,,,,,,60ec2a3c77245c91cd44b93a,Kobieta,19,2021-07-13_21h09.09.411,rantool2,2021.1.4,Win32,59.91611744,60ec2a3c77245c91cd44b93a,60d9d14f4a8a35a482e0d9bf,60ede4a7087668ff6201e9e9,j,2.5636,0,8,8,41,1,ROROORO,ROROORR,20.42602454,21.71443381,series_1
,,,,,,,,60ec2a3c77245c91cd44b93a,Kobieta,19,2021-07-13_21h09.09.411,rantool2,2021.1.4,Win32,59.91611744,60ec2a3c77245c91cd44b93a,60d9d14f4a8a35a482e0d9bf,60ede4a7087668ff6201e9e9,f,2.4368,0,9,9,25,1,ORROORO,ORROORR,21.79500819,22.61624387,series_1
,,,,,,,,60ec2a3c77245c91cd44b93a,Kobieta,19,2021-07-13_21h09.09.411,rantool2,2021.1.4,Win32,59.91611744,60ec2a3c77245c91cd44b93a,60d9d14f4a8a35a482e0d9bf,60ede4a7087668ff6201e9e9,j,2.2492,0,10,10,5,1,OOORORO,OOORORR,20.87963819,21.9921709,series_1
,,,,,,,,60ec2a3c77245c91cd44b93a,Kobieta,19,2021-07-13_21h09.09.411,rantool2,2021.1.4,Win32,59.91611744,60ec2a3c77245c91cd44b93a,60d9d14f4a8a35a482e0d9bf,60ede4a7087668ff6201e9e9,f,3.4248,0,11,11,23,1,ORORRRO,ORORRRR,22.1285618,21.9921709,series_0
,,,,,,,,60ec2a3c77245c91cd44b93a,Kobieta,19,2021-07-13_21h09.09.411,rantool2,2021.1.4,Win32,59.91611744,60ec2a3c77245c91cd44b93a,60d9d14f4a8a35a482e0d9bf,60ede4a7087668ff6201e9e9,f,2.175,0,12,12,14,1,OORRROO,OORRROR,22.24142883,22.16977179,series_0
,,,,,,,,60ec2a3c77245c91cd44b93a,Kobieta,19,2021-07-13_21h09.09.411,rantool2,2021.1.4,Win32,59.91611744,60ec2a3c77245c91cd44b93a,60d9d14f4a8a35a482e0d9bf,60ede4a7087668ff6201e9e9,f,2.452,0,13,13,39,1,ROORRRO,ROORRRR,21.82425538,21.38562617,series_0
,,,,,,,,60ec2a3c77245c91cd44b93a,Kobieta,19,2021-07-13_21h09.09.411,rantool2,2021.1.4,Win32,59.91611744,60ec2a3c77245c91cd44b93a,60d9d14f4a8a35a482e0d9bf,60ede4a7087668ff6201e9e9,j,2.6155,0,14,14,15,1,OORRRRO,OORRRRR,22.10108823,21.74922619,series_0
,,,,,,,,60ec2a3c77245c91cd44b93a,Kobieta,19,2021-07-13_21h09.09.411,rantool2,2021.1.4,Win32,59.91611744,60ec2a3c77245c91cd44b93a,60d9d14f4a8a35a482e0d9bf,60ede4a7087668ff6201e9e9,j,3.0815,0,15,15,48,1,RROOOOO,RROOOOR,20.90986523,22.15934078,series_1
,,,,,,,,60ec2a3c77245c91cd44b93a,Kobieta,19,2021-07-13_21h09.09.411,rantool2,2021.1.4,Win32,59.91611744,60ec2a3c77245c91cd44b93a,60d9d14f4a8a35a482e0d9bf,60ede4a7087668ff6201e9e9,j,1.7875,0,16,16,37,1,ROORORO,ROORORR,20.42602454,21.57657071,series_1
,,,,,,,,60ec2a3c77245c91cd44b93a,Kobieta,19,2021-07-13_21h09.09.411,rantool2,2021.1.4,Win32,59.91611744,60ec2a3c77245c91cd44b93a,60d9d14f4a8a35a482e0d9bf,60ede4a7087668ff6201e9e9,j,1.8031,0,17,17,22,1,ORORROO,ORORROR,22.02732763,21.57657071,series_0
,,,,,,,,60ec2a3c77245c91cd44b93a,Kobieta,19,2021-07-13_21h09.09.411,rantool2,2021.1.4,Win32,59.91611744,60ec2a3c77245c91cd44b93a,60d9d14f4a8a35a482e0d9bf,60ede4a7087668ff6201e9e9,f,1.7542,0,18,18,50,1,RROOROO,RROOROR,21.73568164,22.02566557,series_1
,,,,,,,,60ec2a3c77245c91cd44b93a,Kobieta,19,2021-07-13_21h09.09.411,rantool2,2021.1.4,Win32,59.91611744,60ec2a3c77245c91cd44b93a,60d9d14f4a8a35a482e0d9bf,60ede4a7087668ff6201e9e9,f,1.5987,0,19,19,33,1,ROOOORO,ROOOORR,20.83779602,22.03072203,series_1
,,,,,,,,60ec2a3c77245c91cd44b93a,Kobieta,19,2021-07-13_21h09.09.411,rantool2,2021.1.4,Win32,59.91611744,60ec2a3c77245c91cd44b93a,60d9d14f4a8a35a482e0d9bf,60ede4a7087668ff6201e9e9,j,2.2035,0,20,20,38,1,ROORROO,ROORROR,21.79500819,21.36812781,series_0
,,,,,,,,60ec2a3c77245c91cd44b93a,Kobieta,19,2021-07-13_21h09.09.411,rantool2,2021.1.4,Win32,59.91611744,60ec2a3c77245c91cd44b93a,60d9d14f4a8a35a482e0d9bf,60ede4a7087668ff6201e9e9,j,2.0083,0,21,21,44,1,RORROOO,RORROOR,21.66733484,22.02566557,series_1
,,,,,,,,60ec2a3c77245c91cd44b93a,Kobieta,19,2021-07-13_21h09.09.411,rantool2,2021.1.4,Win32,59.91611744,60ec2a3c77245c91cd44b93a,60d9d14f4a8a35a482e0d9bf,60ede4a7087668ff6201e9e9,f,1.3997,0,22,22,12,1,OORROOO,OORROOR,21.30250474,22.02786418,series_1
,,,,,,,,60ec2a3c77245c91cd44b93a,Kobieta,19,2021-07-13_21h09.09.411,rantool2,2021.1.4,Win32,59.91611744,60ec2a3c77245c91cd44b93a,60d9d14f4a8a35a482e0d9bf,60ede4a7087668ff6201e9e9,j,1.386,0,23,23,2,1,OOOOROO,OOOOROR,20.43051175,21.02936224,series_1
,,,,,,,,60ec2a3c77245c91cd44b93a,Kobieta,19,2021-07-13_21h09.09.411,rantool2,2021.1.4,Win32,59.91611744,60ec2a3c77245c91cd44b93a,60d9d14f4a8a35a482e0d9bf,60ede4a7087668ff6201e9e9,j,1.9417,0,24,24,30,1,ORRRROO,ORRRROR,22.46748491,22.03072203,series_0
,,,,,,,,60ec2a3c77245c91cd44b93a,Kobieta,19,2021-07-13_21h09.09.411,rantool2,2021.1.4,Win32,59.91611744,60ec2a3c77245c91cd44b93a,60d9d14f4a8a35a482e0d9bf,60ede4a7087668ff6201e9e9,f,1.3828,0,25,25,28,1,ORRROOO,ORRROOR,22.24142883,22.53364006,series_1
,,,,,,,,60ec2a3c77245c91cd44b93a,Kobieta,19,2021-07-13_21h09.09.411,rantool2,2021.1.4,Win32,59.91611744,60ec2a3c77245c91cd44b93a,60d9d14f4a8a35a482e0d9bf,60ede4a7087668ff6201e9e9,j,1.3161,0,26,26,17,1,OROOORO,OROOORR,21.03750787,22.12173012,series_1
,,,,,,,,60ec2a3c77245c91cd44b93a,Kobieta,19,2021-07-13_21h09.09.411,rantool2,2021.1.4,Win32,59.91611744,60ec2a3c77245c91cd44b93a,60d9d14f4a8a35a482e0d9bf,60ede4a7087668ff6201e9e9,j,2.2335,0,27,27,47,1,RORRRRO,RORRRRR,21.81333602,21.02936224,series_0
,,,,,,,,60ec2a3c77245c91cd44b93a,Kobieta,19,2021-07-13_21h09.09.411,rantool2,2021.1.4,Win32,59.91611744,60ec2a3c77245c91cd44b93a,60d9d14f4a8a35a482e0d9bf,60ede4a7087668ff6201e9e9,f,1.316,0,28,28,35,1,ROOORRO,ROOORRR,21.76276513,22.16977179,series_1
,,,,,,,,60ec2a3c77245c91cd44b93a,Kobieta,19,2021-07-13_21h09.09.411,rantool2,2021.1.4,Win32,59.91611744,60ec2a3c77245c91cd44b93a,60d9d14f4a8a35a482e0d9bf,60ede4a7087668ff6201e9e9,j,1.4689,0,29,29,54,1,RRORROO,RRORROR,21.55250791,20.9984461,series_0
,,,,,,,,60ec2a3c77245c91cd44b93a,Kobieta,19,2021-07-13_21h09.09.411,rantool2,2021.1.4,Win32,59.91611744,60ec2a3c77245c91cd44b93a,60d9d14f4a8a35a482e0d9bf,60ede4a7087668ff6201e9e9,f,1.6482,0,30,30,8,1,OOROOOO,OOROOOR,19.91402015,20.89823192,series_1
,,,,,,,,60ec2a3c77245c91cd44b93a,Kobieta,19,2021-07-13_21h09.09.411,rantool2,2021.1.4,Win32,59.91611744,60ec2a3c77245c91cd44b93a,60d9d14f4a8a35a482e0d9bf,60ede4a7087668ff6201e9e9,f,1.5579,0,31,31,26,1,ORROROO,ORROROR,22.02732763,21.71443381,series_0
,,,,,,,,60ec2a3c77245c91cd44b93a,Kobieta,19,2021-07-13_21h09.09.411,rantool2,2021.1.4,Win32,59.91611744,60ec2a3c77245c91cd44b93a,60d9d14f4a8a35a482e0d9bf,60ede4a7087668ff6201e9e9,j,1.6165,0,32,32,19,1,OROORRO,OROORRR,21.73568164,22.11181017,series_1
,,,,,,,,60ec2a3c77245c91cd44b93a,Kobieta,19,2021-07-13_21h09.09.411,rantool2,2021.1.4,Win32,59.91611744,60ec2a3c77245c91cd44b93a,60d9d14f4a8a35a482e0d9bf,60ede4a7087668ff6201e9e9,j,1.1247,0,33,33,27,1,ORRORRO,ORRORRR,21.55250791,22.2428857,series_1
,,,,,,,,60ec2a3c77245c91cd44b93a,Kobieta,19,2021-07-13_21h09.09.411,rantool2,2021.1.4,Win32,59.91611744,60ec2a3c77245c91cd44b93a,60d9d14f4a8a35a482e0d9bf,60ede4a7087668ff6201e9e9,j,1.1195,0,34,34,45,1,RORRORO,RORRORR,20.78182524,21.22513037,series_1
,,,,,,,,60ec2a3c77245c91cd44b93a,Kobieta,19,2021-07-13_21h09.09.411,rantool2,2021.1.4,Win32,59.91611744,60ec2a3c77245c91cd44b93a,60d9d14f4a8a35a482e0d9bf,60ede4a7087668ff6201e9e9,j,2.3635,0,35,35,31,1,ORRRRRO,ORRRRRR,22.16413392,20.74050628,series_0
,,,,,,,,60ec2a3c77245c91cd44b93a,Kobieta,19,2021-07-13_21h09.09.411,rantool2,2021.1.4,Win32,59.91611744,60ec2a3c77245c91cd44b93a,60d9d14f4a8a35a482e0d9bf,60ede4a7087668ff6201e9e9,f,2.4313,0,36,36,7,1,OOORRRO,OOORRRR,21.6194508,21.899017,series_1
,,,,,,,,60ec2a3c77245c91cd44b93a,Kobieta,19,2021-07-13_21h09.09.411,rantool2,2021.1.4,Win32,59.91611744,60ec2a3c77245c91cd44b93a,60d9d14f4a8a35a482e0d9bf,60ede4a7087668ff6201e9e9,j,1.9084,0,37,37,32,1,ROOOOOO,ROOOOOR,19.92253567,21.27974287,series_1
,,,,,,,,60ec2a3c77245c91cd44b93a,Kobieta,19,2021-07-13_21h09.09.411,rantool2,2021.1.4,Win32,59.91611744,60ec2a3c77245c91cd44b93a,60d9d14f4a8a35a482e0d9bf,60ede4a7087668ff6201e9e9,j,1.9815,0,38,38,9,1,OOROORO,OOROORR,21.07991943,22.2428857,series_1
,,,,,,,,60ec2a3c77245c91cd44b93a,Kobieta,19,2021-07-13_21h09.09.411,rantool2,2021.1.4,Win32,59.91611744,60ec2a3c77245c91cd44b93a,60d9d14f4a8a35a482e0d9bf,60ede4a7087668ff6201e9e9,f,2.3324,0,39,39,42,1,ROROROO,ROROROR,20.39515459,19.8361834,series_0
,,,,,,,,60ec2a3c77245c91cd44b93a,Kobieta,19,2021-07-13_21h09.09.411,rantool2,2021.1.4,Win32,59.91611744,60ec2a3c77245c91cd44b93a,60d9d14f4a8a35a482e0d9bf,60ede4a7087668ff6201e9e9,j,1.7435,0,40,40,1,1,OOOOORO,OOOOORR,19.92253567,20.74050628,series_1
,,,,,,,,60ec2a3c77245c91cd44b93a,Kobieta,19,2021-07-13_21h09.09.411,rantool2,2021.1.4,Win32,59.91611744,60ec2a3c77245c91cd44b93a,60d9d14f4a8a35a482e0d9bf,60ede4a7087668ff6201e9e9,f,2.0477,0,41,41,3,1,OOOORRO,OOOORRR,20.90986523,21.74922619,series_1
,,,,,,,,60ec2a3c77245c91cd44b93a,Kobieta,19,2021-07-13_21h09.09.411,rantool2,2021.1.4,Win32,59.91611744,60ec2a3c77245c91cd44b93a,60d9d14f4a8a35a482e0d9bf,60ede4a7087668ff6201e9e9,j,1.6826,0,42,42,57,1,RRROORO,RRROORR,21.82425538,22.07102821,series_1
,,,,,,,,60ec2a3c77245c91cd44b93a,Kobieta,19,2021-07-13_21h09.09.411,rantool2,2021.1.4,Win32,59.91611744,60ec2a3c77245c91cd44b93a,60d9d14f4a8a35a482e0d9bf,60ede4a7087668ff6201e9e9,j,1.2837,0,43,43,4,1,OOOROOO,OOOROOR,19.91402015,21.21223021,series_1
,,,,,,,,60ec2a3c77245c91cd44b93a,Kobieta,19,2021-07-13_21h09.09.411,rantool2,2021.1.4,Win32,59.91611744,60ec2a3c77245c91cd44b93a,60d9d14f4a8a35a482e0d9bf,60ede4a7087668ff6201e9e9,f,1.1443,0,44,44,34,1,ROOOROO,ROOOROR,21.03750787,21.24781509,series_1
,,,,,,,,60ec2a3c77245c91cd44b93a,Kobieta,19,2021-07-13_21h09.09.411,rantool2,2021.1.4,Win32,59.91611744,60ec2a3c77245c91cd44b93a,60d9d14f4a8a35a482e0d9bf,60ede4a7087668ff6201e9e9,j,1.2688,0,45,45,49,1,RROOORO,RROOORR,21.76276513,22.53364006,series_1
,,,,,,,,60ec2a3c77245c91cd44b93a,Kobieta,19,2021-07-13_21h09.09.411,rantool2,2021.1.4,Win32,59.91611744,60ec2a3c77245c91cd44b93a,60d9d14f4a8a35a482e0d9bf,60ede4a7087668ff6201e9e9,f,1.5502,0,46,46,58,1,RRROROO,RRROROR,22.1285618,21.37121559,series_0
,,,,,,,,60ec2a3c77245c91cd44b93a,Kobieta,19,2021-07-13_21h09.09.411,rantool2,2021.1.4,Win32,59.91611744,60ec2a3c77245c91cd44b93a,60d9d14f4a8a35a482e0d9bf,60ede4a7087668ff6201e9e9,j,1.5863,0,47,47,43,1,RORORRO,RORORRR,20.71309134,21.07490964,series_1
,,,,,,,,60ec2a3c77245c91cd44b93a,Kobieta,19,2021-07-13_21h09.09.411,rantool2,2021.1.4,Win32,59.91611744,60ec2a3c77245c91cd44b93a,60d9d14f4a8a35a482e0d9bf,60ede4a7087668ff6201e9e9,j,1.1332,0,48,48,36,1,ROOROOO,ROOROOR,21.07991943,20.9984461,series_0
,,,,,,,,60ec2a3c77245c91cd44b93a,Kobieta,19,2021-07-13_21h09.09.411,rantool2,2021.1.4,Win32,59.91611744,60ec2a3c77245c91cd44b93a,60d9d14f4a8a35a482e0d9bf,60ede4a7087668ff6201e9e9,f,1.3669,0,49,49,21,1,ORORORO,ORORORR,20.39515459,22.06781359,series_1
,,,,,,,,60ec2a3c77245c91cd44b93a,Kobieta,19,2021-07-13_21h09.09.411,rantool2,2021.1.4,Win32,59.91611744,60ec2a3c77245c91cd44b93a,60d9d14f4a8a35a482e0d9bf,60ede4a7087668ff6201e9e9,f,1.2416,0,50,50,10,1,OOROROO,OOROROR,21.31236711,21.07490964,series_0
,,,,,,,,60ec2a3c77245c91cd44b93a,Kobieta,19,2021-07-13_21h09.09.411,rantool2,2021.1.4,Win32,59.91611744,60ec2a3c77245c91cd44b93a,60d9d14f4a8a35a482e0d9bf,60ede4a7087668ff6201e9e9,j,1.4348,0,51,51,24,1,ORROOOO,ORROOOR,21.12383932,22.07102821,series_1
,,,,,,,,60ec2a3c77245c91cd44b93a,Kobieta,19,2021-07-13_21h09.09.411,rantool2,2021.1.4,Win32,59.91611744,60ec2a3c77245c91cd44b93a,60d9d14f4a8a35a482e0d9bf,60ede4a7087668ff6201e9e9,f,1.5571,0,52,52,56,1,RRROOOO,RRROOOR,21.6194508,22.31681875,series_1
,,,,,,,,60ec2a3c77245c91cd44b93a,Kobieta,19,2021-07-13_21h09.09.411,rantool2,2021.1.4,Win32,59.91611744,60ec2a3c77245c91cd44b93a,60d9d14f4a8a35a482e0d9bf,60ede4a7087668ff6201e9e9,j,1.3488,0,53,53,40,1,ROROOOO,ROROOOR,20.87963819,21.37121559,series_1
,,,,,,,,60ec2a3c77245c91cd44b93a,Kobieta,19,2021-07-13_21h09.09.411,rantool2,2021.1.4,Win32,59.91611744,60ec2a3c77245c91cd44b93a,60d9d14f4a8a35a482e0d9bf,60ede4a7087668ff6201e9e9,f,1.3502,0,54,54,46,1,RORRROO,RORRROR,22.00300695,21.24781509,series_0
,,,,,,,,60ec2a3c77245c91cd44b93a,Kobieta,19,2021-07-13_21h09.09.411,rantool2,2021.1.4,Win32,59.91611744,60ec2a3c77245c91cd44b93a,60d9d14f4a8a35a482e0d9bf,60ede4a7087668ff6201e9e9,j,1.8162,0,55,55,18,1,OROOROO,OROOROR,20.84860893,21.22513037,series_1
,,,,,,,,60ec2a3c77245c91cd44b93a,Kobieta,19,2021-07-13_21h09.09.411,rantool2,2021.1.4,Win32,59.91611744,60ec2a3c77245c91cd44b93a,60d9d14f4a8a35a482e0d9bf,60ede4a7087668ff6201e9e9,f,1.4661,0,56,56,55,1,RRORRRO,RRORRRR,21.56657303,21.21223021,series_0
,,,,,,,,60ec2a3c77245c91cd44b93a,Kobieta,19,2021-07-13_21h09.09.411,rantool2,2021.1.4,Win32,59.91611744,60ec2a3c77245c91cd44b93a,60d9d14f4a8a35a482e0d9bf,60ede4a7087668ff6201e9e9,j,1.8198,0,57,57,13,1,OORRORO,OORRORR,21.66733484,22.11181017,series_1
,,,,,,,,60ec2a3c77245c91cd44b93a,Kobieta,19,2021-07-13_21h09.09.411,rantool2,2021.1.4,Win32,59.91611744,60ec2a3c77245c91cd44b93a,60d9d14f4a8a35a482e0d9bf,60ede4a7087668ff6201e9e9,f,1.2934,0,58,58,29,1,ORRRORO,ORRRORR,22.00300695,22.12173012,series_1
,,,,,,,,60ec2a3c77245c91cd44b93a,Kobieta,19,2021-07-13_21h09.09.411,rantool2,2021.1.4,Win32,59.91611744,60ec2a3c77245c91cd44b93a,60d9d14f4a8a35a482e0d9bf,60ede4a7087668ff6201e9e9,j,1.3831,0,59,59,60,1,RRRROOO,RRRROOR,22.10108823,22.15934078,series_1
,,,,,,,,60ec2a3c77245c91cd44b93a,Kobieta,19,2021-07-13_21h09.09.411,rantool2,2021.1.4,Win32,59.91611744,60ec2a3c77245c91cd44b93a,60d9d14f4a8a35a482e0d9bf,60ede4a7087668ff6201e9e9,f,1.0203,0,60,60,63,1,RRRRRRO,RRRRRRR,21.35278725,19.62521613,series_0
,,,,,,,,60ec2a3c77245c91cd44b93a,Kobieta,19,2021-07-13_21h09.09.411,rantool2,2021.1.4,Win32,59.91611744,60ec2a3c77245c91cd44b93a,60d9d14f4a8a35a482e0d9bf,60ede4a7087668ff6201e9e9,j,2.2881,0,61,61,59,1,RRRORRO,RRRORRR,21.56657303,20.89823192,series_0
,,,,,,,,60ec2a3c77245c91cd44b93a,Kobieta,19,2021-07-13_21h09.09.411,rantool2,2021.1.4,Win32,59.91611744,60ec2a3c77245c91cd44b93a,60d9d14f4a8a35a482e0d9bf,60ede4a7087668ff6201e9e9,f,1.0848,0,62,62,61,1,RRRRORO,RRRRORR,21.81333602,21.17347734,series_0
,,,,,,,,60ec2a3c77245c91cd44b93a,Kobieta,19,2021-07-13_21h09.09.411,rantool2,2021.1.4,Win32,59.91611744,60ec2a3c77245c91cd44b93a,60d9d14f4a8a35a482e0d9bf,60ede4a7087668ff6201e9e9,j,1.1261,0,63,63,6,1,OOORROO,OOORROR,21.12383932,21.38562617,series_1
