key_resp_7.keys,key_resp_7.rt,trials_2.thisRepN,trials_2.thisTrialN,trials_2.thisN,trials_2.thisIndex,trials_2.ran,id,series_0,series_1,acss_0,acss_1,comparison,id*,Płeć*,Wiek*,date,expName,psychopyVersion,OS,frameRate,STUDY_ID,SESSION_ID,key_resp_5.keys,key_resp_5.corr,key_resp_5.rt,trials.thisRepN,trials.thisTrialN,trials.thisN,trials.thisIndex,trials.ran
f,2.790225,0,0,0,34,1,6133ba9a50d368581b0f82dc,ROOOROO,ROOOROR,21.03750787,21.24781509,series_1,6133ba9a50d368581b0f82dc,Mężczyzna,18,2021-09-06_18h31.10.045,rantool2,2021.1.4,Win32,59.16809656,6135e006383e6ea6c3d06a28,613642a97f6abb8ea3ef9725,,,,,,,,
j,1.275505,0,1,1,55,1,6133ba9a50d368581b0f82dc,RRORRRO,RRORRRR,21.56657303,21.21223021,series_0,6133ba9a50d368581b0f82dc,Mężczyzna,18,2021-09-06_18h31.10.045,rantool2,2021.1.4,Win32,59.16809656,6135e006383e6ea6c3d06a28,613642a97f6abb8ea3ef9725,,,,,,,,
f,2.0577,0,2,2,58,1,6133ba9a50d368581b0f82dc,RRROROO,RRROROR,22.1285618,21.37121559,series_0,6133ba9a50d368581b0f82dc,Mężczyzna,18,2021-09-06_18h31.10.045,rantool2,2021.1.4,Win32,59.16809656,6135e006383e6ea6c3d06a28,613642a97f6abb8ea3ef9725,,,,,,,,
j,1.20273,0,3,3,15,1,6133ba9a50d368581b0f82dc,OORRRRO,OORRRRR,22.10108823,21.74922619,series_0,6133ba9a50d368581b0f82dc,Mężczyzna,18,2021-09-06_18h31.10.045,rantool2,2021.1.4,Win32,59.16809656,6135e006383e6ea6c3d06a28,613642a97f6abb8ea3ef9725,,,,,,,,
j,1.922755,0,4,4,57,1,6133ba9a50d368581b0f82dc,RRROORO,RRROORR,21.82425538,22.07102821,series_1,6133ba9a50d368581b0f82dc,Mężczyzna,18,2021-09-06_18h31.10.045,rantool2,2021.1.4,Win32,59.16809656,6135e006383e6ea6c3d06a28,613642a97f6abb8ea3ef9725,,,,,,,,
f,1.1885,0,5,5,37,1,6133ba9a50d368581b0f82dc,ROORORO,ROORORR,20.42602454,21.57657071,series_1,6133ba9a50d368581b0f82dc,Mężczyzna,18,2021-09-06_18h31.10.045,rantool2,2021.1.4,Win32,59.16809656,6135e006383e6ea6c3d06a28,613642a97f6abb8ea3ef9725,,,,,,,,
f,1.631875,0,6,6,20,1,6133ba9a50d368581b0f82dc,OROROOO,OROROOR,21.31236711,21.90565814,series_1,6133ba9a50d368581b0f82dc,Mężczyzna,18,2021-09-06_18h31.10.045,rantool2,2021.1.4,Win32,59.16809656,6135e006383e6ea6c3d06a28,613642a97f6abb8ea3ef9725,,,,,,,,
f,1.702765,0,7,7,60,1,6133ba9a50d368581b0f82dc,RRRROOO,RRRROOR,22.10108823,22.15934078,series_1,6133ba9a50d368581b0f82dc,Mężczyzna,18,2021-09-06_18h31.10.045,rantool2,2021.1.4,Win32,59.16809656,6135e006383e6ea6c3d06a28,613642a97f6abb8ea3ef9725,,,,,,,,
j,2.04658,0,8,8,9,1,6133ba9a50d368581b0f82dc,OOROORO,OOROORR,21.07991943,22.2428857,series_1,6133ba9a50d368581b0f82dc,Mężczyzna,18,2021-09-06_18h31.10.045,rantool2,2021.1.4,Win32,59.16809656,6135e006383e6ea6c3d06a28,613642a97f6abb8ea3ef9725,,,,,,,,
f,1.798605,0,9,9,38,1,6133ba9a50d368581b0f82dc,ROORROO,ROORROR,21.79500819,21.36812781,series_0,6133ba9a50d368581b0f82dc,Mężczyzna,18,2021-09-06_18h31.10.045,rantool2,2021.1.4,Win32,59.16809656,6135e006383e6ea6c3d06a28,613642a97f6abb8ea3ef9725,,,,,,,,
j,1.951745,0,10,10,42,1,6133ba9a50d368581b0f82dc,ROROROO,ROROROR,20.39515459,19.8361834,series_0,6133ba9a50d368581b0f82dc,Mężczyzna,18,2021-09-06_18h31.10.045,rantool2,2021.1.4,Win32,59.16809656,6135e006383e6ea6c3d06a28,613642a97f6abb8ea3ef9725,,,,,,,,
f,1.82441,0,11,11,4,1,6133ba9a50d368581b0f82dc,OOOROOO,OOOROOR,19.91402015,21.21223021,series_1,6133ba9a50d368581b0f82dc,Mężczyzna,18,2021-09-06_18h31.10.045,rantool2,2021.1.4,Win32,59.16809656,6135e006383e6ea6c3d06a28,613642a97f6abb8ea3ef9725,,,,,,,,
f,1.772265,0,12,12,46,1,6133ba9a50d368581b0f82dc,RORRROO,RORRROR,22.00300695,21.24781509,series_0,6133ba9a50d368581b0f82dc,Mężczyzna,18,2021-09-06_18h31.10.045,rantool2,2021.1.4,Win32,59.16809656,6135e006383e6ea6c3d06a28,613642a97f6abb8ea3ef9725,,,,,,,,
f,1.659705,0,13,13,6,1,6133ba9a50d368581b0f82dc,OOORROO,OOORROR,21.12383932,21.38562617,series_1,6133ba9a50d368581b0f82dc,Mężczyzna,18,2021-09-06_18h31.10.045,rantool2,2021.1.4,Win32,59.16809656,6135e006383e6ea6c3d06a28,613642a97f6abb8ea3ef9725,,,,,,,,
f,1.089425,0,14,14,53,1,6133ba9a50d368581b0f82dc,RRORORO,RRORORR,20.71309134,21.90565814,series_1,6133ba9a50d368581b0f82dc,Mężczyzna,18,2021-09-06_18h31.10.045,rantool2,2021.1.4,Win32,59.16809656,6135e006383e6ea6c3d06a28,613642a97f6abb8ea3ef9725,,,,,,,,
j,2.00955,0,15,15,43,1,6133ba9a50d368581b0f82dc,RORORRO,RORORRR,20.71309134,21.07490964,series_1,6133ba9a50d368581b0f82dc,Mężczyzna,18,2021-09-06_18h31.10.045,rantool2,2021.1.4,Win32,59.16809656,6135e006383e6ea6c3d06a28,613642a97f6abb8ea3ef9725,,,,,,,,
f,1.980475,0,16,16,35,1,6133ba9a50d368581b0f82dc,ROOORRO,ROOORRR,21.76276513,22.16977179,series_1,6133ba9a50d368581b0f82dc,Mężczyzna,18,2021-09-06_18h31.10.045,rantool2,2021.1.4,Win32,59.16809656,6135e006383e6ea6c3d06a28,613642a97f6abb8ea3ef9725,,,,,,,,
f,2.204985,0,17,17,30,1,6133ba9a50d368581b0f82dc,ORRRROO,ORRRROR,22.46748491,22.03072203,series_0,6133ba9a50d368581b0f82dc,Mężczyzna,18,2021-09-06_18h31.10.045,rantool2,2021.1.4,Win32,59.16809656,6135e006383e6ea6c3d06a28,613642a97f6abb8ea3ef9725,,,,,,,,
j,1.916695,0,18,18,0,1,6133ba9a50d368581b0f82dc,OOOOOOO,OOOOOOR,18.52739004,19.62521613,series_1,6133ba9a50d368581b0f82dc,Mężczyzna,18,2021-09-06_18h31.10.045,rantool2,2021.1.4,Win32,59.16809656,6135e006383e6ea6c3d06a28,613642a97f6abb8ea3ef9725,,,,,,,,
f,3.02261,0,19,19,32,1,6133ba9a50d368581b0f82dc,ROOOOOO,ROOOOOR,19.92253567,21.27974287,series_1,6133ba9a50d368581b0f82dc,Mężczyzna,18,2021-09-06_18h31.10.045,rantool2,2021.1.4,Win32,59.16809656,6135e006383e6ea6c3d06a28,613642a97f6abb8ea3ef9725,,,,,,,,
j,1.94918,0,20,20,31,1,6133ba9a50d368581b0f82dc,ORRRRRO,ORRRRRR,22.16413392,20.74050628,series_0,6133ba9a50d368581b0f82dc,Mężczyzna,18,2021-09-06_18h31.10.045,rantool2,2021.1.4,Win32,59.16809656,6135e006383e6ea6c3d06a28,613642a97f6abb8ea3ef9725,,,,,,,,
f,1.615015,0,21,21,8,1,6133ba9a50d368581b0f82dc,OOROOOO,OOROOOR,19.91402015,20.89823192,series_1,6133ba9a50d368581b0f82dc,Mężczyzna,18,2021-09-06_18h31.10.045,rantool2,2021.1.4,Win32,59.16809656,6135e006383e6ea6c3d06a28,613642a97f6abb8ea3ef9725,,,,,,,,
j,2.34626,0,22,22,39,1,6133ba9a50d368581b0f82dc,ROORRRO,ROORRRR,21.82425538,21.38562617,series_0,6133ba9a50d368581b0f82dc,Mężczyzna,18,2021-09-06_18h31.10.045,rantool2,2021.1.4,Win32,59.16809656,6135e006383e6ea6c3d06a28,613642a97f6abb8ea3ef9725,,,,,,,,
j,0.7773,0,23,23,14,1,6133ba9a50d368581b0f82dc,OORRROO,OORRROR,22.24142883,22.16977179,series_0,6133ba9a50d368581b0f82dc,Mężczyzna,18,2021-09-06_18h31.10.045,rantool2,2021.1.4,Win32,59.16809656,6135e006383e6ea6c3d06a28,613642a97f6abb8ea3ef9725,,,,,,,,
f,0.784625,0,24,24,41,1,6133ba9a50d368581b0f82dc,ROROORO,ROROORR,20.42602454,21.71443381,series_1,6133ba9a50d368581b0f82dc,Mężczyzna,18,2021-09-06_18h31.10.045,rantool2,2021.1.4,Win32,59.16809656,6135e006383e6ea6c3d06a28,613642a97f6abb8ea3ef9725,,,,,,,,
f,2.689225,0,25,25,22,1,6133ba9a50d368581b0f82dc,ORORROO,ORORROR,22.02732763,21.57657071,series_0,6133ba9a50d368581b0f82dc,Mężczyzna,18,2021-09-06_18h31.10.045,rantool2,2021.1.4,Win32,59.16809656,6135e006383e6ea6c3d06a28,613642a97f6abb8ea3ef9725,,,,,,,,
f,1.583235,0,26,26,29,1,6133ba9a50d368581b0f82dc,ORRRORO,ORRRORR,22.00300695,22.12173012,series_1,6133ba9a50d368581b0f82dc,Mężczyzna,18,2021-09-06_18h31.10.045,rantool2,2021.1.4,Win32,59.16809656,6135e006383e6ea6c3d06a28,613642a97f6abb8ea3ef9725,,,,,,,,
f,1.587085,0,27,27,23,1,6133ba9a50d368581b0f82dc,ORORRRO,ORORRRR,22.1285618,21.9921709,series_0,6133ba9a50d368581b0f82dc,Mężczyzna,18,2021-09-06_18h31.10.045,rantool2,2021.1.4,Win32,59.16809656,6135e006383e6ea6c3d06a28,613642a97f6abb8ea3ef9725,,,,,,,,
j,2.337245,0,28,28,7,1,6133ba9a50d368581b0f82dc,OOORRRO,OOORRRR,21.6194508,21.899017,series_1,6133ba9a50d368581b0f82dc,Mężczyzna,18,2021-09-06_18h31.10.045,rantool2,2021.1.4,Win32,59.16809656,6135e006383e6ea6c3d06a28,613642a97f6abb8ea3ef9725,,,,,,,,
f,2.6266,0,29,29,13,1,6133ba9a50d368581b0f82dc,OORRORO,OORRORR,21.66733484,22.11181017,series_1,6133ba9a50d368581b0f82dc,Mężczyzna,18,2021-09-06_18h31.10.045,rantool2,2021.1.4,Win32,59.16809656,6135e006383e6ea6c3d06a28,613642a97f6abb8ea3ef9725,,,,,,,,
j,1.40282,0,30,30,10,1,6133ba9a50d368581b0f82dc,OOROROO,OOROROR,21.31236711,21.07490964,series_0,6133ba9a50d368581b0f82dc,Mężczyzna,18,2021-09-06_18h31.10.045,rantool2,2021.1.4,Win32,59.16809656,6135e006383e6ea6c3d06a28,613642a97f6abb8ea3ef9725,,,,,,,,
f,1.906335,0,31,31,26,1,6133ba9a50d368581b0f82dc,ORROROO,ORROROR,22.02732763,21.71443381,series_0,6133ba9a50d368581b0f82dc,Mężczyzna,18,2021-09-06_18h31.10.045,rantool2,2021.1.4,Win32,59.16809656,6135e006383e6ea6c3d06a28,613642a97f6abb8ea3ef9725,,,,,,,,
j,2.793355,0,32,32,50,1,6133ba9a50d368581b0f82dc,RROOROO,RROOROR,21.73568164,22.02566557,series_1,6133ba9a50d368581b0f82dc,Mężczyzna,18,2021-09-06_18h31.10.045,rantool2,2021.1.4,Win32,59.16809656,6135e006383e6ea6c3d06a28,613642a97f6abb8ea3ef9725,,,,,,,,
f,1.361275,0,33,33,16,1,6133ba9a50d368581b0f82dc,OROOOOO,OROOOOR,20.43051175,21.17347734,series_1,6133ba9a50d368581b0f82dc,Mężczyzna,18,2021-09-06_18h31.10.045,rantool2,2021.1.4,Win32,59.16809656,6135e006383e6ea6c3d06a28,613642a97f6abb8ea3ef9725,,,,,,,,
j,1.566835,0,34,34,56,1,6133ba9a50d368581b0f82dc,RRROOOO,RRROOOR,21.6194508,22.31681875,series_1,6133ba9a50d368581b0f82dc,Mężczyzna,18,2021-09-06_18h31.10.045,rantool2,2021.1.4,Win32,59.16809656,6135e006383e6ea6c3d06a28,613642a97f6abb8ea3ef9725,,,,,,,,
f,1.793745,0,35,35,21,1,6133ba9a50d368581b0f82dc,ORORORO,ORORORR,20.39515459,22.06781359,series_1,6133ba9a50d368581b0f82dc,Mężczyzna,18,2021-09-06_18h31.10.045,rantool2,2021.1.4,Win32,59.16809656,6135e006383e6ea6c3d06a28,613642a97f6abb8ea3ef9725,,,,,,,,
j,3.05038,0,36,36,54,1,6133ba9a50d368581b0f82dc,RRORROO,RRORROR,21.55250791,20.9984461,series_0,6133ba9a50d368581b0f82dc,Mężczyzna,18,2021-09-06_18h31.10.045,rantool2,2021.1.4,Win32,59.16809656,6135e006383e6ea6c3d06a28,613642a97f6abb8ea3ef9725,,,,,,,,
j,2.50209,0,37,37,25,1,6133ba9a50d368581b0f82dc,ORROORO,ORROORR,21.79500819,22.61624387,series_1,6133ba9a50d368581b0f82dc,Mężczyzna,18,2021-09-06_18h31.10.045,rantool2,2021.1.4,Win32,59.16809656,6135e006383e6ea6c3d06a28,613642a97f6abb8ea3ef9725,,,,,,,,
j,1.606945,0,38,38,63,1,6133ba9a50d368581b0f82dc,RRRRRRO,RRRRRRR,21.35278725,19.62521613,series_0,6133ba9a50d368581b0f82dc,Mężczyzna,18,2021-09-06_18h31.10.045,rantool2,2021.1.4,Win32,59.16809656,6135e006383e6ea6c3d06a28,613642a97f6abb8ea3ef9725,,,,,,,,
f,2.179655,0,39,39,45,1,6133ba9a50d368581b0f82dc,RORRORO,RORRORR,20.78182524,21.22513037,series_1,6133ba9a50d368581b0f82dc,Mężczyzna,18,2021-09-06_18h31.10.045,rantool2,2021.1.4,Win32,59.16809656,6135e006383e6ea6c3d06a28,613642a97f6abb8ea3ef9725,,,,,,,,
f,1.86825,0,40,40,40,1,6133ba9a50d368581b0f82dc,ROROOOO,ROROOOR,20.87963819,21.37121559,series_1,6133ba9a50d368581b0f82dc,Mężczyzna,18,2021-09-06_18h31.10.045,rantool2,2021.1.4,Win32,59.16809656,6135e006383e6ea6c3d06a28,613642a97f6abb8ea3ef9725,,,,,,,,
f,1.536095,0,41,41,48,1,6133ba9a50d368581b0f82dc,RROOOOO,RROOOOR,20.90986523,22.15934078,series_1,6133ba9a50d368581b0f82dc,Mężczyzna,18,2021-09-06_18h31.10.045,rantool2,2021.1.4,Win32,59.16809656,6135e006383e6ea6c3d06a28,613642a97f6abb8ea3ef9725,,,,,,,,
f,2.317485,0,42,42,19,1,6133ba9a50d368581b0f82dc,OROORRO,OROORRR,21.73568164,22.11181017,series_1,6133ba9a50d368581b0f82dc,Mężczyzna,18,2021-09-06_18h31.10.045,rantool2,2021.1.4,Win32,59.16809656,6135e006383e6ea6c3d06a28,613642a97f6abb8ea3ef9725,,,,,,,,
j,1.22412,0,43,43,17,1,6133ba9a50d368581b0f82dc,OROOORO,OROOORR,21.03750787,22.12173012,series_1,6133ba9a50d368581b0f82dc,Mężczyzna,18,2021-09-06_18h31.10.045,rantool2,2021.1.4,Win32,59.16809656,6135e006383e6ea6c3d06a28,613642a97f6abb8ea3ef9725,,,,,,,,
j,1.634175,0,44,44,1,1,6133ba9a50d368581b0f82dc,OOOOORO,OOOOORR,19.92253567,20.74050628,series_1,6133ba9a50d368581b0f82dc,Mężczyzna,18,2021-09-06_18h31.10.045,rantool2,2021.1.4,Win32,59.16809656,6135e006383e6ea6c3d06a28,613642a97f6abb8ea3ef9725,,,,,,,,
f,1.53882,0,45,45,28,1,6133ba9a50d368581b0f82dc,ORRROOO,ORRROOR,22.24142883,22.53364006,series_1,6133ba9a50d368581b0f82dc,Mężczyzna,18,2021-09-06_18h31.10.045,rantool2,2021.1.4,Win32,59.16809656,6135e006383e6ea6c3d06a28,613642a97f6abb8ea3ef9725,,,,,,,,
j,1.44522,0,46,46,59,1,6133ba9a50d368581b0f82dc,RRRORRO,RRRORRR,21.56657303,20.89823192,series_0,6133ba9a50d368581b0f82dc,Mężczyzna,18,2021-09-06_18h31.10.045,rantool2,2021.1.4,Win32,59.16809656,6135e006383e6ea6c3d06a28,613642a97f6abb8ea3ef9725,,,,,,,,
j,1.432665,0,47,47,49,1,6133ba9a50d368581b0f82dc,RROOORO,RROOORR,21.76276513,22.53364006,series_1,6133ba9a50d368581b0f82dc,Mężczyzna,18,2021-09-06_18h31.10.045,rantool2,2021.1.4,Win32,59.16809656,6135e006383e6ea6c3d06a28,613642a97f6abb8ea3ef9725,,,,,,,,
j,1.38744,0,48,48,36,1,6133ba9a50d368581b0f82dc,ROOROOO,ROOROOR,21.07991943,20.9984461,series_0,6133ba9a50d368581b0f82dc,Mężczyzna,18,2021-09-06_18h31.10.045,rantool2,2021.1.4,Win32,59.16809656,6135e006383e6ea6c3d06a28,613642a97f6abb8ea3ef9725,,,,,,,,
f,1.27738,0,49,49,2,1,6133ba9a50d368581b0f82dc,OOOOROO,OOOOROR,20.43051175,21.02936224,series_1,6133ba9a50d368581b0f82dc,Mężczyzna,18,2021-09-06_18h31.10.045,rantool2,2021.1.4,Win32,59.16809656,6135e006383e6ea6c3d06a28,613642a97f6abb8ea3ef9725,,,,,,,,
j,2.82393,0,50,50,51,1,6133ba9a50d368581b0f82dc,RROORRO,RROORRR,21.89852628,22.02786418,series_1,6133ba9a50d368581b0f82dc,Mężczyzna,18,2021-09-06_18h31.10.045,rantool2,2021.1.4,Win32,59.16809656,6135e006383e6ea6c3d06a28,613642a97f6abb8ea3ef9725,,,,,,,,
f,2.552055,0,51,51,24,1,6133ba9a50d368581b0f82dc,ORROOOO,ORROOOR,21.12383932,22.07102821,series_1,6133ba9a50d368581b0f82dc,Mężczyzna,18,2021-09-06_18h31.10.045,rantool2,2021.1.4,Win32,59.16809656,6135e006383e6ea6c3d06a28,613642a97f6abb8ea3ef9725,,,,,,,,
j,1.774095,0,52,52,61,1,6133ba9a50d368581b0f82dc,RRRRORO,RRRRORR,21.81333602,21.17347734,series_0,6133ba9a50d368581b0f82dc,Mężczyzna,18,2021-09-06_18h31.10.045,rantool2,2021.1.4,Win32,59.16809656,6135e006383e6ea6c3d06a28,613642a97f6abb8ea3ef9725,,,,,,,,
j,2.60006,0,53,53,11,1,6133ba9a50d368581b0f82dc,OORORRO,OORORRR,22.18365867,22.6797523,series_1,6133ba9a50d368581b0f82dc,Mężczyzna,18,2021-09-06_18h31.10.045,rantool2,2021.1.4,Win32,59.16809656,6135e006383e6ea6c3d06a28,613642a97f6abb8ea3ef9725,,,,,,,,
j,1.51507,0,54,54,62,1,6133ba9a50d368581b0f82dc,RRRRROO,RRRRROR,22.16413392,21.27974287,series_0,6133ba9a50d368581b0f82dc,Mężczyzna,18,2021-09-06_18h31.10.045,rantool2,2021.1.4,Win32,59.16809656,6135e006383e6ea6c3d06a28,613642a97f6abb8ea3ef9725,,,,,,,,
f,2.928385,0,55,55,44,1,6133ba9a50d368581b0f82dc,RORROOO,RORROOR,21.66733484,22.02566557,series_1,6133ba9a50d368581b0f82dc,Mężczyzna,18,2021-09-06_18h31.10.045,rantool2,2021.1.4,Win32,59.16809656,6135e006383e6ea6c3d06a28,613642a97f6abb8ea3ef9725,,,,,,,,
f,1.780235,0,56,56,5,1,6133ba9a50d368581b0f82dc,OOORORO,OOORORR,20.87963819,21.9921709,series_1,6133ba9a50d368581b0f82dc,Mężczyzna,18,2021-09-06_18h31.10.045,rantool2,2021.1.4,Win32,59.16809656,6135e006383e6ea6c3d06a28,613642a97f6abb8ea3ef9725,,,,,,,,
f,1.58173,0,57,57,18,1,6133ba9a50d368581b0f82dc,OROOROO,OROOROR,20.84860893,21.22513037,series_1,6133ba9a50d368581b0f82dc,Mężczyzna,18,2021-09-06_18h31.10.045,rantool2,2021.1.4,Win32,59.16809656,6135e006383e6ea6c3d06a28,613642a97f6abb8ea3ef9725,,,,,,,,
f,1.39447,0,58,58,33,1,6133ba9a50d368581b0f82dc,ROOOORO,ROOOORR,20.83779602,22.03072203,series_1,6133ba9a50d368581b0f82dc,Mężczyzna,18,2021-09-06_18h31.10.045,rantool2,2021.1.4,Win32,59.16809656,6135e006383e6ea6c3d06a28,613642a97f6abb8ea3ef9725,,,,,,,,
f,1.748665,0,59,59,52,1,6133ba9a50d368581b0f82dc,RROROOO,RROROOR,22.18365867,22.11097995,series_0,6133ba9a50d368581b0f82dc,Mężczyzna,18,2021-09-06_18h31.10.045,rantool2,2021.1.4,Win32,59.16809656,6135e006383e6ea6c3d06a28,613642a97f6abb8ea3ef9725,,,,,,,,
j,1.163015,0,60,60,12,1,6133ba9a50d368581b0f82dc,OORROOO,OORROOR,21.30250474,22.02786418,series_1,6133ba9a50d368581b0f82dc,Mężczyzna,18,2021-09-06_18h31.10.045,rantool2,2021.1.4,Win32,59.16809656,6135e006383e6ea6c3d06a28,613642a97f6abb8ea3ef9725,,,,,,,,
j,2.60225,0,61,61,27,1,6133ba9a50d368581b0f82dc,ORRORRO,ORRORRR,21.55250791,22.2428857,series_1,6133ba9a50d368581b0f82dc,Mężczyzna,18,2021-09-06_18h31.10.045,rantool2,2021.1.4,Win32,59.16809656,6135e006383e6ea6c3d06a28,613642a97f6abb8ea3ef9725,,,,,,,,
f,2.61976,0,62,62,3,1,6133ba9a50d368581b0f82dc,OOOORRO,OOOORRR,20.90986523,21.74922619,series_1,6133ba9a50d368581b0f82dc,Mężczyzna,18,2021-09-06_18h31.10.045,rantool2,2021.1.4,Win32,59.16809656,6135e006383e6ea6c3d06a28,613642a97f6abb8ea3ef9725,,,,,,,,
j,1.407155,0,63,63,47,1,6133ba9a50d368581b0f82dc,RORRRRO,RORRRRR,21.81333602,21.02936224,series_0,6133ba9a50d368581b0f82dc,Mężczyzna,18,2021-09-06_18h31.10.045,rantool2,2021.1.4,Win32,59.16809656,6135e006383e6ea6c3d06a28,613642a97f6abb8ea3ef9725,,,,,,,,
,,,,,,,6133ba9a50d368581b0f82dc,,,,,,6133ba9a50d368581b0f82dc,Mężczyzna,18,2021-09-06_18h31.10.045,rantool2,2021.1.4,Win32,59.16809656,6135e006383e6ea6c3d06a28,613642a97f6abb8ea3ef9725,"[""comma""]",0,[1.1186450000095647],0,0,0,0,1
,,,,,,,6133ba9a50d368581b0f82dc,,,,,,6133ba9a50d368581b0f82dc,Mężczyzna,18,2021-09-06_18h31.10.045,rantool2,2021.1.4,Win32,59.16809656,6135e006383e6ea6c3d06a28,613642a97f6abb8ea3ef9725,"[""period""]",0,[0.278214999998454],1,0,1,0,1
,,,,,,,6133ba9a50d368581b0f82dc,,,,,,6133ba9a50d368581b0f82dc,Mężczyzna,18,2021-09-06_18h31.10.045,rantool2,2021.1.4,Win32,59.16809656,6135e006383e6ea6c3d06a28,613642a97f6abb8ea3ef9725,"[""comma""]",0,[0.3431050000071991],2,0,2,0,1
,,,,,,,6133ba9a50d368581b0f82dc,,,,,,6133ba9a50d368581b0f82dc,Mężczyzna,18,2021-09-06_18h31.10.045,rantool2,2021.1.4,Win32,59.16809656,6135e006383e6ea6c3d06a28,613642a97f6abb8ea3ef9725,"[""comma""]",0,[0.27065500000026077],3,0,3,0,1
,,,,,,,6133ba9a50d368581b0f82dc,,,,,,6133ba9a50d368581b0f82dc,Mężczyzna,18,2021-09-06_18h31.10.045,rantool2,2021.1.4,Win32,59.16809656,6135e006383e6ea6c3d06a28,613642a97f6abb8ea3ef9725,"[""period""]",0,[0.32483500000671484],4,0,4,0,1
,,,,,,,6133ba9a50d368581b0f82dc,,,,,,6133ba9a50d368581b0f82dc,Mężczyzna,18,2021-09-06_18h31.10.045,rantool2,2021.1.4,Win32,59.16809656,6135e006383e6ea6c3d06a28,613642a97f6abb8ea3ef9725,"[""comma"",""comma""]",0,"[0.24193499999819323,0.9319649999961257]",5,0,5,0,1
,,,,,,,6133ba9a50d368581b0f82dc,,,,,,6133ba9a50d368581b0f82dc,Mężczyzna,18,2021-09-06_18h31.10.045,rantool2,2021.1.4,Win32,59.16809656,6135e006383e6ea6c3d06a28,613642a97f6abb8ea3ef9725,"[""comma""]",0,[0.28251999999338295],6,0,6,0,1
,,,,,,,6133ba9a50d368581b0f82dc,,,,,,6133ba9a50d368581b0f82dc,Mężczyzna,18,2021-09-06_18h31.10.045,rantool2,2021.1.4,Win32,59.16809656,6135e006383e6ea6c3d06a28,613642a97f6abb8ea3ef9725,"[""period""]",0,[0.3250949999928707],7,0,7,0,1
,,,,,,,6133ba9a50d368581b0f82dc,,,,,,6133ba9a50d368581b0f82dc,Mężczyzna,18,2021-09-06_18h31.10.045,rantool2,2021.1.4,Win32,59.16809656,6135e006383e6ea6c3d06a28,613642a97f6abb8ea3ef9725,"[""comma""]",0,[0.26894500000344124],8,0,8,0,1
,,,,,,,6133ba9a50d368581b0f82dc,,,,,,6133ba9a50d368581b0f82dc,Mężczyzna,18,2021-09-06_18h31.10.045,rantool2,2021.1.4,Win32,59.16809656,6135e006383e6ea6c3d06a28,613642a97f6abb8ea3ef9725,"[""period""]",0,[0.22625500000140164],9,0,9,0,1
,,,,,,,6133ba9a50d368581b0f82dc,,,,,,6133ba9a50d368581b0f82dc,Mężczyzna,18,2021-09-06_18h31.10.045,rantool2,2021.1.4,Win32,59.16809656,6135e006383e6ea6c3d06a28,613642a97f6abb8ea3ef9725,"[""period""]",0,[0.24262499999895226],10,0,10,0,1
,,,,,,,6133ba9a50d368581b0f82dc,,,,,,6133ba9a50d368581b0f82dc,Mężczyzna,18,2021-09-06_18h31.10.045,rantool2,2021.1.4,Win32,59.16809656,6135e006383e6ea6c3d06a28,613642a97f6abb8ea3ef9725,"[""period""]",0,[0.3051649999979418],11,0,11,0,1
,,,,,,,6133ba9a50d368581b0f82dc,,,,,,6133ba9a50d368581b0f82dc,Mężczyzna,18,2021-09-06_18h31.10.045,rantool2,2021.1.4,Win32,59.16809656,6135e006383e6ea6c3d06a28,613642a97f6abb8ea3ef9725,"[""comma""]",0,[0.28670500000589527],12,0,12,0,1
,,,,,,,6133ba9a50d368581b0f82dc,,,,,,6133ba9a50d368581b0f82dc,Mężczyzna,18,2021-09-06_18h31.10.045,rantool2,2021.1.4,Win32,59.16809656,6135e006383e6ea6c3d06a28,613642a97f6abb8ea3ef9725,"[""period""]",0,[0.19318999999086373],13,0,13,0,1
,,,,,,,6133ba9a50d368581b0f82dc,,,,,,6133ba9a50d368581b0f82dc,Mężczyzna,18,2021-09-06_18h31.10.045,rantool2,2021.1.4,Win32,59.16809656,6135e006383e6ea6c3d06a28,613642a97f6abb8ea3ef9725,"[""period""]",0,[0.41644000000087544],14,0,14,0,1
,,,,,,,6133ba9a50d368581b0f82dc,,,,,,6133ba9a50d368581b0f82dc,Mężczyzna,18,2021-09-06_18h31.10.045,rantool2,2021.1.4,Win32,59.16809656,6135e006383e6ea6c3d06a28,613642a97f6abb8ea3ef9725,"[""comma""]",0,[0.31917000000248663],15,0,15,0,1
,,,,,,,6133ba9a50d368581b0f82dc,,,,,,6133ba9a50d368581b0f82dc,Mężczyzna,18,2021-09-06_18h31.10.045,rantool2,2021.1.4,Win32,59.16809656,6135e006383e6ea6c3d06a28,613642a97f6abb8ea3ef9725,"[""comma"",""comma""]",0,"[0.2054599999974016,0.8831050000007963]",16,0,16,0,1
,,,,,,,6133ba9a50d368581b0f82dc,,,,,,6133ba9a50d368581b0f82dc,Mężczyzna,18,2021-09-06_18h31.10.045,rantool2,2021.1.4,Win32,59.16809656,6135e006383e6ea6c3d06a28,613642a97f6abb8ea3ef9725,"[""period""]",0,[0.3757199999963632],17,0,17,0,1
,,,,,,,6133ba9a50d368581b0f82dc,,,,,,6133ba9a50d368581b0f82dc,Mężczyzna,18,2021-09-06_18h31.10.045,rantool2,2021.1.4,Win32,59.16809656,6135e006383e6ea6c3d06a28,613642a97f6abb8ea3ef9725,"[""comma""]",0,[0.22609500000544358],18,0,18,0,1
,,,,,,,6133ba9a50d368581b0f82dc,,,,,,6133ba9a50d368581b0f82dc,Mężczyzna,18,2021-09-06_18h31.10.045,rantool2,2021.1.4,Win32,59.16809656,6135e006383e6ea6c3d06a28,613642a97f6abb8ea3ef9725,"[""comma""]",0,[0.23832499999844003],19,0,19,0,1
,,,,,,,6133ba9a50d368581b0f82dc,,,,,,6133ba9a50d368581b0f82dc,Mężczyzna,18,2021-09-06_18h31.10.045,rantool2,2021.1.4,Win32,59.16809656,6135e006383e6ea6c3d06a28,613642a97f6abb8ea3ef9725,"[""comma""]",0,[0.5756800000090152],20,0,20,0,1
,,,,,,,6133ba9a50d368581b0f82dc,,,,,,6133ba9a50d368581b0f82dc,Mężczyzna,18,2021-09-06_18h31.10.045,rantool2,2021.1.4,Win32,59.16809656,6135e006383e6ea6c3d06a28,613642a97f6abb8ea3ef9725,"[""comma""]",0,[0.35094499999831896],21,0,21,0,1
,,,,,,,6133ba9a50d368581b0f82dc,,,,,,6133ba9a50d368581b0f82dc,Mężczyzna,18,2021-09-06_18h31.10.045,rantool2,2021.1.4,Win32,59.16809656,6135e006383e6ea6c3d06a28,613642a97f6abb8ea3ef9725,"[""period"",""period""]",0,"[0.11398000000917818,0.6321750000061002]",22,0,22,0,1
,,,,,,,6133ba9a50d368581b0f82dc,,,,,,6133ba9a50d368581b0f82dc,Mężczyzna,18,2021-09-06_18h31.10.045,rantool2,2021.1.4,Win32,59.16809656,6135e006383e6ea6c3d06a28,613642a97f6abb8ea3ef9725,"[""period""]",0,[0.34474000000045635],23,0,23,0,1
,,,,,,,6133ba9a50d368581b0f82dc,,,,,,6133ba9a50d368581b0f82dc,Mężczyzna,18,2021-09-06_18h31.10.045,rantool2,2021.1.4,Win32,59.16809656,6135e006383e6ea6c3d06a28,613642a97f6abb8ea3ef9725,"[""comma""]",0,[0.3684849999990547],24,0,24,0,1
,,,,,,,6133ba9a50d368581b0f82dc,,,,,,6133ba9a50d368581b0f82dc,Mężczyzna,18,2021-09-06_18h31.10.045,rantool2,2021.1.4,Win32,59.16809656,6135e006383e6ea6c3d06a28,613642a97f6abb8ea3ef9725,"[""period""]",0,[0.2749899999907939],25,0,25,0,1
,,,,,,,6133ba9a50d368581b0f82dc,,,,,,6133ba9a50d368581b0f82dc,Mężczyzna,18,2021-09-06_18h31.10.045,rantool2,2021.1.4,Win32,59.16809656,6135e006383e6ea6c3d06a28,613642a97f6abb8ea3ef9725,"[""period""]",0,[0.6325450000003912],26,0,26,0,1
,,,,,,,6133ba9a50d368581b0f82dc,,,,,,6133ba9a50d368581b0f82dc,Mężczyzna,18,2021-09-06_18h31.10.045,rantool2,2021.1.4,Win32,59.16809656,6135e006383e6ea6c3d06a28,613642a97f6abb8ea3ef9725,"[""comma""]",0,[0.2687000000005355],27,0,27,0,1
,,,,,,,6133ba9a50d368581b0f82dc,,,,,,6133ba9a50d368581b0f82dc,Mężczyzna,18,2021-09-06_18h31.10.045,rantool2,2021.1.4,Win32,59.16809656,6135e006383e6ea6c3d06a28,613642a97f6abb8ea3ef9725,"[""period""]",0,[0.2701450000022305],28,0,28,0,1
,,,,,,,6133ba9a50d368581b0f82dc,,,,,,6133ba9a50d368581b0f82dc,Mężczyzna,18,2021-09-06_18h31.10.045,rantool2,2021.1.4,Win32,59.16809656,6135e006383e6ea6c3d06a28,613642a97f6abb8ea3ef9725,"[""comma""]",0,[0.21970500001043547],29,0,29,0,1
,,,,,,,6133ba9a50d368581b0f82dc,,,,,,6133ba9a50d368581b0f82dc,Mężczyzna,18,2021-09-06_18h31.10.045,rantool2,2021.1.4,Win32,59.16809656,6135e006383e6ea6c3d06a28,613642a97f6abb8ea3ef9725,"[""comma"",""comma""]",0,"[-0.01711500000965316,0.6348949999955948]",30,0,30,0,1
,,,,,,,6133ba9a50d368581b0f82dc,,,,,,6133ba9a50d368581b0f82dc,Mężczyzna,18,2021-09-06_18h31.10.045,rantool2,2021.1.4,Win32,59.16809656,6135e006383e6ea6c3d06a28,613642a97f6abb8ea3ef9725,0,0,,31,0,31,0,1
,,,,,,,6133ba9a50d368581b0f82dc,,,,,,6133ba9a50d368581b0f82dc,Mężczyzna,18,2021-09-06_18h31.10.045,rantool2,2021.1.4,Win32,59.16809656,6135e006383e6ea6c3d06a28,613642a97f6abb8ea3ef9725,"[""period""]",0,[0.30917999999655876],32,0,32,0,1
,,,,,,,6133ba9a50d368581b0f82dc,,,,,,6133ba9a50d368581b0f82dc,Mężczyzna,18,2021-09-06_18h31.10.045,rantool2,2021.1.4,Win32,59.16809656,6135e006383e6ea6c3d06a28,613642a97f6abb8ea3ef9725,"[""comma""]",0,[0.2746199999965029],33,0,33,0,1
,,,,,,,6133ba9a50d368581b0f82dc,,,,,,6133ba9a50d368581b0f82dc,Mężczyzna,18,2021-09-06_18h31.10.045,rantool2,2021.1.4,Win32,59.16809656,6135e006383e6ea6c3d06a28,613642a97f6abb8ea3ef9725,"[""period""]",0,[0.2748050000082003],34,0,34,0,1
,,,,,,,6133ba9a50d368581b0f82dc,,,,,,6133ba9a50d368581b0f82dc,Mężczyzna,18,2021-09-06_18h31.10.045,rantool2,2021.1.4,Win32,59.16809656,6135e006383e6ea6c3d06a28,613642a97f6abb8ea3ef9725,"[""comma""]",0,[0.2158049999998184],35,0,35,0,1
,,,,,,,6133ba9a50d368581b0f82dc,,,,,,6133ba9a50d368581b0f82dc,Mężczyzna,18,2021-09-06_18h31.10.045,rantool2,2021.1.4,Win32,59.16809656,6135e006383e6ea6c3d06a28,613642a97f6abb8ea3ef9725,"[""period""]",0,[0.23855500000354368],36,0,36,0,1
,,,,,,,6133ba9a50d368581b0f82dc,,,,,,6133ba9a50d368581b0f82dc,Mężczyzna,18,2021-09-06_18h31.10.045,rantool2,2021.1.4,Win32,59.16809656,6135e006383e6ea6c3d06a28,613642a97f6abb8ea3ef9725,"[""comma""]",0,[0.11631499999202788],37,0,37,0,1
,,,,,,,6133ba9a50d368581b0f82dc,,,,,,6133ba9a50d368581b0f82dc,Mężczyzna,18,2021-09-06_18h31.10.045,rantool2,2021.1.4,Win32,59.16809656,6135e006383e6ea6c3d06a28,613642a97f6abb8ea3ef9725,"[""period""]",0,[0.243464999992284],38,0,38,0,1
,,,,,,,6133ba9a50d368581b0f82dc,,,,,,6133ba9a50d368581b0f82dc,Mężczyzna,18,2021-09-06_18h31.10.045,rantool2,2021.1.4,Win32,59.16809656,6135e006383e6ea6c3d06a28,613642a97f6abb8ea3ef9725,"[""comma""]",0,[0.2361549999914132],39,0,39,0,1
,,,,,,,6133ba9a50d368581b0f82dc,,,,,,6133ba9a50d368581b0f82dc,Mężczyzna,18,2021-09-06_18h31.10.045,rantool2,2021.1.4,Win32,59.16809656,6135e006383e6ea6c3d06a28,613642a97f6abb8ea3ef9725,"[""period""]",0,[0.22224000000278465],40,0,40,0,1
,,,,,,,6133ba9a50d368581b0f82dc,,,,,,6133ba9a50d368581b0f82dc,Mężczyzna,18,2021-09-06_18h31.10.045,rantool2,2021.1.4,Win32,59.16809656,6135e006383e6ea6c3d06a28,613642a97f6abb8ea3ef9725,"[""period""]",0,[0.3292199999996228],41,0,41,0,1
,,,,,,,6133ba9a50d368581b0f82dc,,,,,,6133ba9a50d368581b0f82dc,Mężczyzna,18,2021-09-06_18h31.10.045,rantool2,2021.1.4,Win32,59.16809656,6135e006383e6ea6c3d06a28,613642a97f6abb8ea3ef9725,"[""comma""]",0,[0.7559049999981653],42,0,42,0,1
,,,,,,,6133ba9a50d368581b0f82dc,,,,,,6133ba9a50d368581b0f82dc,Mężczyzna,18,2021-09-06_18h31.10.045,rantool2,2021.1.4,Win32,59.16809656,6135e006383e6ea6c3d06a28,613642a97f6abb8ea3ef9725,"[""comma""]",0,[0.8579699999972945],43,0,43,0,1
,,,,,,,6133ba9a50d368581b0f82dc,,,,,,6133ba9a50d368581b0f82dc,Mężczyzna,18,2021-09-06_18h31.10.045,rantool2,2021.1.4,Win32,59.16809656,6135e006383e6ea6c3d06a28,613642a97f6abb8ea3ef9725,"[""comma""]",0,[0.37064000000827946],44,0,44,0,1
,,,,,,,6133ba9a50d368581b0f82dc,,,,,,6133ba9a50d368581b0f82dc,Mężczyzna,18,2021-09-06_18h31.10.045,rantool2,2021.1.4,Win32,59.16809656,6135e006383e6ea6c3d06a28,613642a97f6abb8ea3ef9725,"[""comma""]",0,[0.4158949999982724],45,0,45,0,1
,,,,,,,6133ba9a50d368581b0f82dc,,,,,,6133ba9a50d368581b0f82dc,Mężczyzna,18,2021-09-06_18h31.10.045,rantool2,2021.1.4,Win32,59.16809656,6135e006383e6ea6c3d06a28,613642a97f6abb8ea3ef9725,"[""period""]",0,[0.19939999999769498],46,0,46,0,1
,,,,,,,6133ba9a50d368581b0f82dc,,,,,,6133ba9a50d368581b0f82dc,Mężczyzna,18,2021-09-06_18h31.10.045,rantool2,2021.1.4,Win32,59.16809656,6135e006383e6ea6c3d06a28,613642a97f6abb8ea3ef9725,"[""comma""]",0,[0.1917949999915436],47,0,47,0,1
,,,,,,,6133ba9a50d368581b0f82dc,,,,,,6133ba9a50d368581b0f82dc,Mężczyzna,18,2021-09-06_18h31.10.045,rantool2,2021.1.4,Win32,59.16809656,6135e006383e6ea6c3d06a28,613642a97f6abb8ea3ef9725,"[""period""]",0,[0.17472499998984858],48,0,48,0,1
,,,,,,,6133ba9a50d368581b0f82dc,,,,,,6133ba9a50d368581b0f82dc,Mężczyzna,18,2021-09-06_18h31.10.045,rantool2,2021.1.4,Win32,59.16809656,6135e006383e6ea6c3d06a28,613642a97f6abb8ea3ef9725,"[""comma""]",0,[0.3169600000110222],49,0,49,0,1
,,,,,,,6133ba9a50d368581b0f82dc,,,,,,6133ba9a50d368581b0f82dc,Mężczyzna,18,2021-09-06_18h31.10.045,rantool2,2021.1.4,Win32,59.16809656,6135e006383e6ea6c3d06a28,613642a97f6abb8ea3ef9725,"[""comma""]",0,[0.9209499999997206],50,0,50,0,1
,,,,,,,6133ba9a50d368581b0f82dc,,,,,,6133ba9a50d368581b0f82dc,Mężczyzna,18,2021-09-06_18h31.10.045,rantool2,2021.1.4,Win32,59.16809656,6135e006383e6ea6c3d06a28,613642a97f6abb8ea3ef9725,"[""period"",""comma""]",0,"[0.266925000003539,1.6935300000041025]",51,0,51,0,1
,,,,,,,6133ba9a50d368581b0f82dc,,,,,,6133ba9a50d368581b0f82dc,Mężczyzna,18,2021-09-06_18h31.10.045,rantool2,2021.1.4,Win32,59.16809656,6135e006383e6ea6c3d06a28,613642a97f6abb8ea3ef9725,"[""comma""]",0,[0.5259950000036042],52,0,52,0,1
,,,,,,,6133ba9a50d368581b0f82dc,,,,,,6133ba9a50d368581b0f82dc,Mężczyzna,18,2021-09-06_18h31.10.045,rantool2,2021.1.4,Win32,59.16809656,6135e006383e6ea6c3d06a28,613642a97f6abb8ea3ef9725,"[""period""]",0,[0.7169200000062119],53,0,53,0,1
,,,,,,,6133ba9a50d368581b0f82dc,,,,,,6133ba9a50d368581b0f82dc,Mężczyzna,18,2021-09-06_18h31.10.045,rantool2,2021.1.4,Win32,59.16809656,6135e006383e6ea6c3d06a28,613642a97f6abb8ea3ef9725,0,0,,54,0,54,0,1
,,,,,,,6133ba9a50d368581b0f82dc,,,,,,6133ba9a50d368581b0f82dc,Mężczyzna,18,2021-09-06_18h31.10.045,rantool2,2021.1.4,Win32,59.16809656,6135e006383e6ea6c3d06a28,613642a97f6abb8ea3ef9725,"[""period""]",0,[0.021780000010039657],55,0,55,0,1
,,,,,,,6133ba9a50d368581b0f82dc,,,,,,6133ba9a50d368581b0f82dc,Mężczyzna,18,2021-09-06_18h31.10.045,rantool2,2021.1.4,Win32,59.16809656,6135e006383e6ea6c3d06a28,613642a97f6abb8ea3ef9725,"[""comma""]",0,[0.5713050000049407],56,0,56,0,1
,,,,,,,6133ba9a50d368581b0f82dc,,,,,,6133ba9a50d368581b0f82dc,Mężczyzna,18,2021-09-06_18h31.10.045,rantool2,2021.1.4,Win32,59.16809656,6135e006383e6ea6c3d06a28,613642a97f6abb8ea3ef9725,"[""period""]",0,[0.27094499999657273],57,0,57,0,1
,,,,,,,6133ba9a50d368581b0f82dc,,,,,,6133ba9a50d368581b0f82dc,Mężczyzna,18,2021-09-06_18h31.10.045,rantool2,2021.1.4,Win32,59.16809656,6135e006383e6ea6c3d06a28,613642a97f6abb8ea3ef9725,"[""comma"",""comma"",""comma""]",0,"[0.15991999999096151,0.5018500000005588,1.1314699999929871]",58,0,58,0,1
,,,,,,,6133ba9a50d368581b0f82dc,,,,,,6133ba9a50d368581b0f82dc,Mężczyzna,18,2021-09-06_18h31.10.045,rantool2,2021.1.4,Win32,59.16809656,6135e006383e6ea6c3d06a28,613642a97f6abb8ea3ef9725,"[""comma""]",0,[0.25728999999410007],59,0,59,0,1
,,,,,,,6133ba9a50d368581b0f82dc,,,,,,6133ba9a50d368581b0f82dc,Mężczyzna,18,2021-09-06_18h31.10.045,rantool2,2021.1.4,Win32,59.16809656,6135e006383e6ea6c3d06a28,613642a97f6abb8ea3ef9725,0,0,,60,0,60,0,1
,,,,,,,6133ba9a50d368581b0f82dc,,,,,,6133ba9a50d368581b0f82dc,Mężczyzna,18,2021-09-06_18h31.10.045,rantool2,2021.1.4,Win32,59.16809656,6135e006383e6ea6c3d06a28,613642a97f6abb8ea3ef9725,0,0,,61,0,61,0,1
,,,,,,,6133ba9a50d368581b0f82dc,,,,,,6133ba9a50d368581b0f82dc,Mężczyzna,18,2021-09-06_18h31.10.045,rantool2,2021.1.4,Win32,59.16809656,6135e006383e6ea6c3d06a28,613642a97f6abb8ea3ef9725,0,0,,62,0,62,0,1
,,,,,,,6133ba9a50d368581b0f82dc,,,,,,6133ba9a50d368581b0f82dc,Mężczyzna,18,2021-09-06_18h31.10.045,rantool2,2021.1.4,Win32,59.16809656,6135e006383e6ea6c3d06a28,613642a97f6abb8ea3ef9725,0,0,,63,0,63,0,1
,,,,,,,6133ba9a50d368581b0f82dc,,,,,,6133ba9a50d368581b0f82dc,Mężczyzna,18,2021-09-06_18h31.10.045,rantool2,2021.1.4,Win32,59.16809656,6135e006383e6ea6c3d06a28,613642a97f6abb8ea3ef9725,"[""period""]",0,[0.4726899999950547],64,0,64,0,1
,,,,,,,6133ba9a50d368581b0f82dc,,,,,,6133ba9a50d368581b0f82dc,Mężczyzna,18,2021-09-06_18h31.10.045,rantool2,2021.1.4,Win32,59.16809656,6135e006383e6ea6c3d06a28,613642a97f6abb8ea3ef9725,"[""comma""]",0,[0.2238050000014482],65,0,65,0,1
,,,,,,,6133ba9a50d368581b0f82dc,,,,,,6133ba9a50d368581b0f82dc,Mężczyzna,18,2021-09-06_18h31.10.045,rantool2,2021.1.4,Win32,59.16809656,6135e006383e6ea6c3d06a28,613642a97f6abb8ea3ef9725,"[""comma""]",0,[0.23660999999265186],66,0,66,0,1
,,,,,,,6133ba9a50d368581b0f82dc,,,,,,6133ba9a50d368581b0f82dc,Mężczyzna,18,2021-09-06_18h31.10.045,rantool2,2021.1.4,Win32,59.16809656,6135e006383e6ea6c3d06a28,613642a97f6abb8ea3ef9725,"[""period""]",0,[0.31661500000336673],67,0,67,0,1
,,,,,,,6133ba9a50d368581b0f82dc,,,,,,6133ba9a50d368581b0f82dc,Mężczyzna,18,2021-09-06_18h31.10.045,rantool2,2021.1.4,Win32,59.16809656,6135e006383e6ea6c3d06a28,613642a97f6abb8ea3ef9725,"[""period""]",0,[0.3217549999972107],68,0,68,0,1
,,,,,,,6133ba9a50d368581b0f82dc,,,,,,6133ba9a50d368581b0f82dc,Mężczyzna,18,2021-09-06_18h31.10.045,rantool2,2021.1.4,Win32,59.16809656,6135e006383e6ea6c3d06a28,613642a97f6abb8ea3ef9725,"[""period""]",0,[0.1167999999888707],69,0,69,0,1
,,,,,,,6133ba9a50d368581b0f82dc,,,,,,6133ba9a50d368581b0f82dc,Mężczyzna,18,2021-09-06_18h31.10.045,rantool2,2021.1.4,Win32,59.16809656,6135e006383e6ea6c3d06a28,613642a97f6abb8ea3ef9725,"[""period""]",0,[0.2905600000085542],70,0,70,0,1
,,,,,,,6133ba9a50d368581b0f82dc,,,,,,6133ba9a50d368581b0f82dc,Mężczyzna,18,2021-09-06_18h31.10.045,rantool2,2021.1.4,Win32,59.16809656,6135e006383e6ea6c3d06a28,613642a97f6abb8ea3ef9725,"[""period""]",0,[0.30904500000178814],71,0,71,0,1
,,,,,,,6133ba9a50d368581b0f82dc,,,,,,6133ba9a50d368581b0f82dc,Mężczyzna,18,2021-09-06_18h31.10.045,rantool2,2021.1.4,Win32,59.16809656,6135e006383e6ea6c3d06a28,613642a97f6abb8ea3ef9725,"[""period""]",0,[0.2306899999966845],72,0,72,0,1
,,,,,,,6133ba9a50d368581b0f82dc,,,,,,6133ba9a50d368581b0f82dc,Mężczyzna,18,2021-09-06_18h31.10.045,rantool2,2021.1.4,Win32,59.16809656,6135e006383e6ea6c3d06a28,613642a97f6abb8ea3ef9725,"[""period""]",0,[0.5953599999920698],73,0,73,0,1
,,,,,,,6133ba9a50d368581b0f82dc,,,,,,6133ba9a50d368581b0f82dc,Mężczyzna,18,2021-09-06_18h31.10.045,rantool2,2021.1.4,Win32,59.16809656,6135e006383e6ea6c3d06a28,613642a97f6abb8ea3ef9725,"[""comma""]",0,[0.3866950000083307],74,0,74,0,1
,,,,,,,6133ba9a50d368581b0f82dc,,,,,,6133ba9a50d368581b0f82dc,Mężczyzna,18,2021-09-06_18h31.10.045,rantool2,2021.1.4,Win32,59.16809656,6135e006383e6ea6c3d06a28,613642a97f6abb8ea3ef9725,"[""period""]",0,[0.2884300000005169],75,0,75,0,1
,,,,,,,6133ba9a50d368581b0f82dc,,,,,,6133ba9a50d368581b0f82dc,Mężczyzna,18,2021-09-06_18h31.10.045,rantool2,2021.1.4,Win32,59.16809656,6135e006383e6ea6c3d06a28,613642a97f6abb8ea3ef9725,0,0,,76,0,76,0,1
,,,,,,,6133ba9a50d368581b0f82dc,,,,,,6133ba9a50d368581b0f82dc,Mężczyzna,18,2021-09-06_18h31.10.045,rantool2,2021.1.4,Win32,59.16809656,6135e006383e6ea6c3d06a28,613642a97f6abb8ea3ef9725,"[""period""]",0,[0.33787499999743886],77,0,77,0,1
,,,,,,,6133ba9a50d368581b0f82dc,,,,,,6133ba9a50d368581b0f82dc,Mężczyzna,18,2021-09-06_18h31.10.045,rantool2,2021.1.4,Win32,59.16809656,6135e006383e6ea6c3d06a28,613642a97f6abb8ea3ef9725,"[""comma"",""comma""]",0,"[0.9364050000003772,1.7274500000057742]",78,0,78,0,1
,,,,,,,6133ba9a50d368581b0f82dc,,,,,,6133ba9a50d368581b0f82dc,Mężczyzna,18,2021-09-06_18h31.10.045,rantool2,2021.1.4,Win32,59.16809656,6135e006383e6ea6c3d06a28,613642a97f6abb8ea3ef9725,"[""comma""]",0,[0.23271999999997206],79,0,79,0,1
,,,,,,,6133ba9a50d368581b0f82dc,,,,,,6133ba9a50d368581b0f82dc,Mężczyzna,18,2021-09-06_18h31.10.045,rantool2,2021.1.4,Win32,59.16809656,6135e006383e6ea6c3d06a28,613642a97f6abb8ea3ef9725,"[""comma"",""comma"",""comma""]",0,"[0.5423100000043632,0.8467999999993481,1.0366000000067288]",80,0,80,0,1
,,,,,,,6133ba9a50d368581b0f82dc,,,,,,6133ba9a50d368581b0f82dc,Mężczyzna,18,2021-09-06_18h31.10.045,rantool2,2021.1.4,Win32,59.16809656,6135e006383e6ea6c3d06a28,613642a97f6abb8ea3ef9725,"[""period"",""period"",""period""]",0,"[0.25269500000285916,0.7942000000039116,0.9551700000010896]",81,0,81,0,1
,,,,,,,6133ba9a50d368581b0f82dc,,,,,,6133ba9a50d368581b0f82dc,Mężczyzna,18,2021-09-06_18h31.10.045,rantool2,2021.1.4,Win32,59.16809656,6135e006383e6ea6c3d06a28,613642a97f6abb8ea3ef9725,"[""comma""]",0,[0.2996149999962654],82,0,82,0,1
,,,,,,,6133ba9a50d368581b0f82dc,,,,,,6133ba9a50d368581b0f82dc,Mężczyzna,18,2021-09-06_18h31.10.045,rantool2,2021.1.4,Win32,59.16809656,6135e006383e6ea6c3d06a28,613642a97f6abb8ea3ef9725,"[""comma"",""comma"",""comma"",""comma""]",0,"[0.11089500000525732,0.3900500000017928,0.6328900000080466,0.8501450000039767]",83,0,83,0,1
,,,,,,,6133ba9a50d368581b0f82dc,,,,,,6133ba9a50d368581b0f82dc,Mężczyzna,18,2021-09-06_18h31.10.045,rantool2,2021.1.4,Win32,59.16809656,6135e006383e6ea6c3d06a28,613642a97f6abb8ea3ef9725,"[""period""]",0,[0.30362500000046566],84,0,84,0,1
,,,,,,,6133ba9a50d368581b0f82dc,,,,,,6133ba9a50d368581b0f82dc,Mężczyzna,18,2021-09-06_18h31.10.045,rantool2,2021.1.4,Win32,59.16809656,6135e006383e6ea6c3d06a28,613642a97f6abb8ea3ef9725,"[""comma"",""comma"",""comma"",""comma""]",0,"[0.14255499999853782,0.45228500000666827,0.6667250000027707,1.7750150000065332]",85,0,85,0,1
,,,,,,,6133ba9a50d368581b0f82dc,,,,,,6133ba9a50d368581b0f82dc,Mężczyzna,18,2021-09-06_18h31.10.045,rantool2,2021.1.4,Win32,59.16809656,6135e006383e6ea6c3d06a28,613642a97f6abb8ea3ef9725,"[""comma"",""comma"",""comma"",""comma""]",0,"[0.16633500000170898,0.34953000000678003,0.6326100000005681,0.9159700000018347]",86,0,86,0,1
,,,,,,,6133ba9a50d368581b0f82dc,,,,,,6133ba9a50d368581b0f82dc,Mężczyzna,18,2021-09-06_18h31.10.045,rantool2,2021.1.4,Win32,59.16809656,6135e006383e6ea6c3d06a28,613642a97f6abb8ea3ef9725,"[""comma"",""comma"",""comma""]",0,"[0.38229999999748543,0.7335949999978766,0.9815099999977974]",87,0,87,0,1
,,,,,,,6133ba9a50d368581b0f82dc,,,,,,6133ba9a50d368581b0f82dc,Mężczyzna,18,2021-09-06_18h31.10.045,rantool2,2021.1.4,Win32,59.16809656,6135e006383e6ea6c3d06a28,613642a97f6abb8ea3ef9725,"[""comma"",""comma"",""comma""]",0,"[0.3586900000082096,0.5232450000039535,1.6530800000036834]",88,0,88,0,1
,,,,,,,6133ba9a50d368581b0f82dc,,,,,,6133ba9a50d368581b0f82dc,Mężczyzna,18,2021-09-06_18h31.10.045,rantool2,2021.1.4,Win32,59.16809656,6135e006383e6ea6c3d06a28,613642a97f6abb8ea3ef9725,"[""comma"",""comma"",""comma"",""period"",""period""]",0,"[0.26996999999391846,0.5334449999936623,0.7883299999957671,1.4250349999929313,1.9246599999896716]",89,0,89,0,1
,,,,,,,6133ba9a50d368581b0f82dc,,,,,,6133ba9a50d368581b0f82dc,Mężczyzna,18,2021-09-06_18h31.10.045,rantool2,2021.1.4,Win32,59.16809656,6135e006383e6ea6c3d06a28,613642a97f6abb8ea3ef9725,"[""period"",""period"",""period"",""period"",""period""]",0,"[0.2386699999915436,0.47764499999175314,0.6945449999911943,1.2883599999913713,1.5292799999879207]",90,0,90,0,1
,,,,,,,6133ba9a50d368581b0f82dc,,,,,,6133ba9a50d368581b0f82dc,Mężczyzna,18,2021-09-06_18h31.10.045,rantool2,2021.1.4,Win32,59.16809656,6135e006383e6ea6c3d06a28,613642a97f6abb8ea3ef9725,"[""period"",""period"",""period"",""period""]",0,"[0.015834999998332933,0.23834999999962747,0.532245000009425,1.6338200000027427]",91,0,91,0,1
,,,,,,,6133ba9a50d368581b0f82dc,,,,,,6133ba9a50d368581b0f82dc,Mężczyzna,18,2021-09-06_18h31.10.045,rantool2,2021.1.4,Win32,59.16809656,6135e006383e6ea6c3d06a28,613642a97f6abb8ea3ef9725,"[""period"",""period"",""period"",""period"",""comma"",""period"",""comma"",""period"",""comma"",""period""]",0,"[0.27068499999586493,0.4900749999942491,0.7378349999926286,1.0671799999981886,1.2329999999928987,1.3505499999882886,1.5072949999885168,1.5323149999894667,1.749259999996866,1.816305000000284]",92,0,92,0,1
,,,,,,,6133ba9a50d368581b0f82dc,,,,,,6133ba9a50d368581b0f82dc,Mężczyzna,18,2021-09-06_18h31.10.045,rantool2,2021.1.4,Win32,59.16809656,6135e006383e6ea6c3d06a28,613642a97f6abb8ea3ef9725,"[""comma"",""period"",""period"",""period"",""period"",""comma"",""comma"",""period""]",0,"[0.024704999988898635,0.09915499998896848,0.4105999999883352,0.6211999999941327,0.7588049999903888,1.4586249999993015,1.6653949999890756,1.8315249999868684]",93,0,93,0,1
,,,,,,,6133ba9a50d368581b0f82dc,,,,,,6133ba9a50d368581b0f82dc,Mężczyzna,18,2021-09-06_18h31.10.045,rantool2,2021.1.4,Win32,59.16809656,6135e006383e6ea6c3d06a28,613642a97f6abb8ea3ef9725,"[""comma"",""period"",""comma"",""period"",""comma"",""period""]",0,"[0.16908999999577645,0.5281300000060583,0.876300000003539,1.2337450000050012,1.60436500000651,1.960879999998724]",94,0,94,0,1
,,,,,,,6133ba9a50d368581b0f82dc,,,,,,6133ba9a50d368581b0f82dc,Mężczyzna,18,2021-09-06_18h31.10.045,rantool2,2021.1.4,Win32,59.16809656,6135e006383e6ea6c3d06a28,613642a97f6abb8ea3ef9725,"[""comma"",""period"",""comma"",""period"",""comma""]",0,"[0.323130000004312,0.6462499999906868,0.9641799999953946,1.328670000002603,1.6927399999985937]",95,0,95,0,1
,,,,,,,6133ba9a50d368581b0f82dc,,,,,,6133ba9a50d368581b0f82dc,Mężczyzna,18,2021-09-06_18h31.10.045,rantool2,2021.1.4,Win32,59.16809656,6135e006383e6ea6c3d06a28,613642a97f6abb8ea3ef9725,"[""period"",""comma"",""period"",""period""]",0,"[0.01805499999318272,0.3613199999963399,0.7003350000013597,0.9969500000006519]",96,0,96,0,1
,,,,,,,6133ba9a50d368581b0f82dc,,,,,,6133ba9a50d368581b0f82dc,Mężczyzna,18,2021-09-06_18h31.10.045,rantool2,2021.1.4,Win32,59.16809656,6135e006383e6ea6c3d06a28,613642a97f6abb8ea3ef9725,"[""comma"",""comma""]",0,"[0.434015000006184,1.1552400000073249]",97,0,97,0,1
,,,,,,,6133ba9a50d368581b0f82dc,,,,,,6133ba9a50d368581b0f82dc,Mężczyzna,18,2021-09-06_18h31.10.045,rantool2,2021.1.4,Win32,59.16809656,6135e006383e6ea6c3d06a28,613642a97f6abb8ea3ef9725,"[""comma"",""comma""]",0,"[0.39205999999830965,1.739159999997355]",98,0,98,0,1
,,,,,,,6133ba9a50d368581b0f82dc,,,,,,6133ba9a50d368581b0f82dc,Mężczyzna,18,2021-09-06_18h31.10.045,rantool2,2021.1.4,Win32,59.16809656,6135e006383e6ea6c3d06a28,613642a97f6abb8ea3ef9725,"[""comma""]",0,[0.8418600000004517],99,0,99,0,1
,,,,,,,6133ba9a50d368581b0f82dc,,,,,,6133ba9a50d368581b0f82dc,Mężczyzna,18,2021-09-06_18h31.10.045,rantool2,2021.1.4,Win32,59.16809656,6135e006383e6ea6c3d06a28,613642a97f6abb8ea3ef9725,"[""comma"",""comma"",""comma""]",0,"[0.11649499999475665,0.7811949999886565,1.467514999996638]",100,0,100,0,1
,,,,,,,6133ba9a50d368581b0f82dc,,,,,,6133ba9a50d368581b0f82dc,Mężczyzna,18,2021-09-06_18h31.10.045,rantool2,2021.1.4,Win32,59.16809656,6135e006383e6ea6c3d06a28,613642a97f6abb8ea3ef9725,"[""comma"",""period"",""period""]",0,"[0.2757900000142399,0.9188400000130059,1.5077450000098906]",101,0,101,0,1
,,,,,,,6133ba9a50d368581b0f82dc,,,,,,6133ba9a50d368581b0f82dc,Mężczyzna,18,2021-09-06_18h31.10.045,rantool2,2021.1.4,Win32,59.16809656,6135e006383e6ea6c3d06a28,613642a97f6abb8ea3ef9725,"[""comma""]",0,[0.937179999993532],102,0,102,0,1
,,,,,,,6133ba9a50d368581b0f82dc,,,,,,6133ba9a50d368581b0f82dc,Mężczyzna,18,2021-09-06_18h31.10.045,rantool2,2021.1.4,Win32,59.16809656,6135e006383e6ea6c3d06a28,613642a97f6abb8ea3ef9725,"[""comma"",""comma"",""period"",""comma"",""period"",""comma""]",0,"[0.28995999999460764,0.5761749999946915,0.6222299999935785,1.2274299999990035,1.3225499999971362,1.8348149999947054]",103,0,103,0,1
,,,,,,,6133ba9a50d368581b0f82dc,,,,,,6133ba9a50d368581b0f82dc,Mężczyzna,18,2021-09-06_18h31.10.045,rantool2,2021.1.4,Win32,59.16809656,6135e006383e6ea6c3d06a28,613642a97f6abb8ea3ef9725,"[""period"",""comma"",""period"",""comma"",""period"",""comma"",""comma""]",0,"[0.13554000000294764,0.4061199999996461,0.6790449999971315,0.9540049999923212,1.2242799999949057,1.5450399999972433,1.8430649999936577]",104,0,104,0,1
,,,,,,,6133ba9a50d368581b0f82dc,,,,,,6133ba9a50d368581b0f82dc,Mężczyzna,18,2021-09-06_18h31.10.045,rantool2,2021.1.4,Win32,59.16809656,6135e006383e6ea6c3d06a28,613642a97f6abb8ea3ef9725,"[""period"",""comma"",""period"",""comma""]",0,"[0.22234999999636784,0.5480899999965914,0.9320699999952922,1.232254999995348]",105,0,105,0,1
,,,,,,,6133ba9a50d368581b0f82dc,,,,,,6133ba9a50d368581b0f82dc,Mężczyzna,18,2021-09-06_18h31.10.045,rantool2,2021.1.4,Win32,59.16809656,6135e006383e6ea6c3d06a28,613642a97f6abb8ea3ef9725,"[""comma"",""period"",""comma"",""period"",""comma"",""comma""]",0,"[0.1248150000028545,0.4161350000067614,0.6666800000093644,0.9231200000067474,1.2028300000092713,1.8275350000039907]",106,0,106,0,1
,,,,,,,6133ba9a50d368581b0f82dc,,,,,,6133ba9a50d368581b0f82dc,Mężczyzna,18,2021-09-06_18h31.10.045,rantool2,2021.1.4,Win32,59.16809656,6135e006383e6ea6c3d06a28,613642a97f6abb8ea3ef9725,"[""period"",""comma"",""period"",""comma"",""comma"",""comma""]",0,"[0.3055549999990035,0.607239999997546,0.8777100000006612,1.309835000007297,1.6162199999962468,1.9143250000051921]",107,0,107,0,1
,,,,,,,6133ba9a50d368581b0f82dc,,,,,,6133ba9a50d368581b0f82dc,Mężczyzna,18,2021-09-06_18h31.10.045,rantool2,2021.1.4,Win32,59.16809656,6135e006383e6ea6c3d06a28,613642a97f6abb8ea3ef9725,"[""period"",""comma"",""comma"",""period"",""comma"",""comma""]",0,"[-0.016694999998435378,0.29161000000021886,0.7221500000014203,0.9507850000081817,1.3304400000051828,1.8868250000086846]",108,0,108,0,1
,,,,,,,6133ba9a50d368581b0f82dc,,,,,,6133ba9a50d368581b0f82dc,Mężczyzna,18,2021-09-06_18h31.10.045,rantool2,2021.1.4,Win32,59.16809656,6135e006383e6ea6c3d06a28,613642a97f6abb8ea3ef9725,"[""period"",""comma"",""comma"",""period"",""comma""]",0,"[0.04982000000018161,0.7507650000043213,1.0825349999940954,1.2494650000007823,1.8761749999976018]",109,0,109,0,1
,,,,,,,6133ba9a50d368581b0f82dc,,,,,,6133ba9a50d368581b0f82dc,Mężczyzna,18,2021-09-06_18h31.10.045,rantool2,2021.1.4,Win32,59.16809656,6135e006383e6ea6c3d06a28,613642a97f6abb8ea3ef9725,"[""period"",""comma"",""period"",""comma"",""period""]",0,"[0.01191500001004897,0.6261850000009872,0.8724550000042655,1.8010350000113249,1.959210000000894]",110,0,110,0,1
,,,,,,,6133ba9a50d368581b0f82dc,,,,,,6133ba9a50d368581b0f82dc,Mężczyzna,18,2021-09-06_18h31.10.045,rantool2,2021.1.4,Win32,59.16809656,6135e006383e6ea6c3d06a28,613642a97f6abb8ea3ef9725,"[""period"",""period"",""comma""]",0,"[0.4911100000026636,0.7657999999937601,1.8656650000048103]",111,0,111,0,1
,,,,,,,6133ba9a50d368581b0f82dc,,,,,,6133ba9a50d368581b0f82dc,Mężczyzna,18,2021-09-06_18h31.10.045,rantool2,2021.1.4,Win32,59.16809656,6135e006383e6ea6c3d06a28,613642a97f6abb8ea3ef9725,"[""period"",""comma""]",0,"[0.2828650000010384,0.7365200000058394]",112,0,112,0,1
,,,,,,,6133ba9a50d368581b0f82dc,,,,,,6133ba9a50d368581b0f82dc,Mężczyzna,18,2021-09-06_18h31.10.045,rantool2,2021.1.4,Win32,59.16809656,6135e006383e6ea6c3d06a28,613642a97f6abb8ea3ef9725,"[""period"",""period""]",0,"[0.226024999996298,1.9555799999943702]",113,0,113,0,1
,,,,,,,6133ba9a50d368581b0f82dc,,,,,,6133ba9a50d368581b0f82dc,Mężczyzna,18,2021-09-06_18h31.10.045,rantool2,2021.1.4,Win32,59.16809656,6135e006383e6ea6c3d06a28,613642a97f6abb8ea3ef9725,"[""comma"",""period""]",0,"[0.2778950000065379,0.6508000000030734]",114,0,114,0,1
,,,,,,,6133ba9a50d368581b0f82dc,,,,,,6133ba9a50d368581b0f82dc,Mężczyzna,18,2021-09-06_18h31.10.045,rantool2,2021.1.4,Win32,59.16809656,6135e006383e6ea6c3d06a28,613642a97f6abb8ea3ef9725,"[""period""]",0,[0.2910449999908451],115,0,115,0,1
,,,,,,,6133ba9a50d368581b0f82dc,,,,,,6133ba9a50d368581b0f82dc,Mężczyzna,18,2021-09-06_18h31.10.045,rantool2,2021.1.4,Win32,59.16809656,6135e006383e6ea6c3d06a28,613642a97f6abb8ea3ef9725,"[""period""]",0,[0.17247000000497792],116,0,116,0,1
,,,,,,,6133ba9a50d368581b0f82dc,,,,,,6133ba9a50d368581b0f82dc,Mężczyzna,18,2021-09-06_18h31.10.045,rantool2,2021.1.4,Win32,59.16809656,6135e006383e6ea6c3d06a28,613642a97f6abb8ea3ef9725,"[""period"",""comma"",""comma""]",0,"[0.19970500000636093,1.6316999999980908,1.8514550000109011]",117,0,117,0,1
,,,,,,,6133ba9a50d368581b0f82dc,,,,,,6133ba9a50d368581b0f82dc,Mężczyzna,18,2021-09-06_18h31.10.045,rantool2,2021.1.4,Win32,59.16809656,6135e006383e6ea6c3d06a28,613642a97f6abb8ea3ef9725,"[""comma"",""comma""]",0,"[0.08650000000488944,0.6852400000061607]",118,0,118,0,1
,,,,,,,6133ba9a50d368581b0f82dc,,,,,,6133ba9a50d368581b0f82dc,Mężczyzna,18,2021-09-06_18h31.10.045,rantool2,2021.1.4,Win32,59.16809656,6135e006383e6ea6c3d06a28,613642a97f6abb8ea3ef9725,"[""period"",""period"",""comma""]",0,"[0.31652999999641906,1.350174999999581,1.3699949999863748]",119,0,119,0,1
