key_resp_7.keys,key_resp_7.rt,trials_2.thisRepN,trials_2.thisTrialN,trials_2.thisN,trials_2.thisIndex,trials_2.ran,id,series_0,series_1,acss_0,acss_1,comparison,id*,Płeć*,Wiek*,date,expName,psychopyVersion,OS,frameRate,STUDY_ID,SESSION_ID,key_resp_5.keys,key_resp_5.corr,key_resp_5.rt,trials.thisRepN,trials.thisTrialN,trials.thisN,trials.thisIndex,trials.ran
f,2.7975,0,0,0,58,1,60ff15e1741753dfdfdb16f4,RRROROO,RRROROR,22.1285618,21.37121559,series_0,60ff15e1741753dfdfdb16f4,Mężczyzna,20,2021-09-06_18h47.02.876,rantool2,2021.1.4,Win32,119.9184555,6135e006383e6ea6c3d06a28,613645f2752b6216141e1fab,,,,,,,,
f,2.0617,0,1,1,47,1,60ff15e1741753dfdfdb16f4,RORRRRO,RORRRRR,21.81333602,21.02936224,series_0,60ff15e1741753dfdfdb16f4,Mężczyzna,20,2021-09-06_18h47.02.876,rantool2,2021.1.4,Win32,119.9184555,6135e006383e6ea6c3d06a28,613645f2752b6216141e1fab,,,,,,,,
f,2.0349,0,2,2,24,1,60ff15e1741753dfdfdb16f4,ORROOOO,ORROOOR,21.12383932,22.07102821,series_1,60ff15e1741753dfdfdb16f4,Mężczyzna,20,2021-09-06_18h47.02.876,rantool2,2021.1.4,Win32,119.9184555,6135e006383e6ea6c3d06a28,613645f2752b6216141e1fab,,,,,,,,
j,2.3054,0,3,3,14,1,60ff15e1741753dfdfdb16f4,OORRROO,OORRROR,22.24142883,22.16977179,series_0,60ff15e1741753dfdfdb16f4,Mężczyzna,20,2021-09-06_18h47.02.876,rantool2,2021.1.4,Win32,119.9184555,6135e006383e6ea6c3d06a28,613645f2752b6216141e1fab,,,,,,,,
j,3.6618,0,4,4,13,1,60ff15e1741753dfdfdb16f4,OORRORO,OORRORR,21.66733484,22.11181017,series_1,60ff15e1741753dfdfdb16f4,Mężczyzna,20,2021-09-06_18h47.02.876,rantool2,2021.1.4,Win32,119.9184555,6135e006383e6ea6c3d06a28,613645f2752b6216141e1fab,,,,,,,,
j,1.9948,0,5,5,36,1,60ff15e1741753dfdfdb16f4,ROOROOO,ROOROOR,21.07991943,20.9984461,series_0,60ff15e1741753dfdfdb16f4,Mężczyzna,20,2021-09-06_18h47.02.876,rantool2,2021.1.4,Win32,119.9184555,6135e006383e6ea6c3d06a28,613645f2752b6216141e1fab,,,,,,,,
j,2.2772,0,6,6,28,1,60ff15e1741753dfdfdb16f4,ORRROOO,ORRROOR,22.24142883,22.53364006,series_1,60ff15e1741753dfdfdb16f4,Mężczyzna,20,2021-09-06_18h47.02.876,rantool2,2021.1.4,Win32,119.9184555,6135e006383e6ea6c3d06a28,613645f2752b6216141e1fab,,,,,,,,
f,2.9816,0,7,7,37,1,60ff15e1741753dfdfdb16f4,ROORORO,ROORORR,20.42602454,21.57657071,series_1,60ff15e1741753dfdfdb16f4,Mężczyzna,20,2021-09-06_18h47.02.876,rantool2,2021.1.4,Win32,119.9184555,6135e006383e6ea6c3d06a28,613645f2752b6216141e1fab,,,,,,,,
f,2.4574,0,8,8,62,1,60ff15e1741753dfdfdb16f4,RRRRROO,RRRRROR,22.16413392,21.27974287,series_0,60ff15e1741753dfdfdb16f4,Mężczyzna,20,2021-09-06_18h47.02.876,rantool2,2021.1.4,Win32,119.9184555,6135e006383e6ea6c3d06a28,613645f2752b6216141e1fab,,,,,,,,
f,1.8902,0,9,9,27,1,60ff15e1741753dfdfdb16f4,ORRORRO,ORRORRR,21.55250791,22.2428857,series_1,60ff15e1741753dfdfdb16f4,Mężczyzna,20,2021-09-06_18h47.02.876,rantool2,2021.1.4,Win32,119.9184555,6135e006383e6ea6c3d06a28,613645f2752b6216141e1fab,,,,,,,,
j,2.3552,0,10,10,41,1,60ff15e1741753dfdfdb16f4,ROROORO,ROROORR,20.42602454,21.71443381,series_1,60ff15e1741753dfdfdb16f4,Mężczyzna,20,2021-09-06_18h47.02.876,rantool2,2021.1.4,Win32,119.9184555,6135e006383e6ea6c3d06a28,613645f2752b6216141e1fab,,,,,,,,
f,1.4733,0,11,11,16,1,60ff15e1741753dfdfdb16f4,OROOOOO,OROOOOR,20.43051175,21.17347734,series_1,60ff15e1741753dfdfdb16f4,Mężczyzna,20,2021-09-06_18h47.02.876,rantool2,2021.1.4,Win32,119.9184555,6135e006383e6ea6c3d06a28,613645f2752b6216141e1fab,,,,,,,,
j,1.8484,0,12,12,15,1,60ff15e1741753dfdfdb16f4,OORRRRO,OORRRRR,22.10108823,21.74922619,series_0,60ff15e1741753dfdfdb16f4,Mężczyzna,20,2021-09-06_18h47.02.876,rantool2,2021.1.4,Win32,119.9184555,6135e006383e6ea6c3d06a28,613645f2752b6216141e1fab,,,,,,,,
f,3.7207,0,13,13,22,1,60ff15e1741753dfdfdb16f4,ORORROO,ORORROR,22.02732763,21.57657071,series_0,60ff15e1741753dfdfdb16f4,Mężczyzna,20,2021-09-06_18h47.02.876,rantool2,2021.1.4,Win32,119.9184555,6135e006383e6ea6c3d06a28,613645f2752b6216141e1fab,,,,,,,,
j,2.9637,0,14,14,29,1,60ff15e1741753dfdfdb16f4,ORRRORO,ORRRORR,22.00300695,22.12173012,series_1,60ff15e1741753dfdfdb16f4,Mężczyzna,20,2021-09-06_18h47.02.876,rantool2,2021.1.4,Win32,119.9184555,6135e006383e6ea6c3d06a28,613645f2752b6216141e1fab,,,,,,,,
j,2.9712,0,15,15,57,1,60ff15e1741753dfdfdb16f4,RRROORO,RRROORR,21.82425538,22.07102821,series_1,60ff15e1741753dfdfdb16f4,Mężczyzna,20,2021-09-06_18h47.02.876,rantool2,2021.1.4,Win32,119.9184555,6135e006383e6ea6c3d06a28,613645f2752b6216141e1fab,,,,,,,,
j,3.8641,0,16,16,53,1,60ff15e1741753dfdfdb16f4,RRORORO,RRORORR,20.71309134,21.90565814,series_1,60ff15e1741753dfdfdb16f4,Mężczyzna,20,2021-09-06_18h47.02.876,rantool2,2021.1.4,Win32,119.9184555,6135e006383e6ea6c3d06a28,613645f2752b6216141e1fab,,,,,,,,
f,2.4243,0,17,17,49,1,60ff15e1741753dfdfdb16f4,RROOORO,RROOORR,21.76276513,22.53364006,series_1,60ff15e1741753dfdfdb16f4,Mężczyzna,20,2021-09-06_18h47.02.876,rantool2,2021.1.4,Win32,119.9184555,6135e006383e6ea6c3d06a28,613645f2752b6216141e1fab,,,,,,,,
j,3.439,0,18,18,6,1,60ff15e1741753dfdfdb16f4,OOORROO,OOORROR,21.12383932,21.38562617,series_1,60ff15e1741753dfdfdb16f4,Mężczyzna,20,2021-09-06_18h47.02.876,rantool2,2021.1.4,Win32,119.9184555,6135e006383e6ea6c3d06a28,613645f2752b6216141e1fab,,,,,,,,
j,2.5158,0,19,19,3,1,60ff15e1741753dfdfdb16f4,OOOORRO,OOOORRR,20.90986523,21.74922619,series_1,60ff15e1741753dfdfdb16f4,Mężczyzna,20,2021-09-06_18h47.02.876,rantool2,2021.1.4,Win32,119.9184555,6135e006383e6ea6c3d06a28,613645f2752b6216141e1fab,,,,,,,,
j,3.2681,0,20,20,35,1,60ff15e1741753dfdfdb16f4,ROOORRO,ROOORRR,21.76276513,22.16977179,series_1,60ff15e1741753dfdfdb16f4,Mężczyzna,20,2021-09-06_18h47.02.876,rantool2,2021.1.4,Win32,119.9184555,6135e006383e6ea6c3d06a28,613645f2752b6216141e1fab,,,,,,,,
f,4.4726,0,21,21,38,1,60ff15e1741753dfdfdb16f4,ROORROO,ROORROR,21.79500819,21.36812781,series_0,60ff15e1741753dfdfdb16f4,Mężczyzna,20,2021-09-06_18h47.02.876,rantool2,2021.1.4,Win32,119.9184555,6135e006383e6ea6c3d06a28,613645f2752b6216141e1fab,,,,,,,,
j,2.5323,0,22,22,61,1,60ff15e1741753dfdfdb16f4,RRRRORO,RRRRORR,21.81333602,21.17347734,series_0,60ff15e1741753dfdfdb16f4,Mężczyzna,20,2021-09-06_18h47.02.876,rantool2,2021.1.4,Win32,119.9184555,6135e006383e6ea6c3d06a28,613645f2752b6216141e1fab,,,,,,,,
j,2.3659,0,23,23,60,1,60ff15e1741753dfdfdb16f4,RRRROOO,RRRROOR,22.10108823,22.15934078,series_1,60ff15e1741753dfdfdb16f4,Mężczyzna,20,2021-09-06_18h47.02.876,rantool2,2021.1.4,Win32,119.9184555,6135e006383e6ea6c3d06a28,613645f2752b6216141e1fab,,,,,,,,
j,2.4474,0,24,24,17,1,60ff15e1741753dfdfdb16f4,OROOORO,OROOORR,21.03750787,22.12173012,series_1,60ff15e1741753dfdfdb16f4,Mężczyzna,20,2021-09-06_18h47.02.876,rantool2,2021.1.4,Win32,119.9184555,6135e006383e6ea6c3d06a28,613645f2752b6216141e1fab,,,,,,,,
f,4.6622,0,25,25,45,1,60ff15e1741753dfdfdb16f4,RORRORO,RORRORR,20.78182524,21.22513037,series_1,60ff15e1741753dfdfdb16f4,Mężczyzna,20,2021-09-06_18h47.02.876,rantool2,2021.1.4,Win32,119.9184555,6135e006383e6ea6c3d06a28,613645f2752b6216141e1fab,,,,,,,,
j,3.6104,0,26,26,44,1,60ff15e1741753dfdfdb16f4,RORROOO,RORROOR,21.66733484,22.02566557,series_1,60ff15e1741753dfdfdb16f4,Mężczyzna,20,2021-09-06_18h47.02.876,rantool2,2021.1.4,Win32,119.9184555,6135e006383e6ea6c3d06a28,613645f2752b6216141e1fab,,,,,,,,
j,2.1016,0,27,27,1,1,60ff15e1741753dfdfdb16f4,OOOOORO,OOOOORR,19.92253567,20.74050628,series_1,60ff15e1741753dfdfdb16f4,Mężczyzna,20,2021-09-06_18h47.02.876,rantool2,2021.1.4,Win32,119.9184555,6135e006383e6ea6c3d06a28,613645f2752b6216141e1fab,,,,,,,,
,,0,28,28,9,1,60ff15e1741753dfdfdb16f4,OOROORO,OOROORR,21.07991943,22.2428857,series_1,60ff15e1741753dfdfdb16f4,Mężczyzna,20,2021-09-06_18h47.02.876,rantool2,2021.1.4,Win32,119.9184555,6135e006383e6ea6c3d06a28,613645f2752b6216141e1fab,,,,,,,,
j,1.9987,0,29,29,23,1,60ff15e1741753dfdfdb16f4,ORORRRO,ORORRRR,22.1285618,21.9921709,series_0,60ff15e1741753dfdfdb16f4,Mężczyzna,20,2021-09-06_18h47.02.876,rantool2,2021.1.4,Win32,119.9184555,6135e006383e6ea6c3d06a28,613645f2752b6216141e1fab,,,,,,,,
f,2.7216,0,30,30,21,1,60ff15e1741753dfdfdb16f4,ORORORO,ORORORR,20.39515459,22.06781359,series_1,60ff15e1741753dfdfdb16f4,Mężczyzna,20,2021-09-06_18h47.02.876,rantool2,2021.1.4,Win32,119.9184555,6135e006383e6ea6c3d06a28,613645f2752b6216141e1fab,,,,,,,,
f,1.9412,0,31,31,31,1,60ff15e1741753dfdfdb16f4,ORRRRRO,ORRRRRR,22.16413392,20.74050628,series_0,60ff15e1741753dfdfdb16f4,Mężczyzna,20,2021-09-06_18h47.02.876,rantool2,2021.1.4,Win32,119.9184555,6135e006383e6ea6c3d06a28,613645f2752b6216141e1fab,,,,,,,,
j,2.2554,0,32,32,59,1,60ff15e1741753dfdfdb16f4,RRRORRO,RRRORRR,21.56657303,20.89823192,series_0,60ff15e1741753dfdfdb16f4,Mężczyzna,20,2021-09-06_18h47.02.876,rantool2,2021.1.4,Win32,119.9184555,6135e006383e6ea6c3d06a28,613645f2752b6216141e1fab,,,,,,,,
j,2.1153,0,33,33,30,1,60ff15e1741753dfdfdb16f4,ORRRROO,ORRRROR,22.46748491,22.03072203,series_0,60ff15e1741753dfdfdb16f4,Mężczyzna,20,2021-09-06_18h47.02.876,rantool2,2021.1.4,Win32,119.9184555,6135e006383e6ea6c3d06a28,613645f2752b6216141e1fab,,,,,,,,
f,3.3523,0,34,34,54,1,60ff15e1741753dfdfdb16f4,RRORROO,RRORROR,21.55250791,20.9984461,series_0,60ff15e1741753dfdfdb16f4,Mężczyzna,20,2021-09-06_18h47.02.876,rantool2,2021.1.4,Win32,119.9184555,6135e006383e6ea6c3d06a28,613645f2752b6216141e1fab,,,,,,,,
f,2.2822,0,35,35,42,1,60ff15e1741753dfdfdb16f4,ROROROO,ROROROR,20.39515459,19.8361834,series_0,60ff15e1741753dfdfdb16f4,Mężczyzna,20,2021-09-06_18h47.02.876,rantool2,2021.1.4,Win32,119.9184555,6135e006383e6ea6c3d06a28,613645f2752b6216141e1fab,,,,,,,,
j,2.7319,0,36,36,56,1,60ff15e1741753dfdfdb16f4,RRROOOO,RRROOOR,21.6194508,22.31681875,series_1,60ff15e1741753dfdfdb16f4,Mężczyzna,20,2021-09-06_18h47.02.876,rantool2,2021.1.4,Win32,119.9184555,6135e006383e6ea6c3d06a28,613645f2752b6216141e1fab,,,,,,,,
j,2.9924,0,37,37,51,1,60ff15e1741753dfdfdb16f4,RROORRO,RROORRR,21.89852628,22.02786418,series_1,60ff15e1741753dfdfdb16f4,Mężczyzna,20,2021-09-06_18h47.02.876,rantool2,2021.1.4,Win32,119.9184555,6135e006383e6ea6c3d06a28,613645f2752b6216141e1fab,,,,,,,,
f,2.1663,0,38,38,20,1,60ff15e1741753dfdfdb16f4,OROROOO,OROROOR,21.31236711,21.90565814,series_1,60ff15e1741753dfdfdb16f4,Mężczyzna,20,2021-09-06_18h47.02.876,rantool2,2021.1.4,Win32,119.9184555,6135e006383e6ea6c3d06a28,613645f2752b6216141e1fab,,,,,,,,
f,3.0073,0,39,39,40,1,60ff15e1741753dfdfdb16f4,ROROOOO,ROROOOR,20.87963819,21.37121559,series_1,60ff15e1741753dfdfdb16f4,Mężczyzna,20,2021-09-06_18h47.02.876,rantool2,2021.1.4,Win32,119.9184555,6135e006383e6ea6c3d06a28,613645f2752b6216141e1fab,,,,,,,,
j,1.208,0,40,40,55,1,60ff15e1741753dfdfdb16f4,RRORRRO,RRORRRR,21.56657303,21.21223021,series_0,60ff15e1741753dfdfdb16f4,Mężczyzna,20,2021-09-06_18h47.02.876,rantool2,2021.1.4,Win32,119.9184555,6135e006383e6ea6c3d06a28,613645f2752b6216141e1fab,,,,,,,,
f,1.9112,0,41,41,48,1,60ff15e1741753dfdfdb16f4,RROOOOO,RROOOOR,20.90986523,22.15934078,series_1,60ff15e1741753dfdfdb16f4,Mężczyzna,20,2021-09-06_18h47.02.876,rantool2,2021.1.4,Win32,119.9184555,6135e006383e6ea6c3d06a28,613645f2752b6216141e1fab,,,,,,,,
j,1.9614,0,42,42,12,1,60ff15e1741753dfdfdb16f4,OORROOO,OORROOR,21.30250474,22.02786418,series_1,60ff15e1741753dfdfdb16f4,Mężczyzna,20,2021-09-06_18h47.02.876,rantool2,2021.1.4,Win32,119.9184555,6135e006383e6ea6c3d06a28,613645f2752b6216141e1fab,,,,,,,,
f,3.4924,0,43,43,10,1,60ff15e1741753dfdfdb16f4,OOROROO,OOROROR,21.31236711,21.07490964,series_0,60ff15e1741753dfdfdb16f4,Mężczyzna,20,2021-09-06_18h47.02.876,rantool2,2021.1.4,Win32,119.9184555,6135e006383e6ea6c3d06a28,613645f2752b6216141e1fab,,,,,,,,
j,2.3939,0,44,44,34,1,60ff15e1741753dfdfdb16f4,ROOOROO,ROOOROR,21.03750787,21.24781509,series_1,60ff15e1741753dfdfdb16f4,Mężczyzna,20,2021-09-06_18h47.02.876,rantool2,2021.1.4,Win32,119.9184555,6135e006383e6ea6c3d06a28,613645f2752b6216141e1fab,,,,,,,,
f,1.7576,0,45,45,32,1,60ff15e1741753dfdfdb16f4,ROOOOOO,ROOOOOR,19.92253567,21.27974287,series_1,60ff15e1741753dfdfdb16f4,Mężczyzna,20,2021-09-06_18h47.02.876,rantool2,2021.1.4,Win32,119.9184555,6135e006383e6ea6c3d06a28,613645f2752b6216141e1fab,,,,,,,,
f,3.7643,0,46,46,5,1,60ff15e1741753dfdfdb16f4,OOORORO,OOORORR,20.87963819,21.9921709,series_1,60ff15e1741753dfdfdb16f4,Mężczyzna,20,2021-09-06_18h47.02.876,rantool2,2021.1.4,Win32,119.9184555,6135e006383e6ea6c3d06a28,613645f2752b6216141e1fab,,,,,,,,
f,2.8667,0,47,47,33,1,60ff15e1741753dfdfdb16f4,ROOOORO,ROOOORR,20.83779602,22.03072203,series_1,60ff15e1741753dfdfdb16f4,Mężczyzna,20,2021-09-06_18h47.02.876,rantool2,2021.1.4,Win32,119.9184555,6135e006383e6ea6c3d06a28,613645f2752b6216141e1fab,,,,,,,,
j,0.9099,0,48,48,0,1,60ff15e1741753dfdfdb16f4,OOOOOOO,OOOOOOR,18.52739004,19.62521613,series_1,60ff15e1741753dfdfdb16f4,Mężczyzna,20,2021-09-06_18h47.02.876,rantool2,2021.1.4,Win32,119.9184555,6135e006383e6ea6c3d06a28,613645f2752b6216141e1fab,,,,,,,,
j,3.5709,0,49,49,46,1,60ff15e1741753dfdfdb16f4,RORRROO,RORRROR,22.00300695,21.24781509,series_0,60ff15e1741753dfdfdb16f4,Mężczyzna,20,2021-09-06_18h47.02.876,rantool2,2021.1.4,Win32,119.9184555,6135e006383e6ea6c3d06a28,613645f2752b6216141e1fab,,,,,,,,
f,2.4104,0,50,50,7,1,60ff15e1741753dfdfdb16f4,OOORRRO,OOORRRR,21.6194508,21.899017,series_1,60ff15e1741753dfdfdb16f4,Mężczyzna,20,2021-09-06_18h47.02.876,rantool2,2021.1.4,Win32,119.9184555,6135e006383e6ea6c3d06a28,613645f2752b6216141e1fab,,,,,,,,
f,3.1253,0,51,51,43,1,60ff15e1741753dfdfdb16f4,RORORRO,RORORRR,20.71309134,21.07490964,series_1,60ff15e1741753dfdfdb16f4,Mężczyzna,20,2021-09-06_18h47.02.876,rantool2,2021.1.4,Win32,119.9184555,6135e006383e6ea6c3d06a28,613645f2752b6216141e1fab,,,,,,,,
j,3.0239,0,52,52,19,1,60ff15e1741753dfdfdb16f4,OROORRO,OROORRR,21.73568164,22.11181017,series_1,60ff15e1741753dfdfdb16f4,Mężczyzna,20,2021-09-06_18h47.02.876,rantool2,2021.1.4,Win32,119.9184555,6135e006383e6ea6c3d06a28,613645f2752b6216141e1fab,,,,,,,,
f,2.6174,0,53,53,50,1,60ff15e1741753dfdfdb16f4,RROOROO,RROOROR,21.73568164,22.02566557,series_1,60ff15e1741753dfdfdb16f4,Mężczyzna,20,2021-09-06_18h47.02.876,rantool2,2021.1.4,Win32,119.9184555,6135e006383e6ea6c3d06a28,613645f2752b6216141e1fab,,,,,,,,
j,2.9486,0,54,54,39,1,60ff15e1741753dfdfdb16f4,ROORRRO,ROORRRR,21.82425538,21.38562617,series_0,60ff15e1741753dfdfdb16f4,Mężczyzna,20,2021-09-06_18h47.02.876,rantool2,2021.1.4,Win32,119.9184555,6135e006383e6ea6c3d06a28,613645f2752b6216141e1fab,,,,,,,,
f,2.8604,0,55,55,11,1,60ff15e1741753dfdfdb16f4,OORORRO,OORORRR,22.18365867,22.6797523,series_1,60ff15e1741753dfdfdb16f4,Mężczyzna,20,2021-09-06_18h47.02.876,rantool2,2021.1.4,Win32,119.9184555,6135e006383e6ea6c3d06a28,613645f2752b6216141e1fab,,,,,,,,
j,1.3417,0,56,56,8,1,60ff15e1741753dfdfdb16f4,OOROOOO,OOROOOR,19.91402015,20.89823192,series_1,60ff15e1741753dfdfdb16f4,Mężczyzna,20,2021-09-06_18h47.02.876,rantool2,2021.1.4,Win32,119.9184555,6135e006383e6ea6c3d06a28,613645f2752b6216141e1fab,,,,,,,,
f,1.6821,0,57,57,4,1,60ff15e1741753dfdfdb16f4,OOOROOO,OOOROOR,19.91402015,21.21223021,series_1,60ff15e1741753dfdfdb16f4,Mężczyzna,20,2021-09-06_18h47.02.876,rantool2,2021.1.4,Win32,119.9184555,6135e006383e6ea6c3d06a28,613645f2752b6216141e1fab,,,,,,,,
j,2.8662,0,58,58,25,1,60ff15e1741753dfdfdb16f4,ORROORO,ORROORR,21.79500819,22.61624387,series_1,60ff15e1741753dfdfdb16f4,Mężczyzna,20,2021-09-06_18h47.02.876,rantool2,2021.1.4,Win32,119.9184555,6135e006383e6ea6c3d06a28,613645f2752b6216141e1fab,,,,,,,,
j,2.4851,0,59,59,26,1,60ff15e1741753dfdfdb16f4,ORROROO,ORROROR,22.02732763,21.71443381,series_0,60ff15e1741753dfdfdb16f4,Mężczyzna,20,2021-09-06_18h47.02.876,rantool2,2021.1.4,Win32,119.9184555,6135e006383e6ea6c3d06a28,613645f2752b6216141e1fab,,,,,,,,
,,0,60,60,18,1,60ff15e1741753dfdfdb16f4,OROOROO,OROOROR,20.84860893,21.22513037,series_1,60ff15e1741753dfdfdb16f4,Mężczyzna,20,2021-09-06_18h47.02.876,rantool2,2021.1.4,Win32,119.9184555,6135e006383e6ea6c3d06a28,613645f2752b6216141e1fab,,,,,,,,
f,1.386,0,61,61,2,1,60ff15e1741753dfdfdb16f4,OOOOROO,OOOOROR,20.43051175,21.02936224,series_1,60ff15e1741753dfdfdb16f4,Mężczyzna,20,2021-09-06_18h47.02.876,rantool2,2021.1.4,Win32,119.9184555,6135e006383e6ea6c3d06a28,613645f2752b6216141e1fab,,,,,,,,
f,2.5074,0,62,62,52,1,60ff15e1741753dfdfdb16f4,RROROOO,RROROOR,22.18365867,22.11097995,series_0,60ff15e1741753dfdfdb16f4,Mężczyzna,20,2021-09-06_18h47.02.876,rantool2,2021.1.4,Win32,119.9184555,6135e006383e6ea6c3d06a28,613645f2752b6216141e1fab,,,,,,,,
f,0.0337,0,63,63,63,1,60ff15e1741753dfdfdb16f4,RRRRRRO,RRRRRRR,21.35278725,19.62521613,series_0,60ff15e1741753dfdfdb16f4,Mężczyzna,20,2021-09-06_18h47.02.876,rantool2,2021.1.4,Win32,119.9184555,6135e006383e6ea6c3d06a28,613645f2752b6216141e1fab,,,,,,,,
,,,,,,,60ff15e1741753dfdfdb16f4,,,,,,60ff15e1741753dfdfdb16f4,Mężczyzna,20,2021-09-06_18h47.02.876,rantool2,2021.1.4,Win32,119.9184555,6135e006383e6ea6c3d06a28,613645f2752b6216141e1fab,"[""comma""]",0,[1.4617000000476423],0,0,0,0,1
,,,,,,,60ff15e1741753dfdfdb16f4,,,,,,60ff15e1741753dfdfdb16f4,Mężczyzna,20,2021-09-06_18h47.02.876,rantool2,2021.1.4,Win32,119.9184555,6135e006383e6ea6c3d06a28,613645f2752b6216141e1fab,"[""period""]",0,[0.7586000001430762],1,0,1,0,1
,,,,,,,60ff15e1741753dfdfdb16f4,,,,,,60ff15e1741753dfdfdb16f4,Mężczyzna,20,2021-09-06_18h47.02.876,rantool2,2021.1.4,Win32,119.9184555,6135e006383e6ea6c3d06a28,613645f2752b6216141e1fab,"[""period""]",0,[0.3666000001430234],2,0,2,0,1
,,,,,,,60ff15e1741753dfdfdb16f4,,,,,,60ff15e1741753dfdfdb16f4,Mężczyzna,20,2021-09-06_18h47.02.876,rantool2,2021.1.4,Win32,119.9184555,6135e006383e6ea6c3d06a28,613645f2752b6216141e1fab,"[""comma""]",0,[0.8269000000954065],3,0,3,0,1
,,,,,,,60ff15e1741753dfdfdb16f4,,,,,,60ff15e1741753dfdfdb16f4,Mężczyzna,20,2021-09-06_18h47.02.876,rantool2,2021.1.4,Win32,119.9184555,6135e006383e6ea6c3d06a28,613645f2752b6216141e1fab,"[""period""]",0,[0.6332999999523281],4,0,4,0,1
,,,,,,,60ff15e1741753dfdfdb16f4,,,,,,60ff15e1741753dfdfdb16f4,Mężczyzna,20,2021-09-06_18h47.02.876,rantool2,2021.1.4,Win32,119.9184555,6135e006383e6ea6c3d06a28,613645f2752b6216141e1fab,"[""period""]",0,[0.7664000000954161],5,0,5,0,1
,,,,,,,60ff15e1741753dfdfdb16f4,,,,,,60ff15e1741753dfdfdb16f4,Mężczyzna,20,2021-09-06_18h47.02.876,rantool2,2021.1.4,Win32,119.9184555,6135e006383e6ea6c3d06a28,613645f2752b6216141e1fab,"[""comma""]",0,[0.7669999999999959],6,0,6,0,1
,,,,,,,60ff15e1741753dfdfdb16f4,,,,,,60ff15e1741753dfdfdb16f4,Mężczyzna,20,2021-09-06_18h47.02.876,rantool2,2021.1.4,Win32,119.9184555,6135e006383e6ea6c3d06a28,613645f2752b6216141e1fab,"[""comma""]",0,[0.6999999999999886],7,0,7,0,1
,,,,,,,60ff15e1741753dfdfdb16f4,,,,,,60ff15e1741753dfdfdb16f4,Mężczyzna,20,2021-09-06_18h47.02.876,rantool2,2021.1.4,Win32,119.9184555,6135e006383e6ea6c3d06a28,613645f2752b6216141e1fab,"[""comma""]",0,[0.35849999999999227],8,0,8,0,1
,,,,,,,60ff15e1741753dfdfdb16f4,,,,,,60ff15e1741753dfdfdb16f4,Mężczyzna,20,2021-09-06_18h47.02.876,rantool2,2021.1.4,Win32,119.9184555,6135e006383e6ea6c3d06a28,613645f2752b6216141e1fab,"[""period""]",0,[0.3396000001430366],9,0,9,0,1
,,,,,,,60ff15e1741753dfdfdb16f4,,,,,,60ff15e1741753dfdfdb16f4,Mężczyzna,20,2021-09-06_18h47.02.876,rantool2,2021.1.4,Win32,119.9184555,6135e006383e6ea6c3d06a28,613645f2752b6216141e1fab,"[""comma""]",0,[0.20199999999999818],10,0,10,0,1
,,,,,,,60ff15e1741753dfdfdb16f4,,,,,,60ff15e1741753dfdfdb16f4,Mężczyzna,20,2021-09-06_18h47.02.876,rantool2,2021.1.4,Win32,119.9184555,6135e006383e6ea6c3d06a28,613645f2752b6216141e1fab,"[""period""]",0,[0.1844000000953656],11,0,11,0,1
,,,,,,,60ff15e1741753dfdfdb16f4,,,,,,60ff15e1741753dfdfdb16f4,Mężczyzna,20,2021-09-06_18h47.02.876,rantool2,2021.1.4,Win32,119.9184555,6135e006383e6ea6c3d06a28,613645f2752b6216141e1fab,"[""period""]",0,[0.29470000004766916],12,0,12,0,1
,,,,,,,60ff15e1741753dfdfdb16f4,,,,,,60ff15e1741753dfdfdb16f4,Mężczyzna,20,2021-09-06_18h47.02.876,rantool2,2021.1.4,Win32,119.9184555,6135e006383e6ea6c3d06a28,613645f2752b6216141e1fab,"[""period""]",0,[1.0774000000953379],13,0,13,0,1
,,,,,,,60ff15e1741753dfdfdb16f4,,,,,,60ff15e1741753dfdfdb16f4,Mężczyzna,20,2021-09-06_18h47.02.876,rantool2,2021.1.4,Win32,119.9184555,6135e006383e6ea6c3d06a28,613645f2752b6216141e1fab,"[""comma""]",0,[0.9470000000000027],14,0,14,0,1
,,,,,,,60ff15e1741753dfdfdb16f4,,,,,,60ff15e1741753dfdfdb16f4,Mężczyzna,20,2021-09-06_18h47.02.876,rantool2,2021.1.4,Win32,119.9184555,6135e006383e6ea6c3d06a28,613645f2752b6216141e1fab,"[""period""]",0,[0.6264999999999645],15,0,15,0,1
,,,,,,,60ff15e1741753dfdfdb16f4,,,,,,60ff15e1741753dfdfdb16f4,Mężczyzna,20,2021-09-06_18h47.02.876,rantool2,2021.1.4,Win32,119.9184555,6135e006383e6ea6c3d06a28,613645f2752b6216141e1fab,"[""comma""]",0,[0.6919000000953588],16,0,16,0,1
,,,,,,,60ff15e1741753dfdfdb16f4,,,,,,60ff15e1741753dfdfdb16f4,Mężczyzna,20,2021-09-06_18h47.02.876,rantool2,2021.1.4,Win32,119.9184555,6135e006383e6ea6c3d06a28,613645f2752b6216141e1fab,"[""period""]",0,[0.48200000000002774],17,0,17,0,1
,,,,,,,60ff15e1741753dfdfdb16f4,,,,,,60ff15e1741753dfdfdb16f4,Mężczyzna,20,2021-09-06_18h47.02.876,rantool2,2021.1.4,Win32,119.9184555,6135e006383e6ea6c3d06a28,613645f2752b6216141e1fab,"[""comma""]",0,[0.24409999990461984],18,0,18,0,1
,,,,,,,60ff15e1741753dfdfdb16f4,,,,,,60ff15e1741753dfdfdb16f4,Mężczyzna,20,2021-09-06_18h47.02.876,rantool2,2021.1.4,Win32,119.9184555,6135e006383e6ea6c3d06a28,613645f2752b6216141e1fab,"[""comma""]",0,[0.21090000009536425],19,0,19,0,1
,,,,,,,60ff15e1741753dfdfdb16f4,,,,,,60ff15e1741753dfdfdb16f4,Mężczyzna,20,2021-09-06_18h47.02.876,rantool2,2021.1.4,Win32,119.9184555,6135e006383e6ea6c3d06a28,613645f2752b6216141e1fab,"[""comma""]",0,[0.21490000009538335],20,0,20,0,1
,,,,,,,60ff15e1741753dfdfdb16f4,,,,,,60ff15e1741753dfdfdb16f4,Mężczyzna,20,2021-09-06_18h47.02.876,rantool2,2021.1.4,Win32,119.9184555,6135e006383e6ea6c3d06a28,613645f2752b6216141e1fab,"[""period""]",0,[0.25200000000000955],21,0,21,0,1
,,,,,,,60ff15e1741753dfdfdb16f4,,,,,,60ff15e1741753dfdfdb16f4,Mężczyzna,20,2021-09-06_18h47.02.876,rantool2,2021.1.4,Win32,119.9184555,6135e006383e6ea6c3d06a28,613645f2752b6216141e1fab,"[""comma""]",0,[0.3478999998569634],22,0,22,0,1
,,,,,,,60ff15e1741753dfdfdb16f4,,,,,,60ff15e1741753dfdfdb16f4,Mężczyzna,20,2021-09-06_18h47.02.876,rantool2,2021.1.4,Win32,119.9184555,6135e006383e6ea6c3d06a28,613645f2752b6216141e1fab,"[""period"",""period""]",0,"[0.20150000000001,1.963100000143072]",23,0,23,0,1
,,,,,,,60ff15e1741753dfdfdb16f4,,,,,,60ff15e1741753dfdfdb16f4,Mężczyzna,20,2021-09-06_18h47.02.876,rantool2,2021.1.4,Win32,119.9184555,6135e006383e6ea6c3d06a28,613645f2752b6216141e1fab,0,0,,24,0,24,0,1
,,,,,,,60ff15e1741753dfdfdb16f4,,,,,,60ff15e1741753dfdfdb16f4,Mężczyzna,20,2021-09-06_18h47.02.876,rantool2,2021.1.4,Win32,119.9184555,6135e006383e6ea6c3d06a28,613645f2752b6216141e1fab,"[""period""]",0,[0.1587000000477019],25,0,25,0,1
,,,,,,,60ff15e1741753dfdfdb16f4,,,,,,60ff15e1741753dfdfdb16f4,Mężczyzna,20,2021-09-06_18h47.02.876,rantool2,2021.1.4,Win32,119.9184555,6135e006383e6ea6c3d06a28,613645f2752b6216141e1fab,"[""period""]",0,[0.22379999995229127],26,0,26,0,1
,,,,,,,60ff15e1741753dfdfdb16f4,,,,,,60ff15e1741753dfdfdb16f4,Mężczyzna,20,2021-09-06_18h47.02.876,rantool2,2021.1.4,Win32,119.9184555,6135e006383e6ea6c3d06a28,613645f2752b6216141e1fab,"[""period""]",0,[0.2845999999046285],27,0,27,0,1
,,,,,,,60ff15e1741753dfdfdb16f4,,,,,,60ff15e1741753dfdfdb16f4,Mężczyzna,20,2021-09-06_18h47.02.876,rantool2,2021.1.4,Win32,119.9184555,6135e006383e6ea6c3d06a28,613645f2752b6216141e1fab,"[""comma""]",0,[0.43679999995231356],28,0,28,0,1
,,,,,,,60ff15e1741753dfdfdb16f4,,,,,,60ff15e1741753dfdfdb16f4,Mężczyzna,20,2021-09-06_18h47.02.876,rantool2,2021.1.4,Win32,119.9184555,6135e006383e6ea6c3d06a28,613645f2752b6216141e1fab,"[""comma""]",0,[0.6394000000954065],29,0,29,0,1
,,,,,,,60ff15e1741753dfdfdb16f4,,,,,,60ff15e1741753dfdfdb16f4,Mężczyzna,20,2021-09-06_18h47.02.876,rantool2,2021.1.4,Win32,119.9184555,6135e006383e6ea6c3d06a28,613645f2752b6216141e1fab,"[""period""]",0,[0.410000000000025],30,0,30,0,1
,,,,,,,60ff15e1741753dfdfdb16f4,,,,,,60ff15e1741753dfdfdb16f4,Mężczyzna,20,2021-09-06_18h47.02.876,rantool2,2021.1.4,Win32,119.9184555,6135e006383e6ea6c3d06a28,613645f2752b6216141e1fab,"[""comma""]",0,[0.3068000001907194],31,0,31,0,1
,,,,,,,60ff15e1741753dfdfdb16f4,,,,,,60ff15e1741753dfdfdb16f4,Mężczyzna,20,2021-09-06_18h47.02.876,rantool2,2021.1.4,Win32,119.9184555,6135e006383e6ea6c3d06a28,613645f2752b6216141e1fab,"[""comma""]",0,[0.4490000000000123],32,0,32,0,1
,,,,,,,60ff15e1741753dfdfdb16f4,,,,,,60ff15e1741753dfdfdb16f4,Mężczyzna,20,2021-09-06_18h47.02.876,rantool2,2021.1.4,Win32,119.9184555,6135e006383e6ea6c3d06a28,613645f2752b6216141e1fab,"[""comma""]",0,[0.6477000000476778],33,0,33,0,1
,,,,,,,60ff15e1741753dfdfdb16f4,,,,,,60ff15e1741753dfdfdb16f4,Mężczyzna,20,2021-09-06_18h47.02.876,rantool2,2021.1.4,Win32,119.9184555,6135e006383e6ea6c3d06a28,613645f2752b6216141e1fab,"[""comma""]",0,[0.4807000000476478],34,0,34,0,1
,,,,,,,60ff15e1741753dfdfdb16f4,,,,,,60ff15e1741753dfdfdb16f4,Mężczyzna,20,2021-09-06_18h47.02.876,rantool2,2021.1.4,Win32,119.9184555,6135e006383e6ea6c3d06a28,613645f2752b6216141e1fab,"[""comma""]",0,[0.4259999999999877],35,0,35,0,1
,,,,,,,60ff15e1741753dfdfdb16f4,,,,,,60ff15e1741753dfdfdb16f4,Mężczyzna,20,2021-09-06_18h47.02.876,rantool2,2021.1.4,Win32,119.9184555,6135e006383e6ea6c3d06a28,613645f2752b6216141e1fab,"[""comma""]",0,[0.5065999999046085],36,0,36,0,1
,,,,,,,60ff15e1741753dfdfdb16f4,,,,,,60ff15e1741753dfdfdb16f4,Mężczyzna,20,2021-09-06_18h47.02.876,rantool2,2021.1.4,Win32,119.9184555,6135e006383e6ea6c3d06a28,613645f2752b6216141e1fab,"[""period""]",0,[0.5169999999999959],37,0,37,0,1
,,,,,,,60ff15e1741753dfdfdb16f4,,,,,,60ff15e1741753dfdfdb16f4,Mężczyzna,20,2021-09-06_18h47.02.876,rantool2,2021.1.4,Win32,119.9184555,6135e006383e6ea6c3d06a28,613645f2752b6216141e1fab,"[""period""]",0,[0.41070000004771146],38,0,38,0,1
,,,,,,,60ff15e1741753dfdfdb16f4,,,,,,60ff15e1741753dfdfdb16f4,Mężczyzna,20,2021-09-06_18h47.02.876,rantool2,2021.1.4,Win32,119.9184555,6135e006383e6ea6c3d06a28,613645f2752b6216141e1fab,"[""comma""]",0,[0.3348999998569866],39,0,39,0,1
,,,,,,,60ff15e1741753dfdfdb16f4,,,,,,60ff15e1741753dfdfdb16f4,Mężczyzna,20,2021-09-06_18h47.02.876,rantool2,2021.1.4,Win32,119.9184555,6135e006383e6ea6c3d06a28,613645f2752b6216141e1fab,"[""comma""]",0,[0.427799999952299],40,0,40,0,1
,,,,,,,60ff15e1741753dfdfdb16f4,,,,,,60ff15e1741753dfdfdb16f4,Mężczyzna,20,2021-09-06_18h47.02.876,rantool2,2021.1.4,Win32,119.9184555,6135e006383e6ea6c3d06a28,613645f2752b6216141e1fab,"[""period""]",0,[0.36469999980926104],41,0,41,0,1
,,,,,,,60ff15e1741753dfdfdb16f4,,,,,,60ff15e1741753dfdfdb16f4,Mężczyzna,20,2021-09-06_18h47.02.876,rantool2,2021.1.4,Win32,119.9184555,6135e006383e6ea6c3d06a28,613645f2752b6216141e1fab,"[""comma""]",0,[0.42549999999999955],42,0,42,0,1
,,,,,,,60ff15e1741753dfdfdb16f4,,,,,,60ff15e1741753dfdfdb16f4,Mężczyzna,20,2021-09-06_18h47.02.876,rantool2,2021.1.4,Win32,119.9184555,6135e006383e6ea6c3d06a28,613645f2752b6216141e1fab,"[""period""]",0,[0.4982000000476887],43,0,43,0,1
,,,,,,,60ff15e1741753dfdfdb16f4,,,,,,60ff15e1741753dfdfdb16f4,Mężczyzna,20,2021-09-06_18h47.02.876,rantool2,2021.1.4,Win32,119.9184555,6135e006383e6ea6c3d06a28,613645f2752b6216141e1fab,"[""comma""]",0,[0.5267999999523454],44,0,44,0,1
,,,,,,,60ff15e1741753dfdfdb16f4,,,,,,60ff15e1741753dfdfdb16f4,Mężczyzna,20,2021-09-06_18h47.02.876,rantool2,2021.1.4,Win32,119.9184555,6135e006383e6ea6c3d06a28,613645f2752b6216141e1fab,"[""period""]",0,[0.4147999999523222],45,0,45,0,1
,,,,,,,60ff15e1741753dfdfdb16f4,,,,,,60ff15e1741753dfdfdb16f4,Mężczyzna,20,2021-09-06_18h47.02.876,rantool2,2021.1.4,Win32,119.9184555,6135e006383e6ea6c3d06a28,613645f2752b6216141e1fab,"[""comma""]",0,[0.8587000000476905],46,0,46,0,1
,,,,,,,60ff15e1741753dfdfdb16f4,,,,,,60ff15e1741753dfdfdb16f4,Mężczyzna,20,2021-09-06_18h47.02.876,rantool2,2021.1.4,Win32,119.9184555,6135e006383e6ea6c3d06a28,613645f2752b6216141e1fab,"[""period""]",0,[0.3589000000953888],47,0,47,0,1
,,,,,,,60ff15e1741753dfdfdb16f4,,,,,,60ff15e1741753dfdfdb16f4,Mężczyzna,20,2021-09-06_18h47.02.876,rantool2,2021.1.4,Win32,119.9184555,6135e006383e6ea6c3d06a28,613645f2752b6216141e1fab,"[""comma""]",0,[0.33690000009539744],48,0,48,0,1
,,,,,,,60ff15e1741753dfdfdb16f4,,,,,,60ff15e1741753dfdfdb16f4,Mężczyzna,20,2021-09-06_18h47.02.876,rantool2,2021.1.4,Win32,119.9184555,6135e006383e6ea6c3d06a28,613645f2752b6216141e1fab,"[""comma""]",0,[0.45340000009537107],49,0,49,0,1
,,,,,,,60ff15e1741753dfdfdb16f4,,,,,,60ff15e1741753dfdfdb16f4,Mężczyzna,20,2021-09-06_18h47.02.876,rantool2,2021.1.4,Win32,119.9184555,6135e006383e6ea6c3d06a28,613645f2752b6216141e1fab,"[""comma""]",0,[0.4147999999523222],50,0,50,0,1
,,,,,,,60ff15e1741753dfdfdb16f4,,,,,,60ff15e1741753dfdfdb16f4,Mężczyzna,20,2021-09-06_18h47.02.876,rantool2,2021.1.4,Win32,119.9184555,6135e006383e6ea6c3d06a28,613645f2752b6216141e1fab,"[""period""]",0,[0.4616000001430507],51,0,51,0,1
,,,,,,,60ff15e1741753dfdfdb16f4,,,,,,60ff15e1741753dfdfdb16f4,Mężczyzna,20,2021-09-06_18h47.02.876,rantool2,2021.1.4,Win32,119.9184555,6135e006383e6ea6c3d06a28,613645f2752b6216141e1fab,"[""comma""]",0,[0.49160000014308025],52,0,52,0,1
,,,,,,,60ff15e1741753dfdfdb16f4,,,,,,60ff15e1741753dfdfdb16f4,Mężczyzna,20,2021-09-06_18h47.02.876,rantool2,2021.1.4,Win32,119.9184555,6135e006383e6ea6c3d06a28,613645f2752b6216141e1fab,"[""comma""]",0,[0.6105000000000018],53,0,53,0,1
,,,,,,,60ff15e1741753dfdfdb16f4,,,,,,60ff15e1741753dfdfdb16f4,Mężczyzna,20,2021-09-06_18h47.02.876,rantool2,2021.1.4,Win32,119.9184555,6135e006383e6ea6c3d06a28,613645f2752b6216141e1fab,"[""period""]",0,[0.35020000004766416],54,0,54,0,1
,,,,,,,60ff15e1741753dfdfdb16f4,,,,,,60ff15e1741753dfdfdb16f4,Mężczyzna,20,2021-09-06_18h47.02.876,rantool2,2021.1.4,Win32,119.9184555,6135e006383e6ea6c3d06a28,613645f2752b6216141e1fab,"[""comma""]",0,[0.4975000000000023],55,0,55,0,1
,,,,,,,60ff15e1741753dfdfdb16f4,,,,,,60ff15e1741753dfdfdb16f4,Mężczyzna,20,2021-09-06_18h47.02.876,rantool2,2021.1.4,Win32,119.9184555,6135e006383e6ea6c3d06a28,613645f2752b6216141e1fab,"[""comma""]",0,[0.043299999952296275],56,0,56,0,1
,,,,,,,60ff15e1741753dfdfdb16f4,,,,,,60ff15e1741753dfdfdb16f4,Mężczyzna,20,2021-09-06_18h47.02.876,rantool2,2021.1.4,Win32,119.9184555,6135e006383e6ea6c3d06a28,613645f2752b6216141e1fab,"[""comma""]",0,[0.33109999990466576],57,0,57,0,1
,,,,,,,60ff15e1741753dfdfdb16f4,,,,,,60ff15e1741753dfdfdb16f4,Mężczyzna,20,2021-09-06_18h47.02.876,rantool2,2021.1.4,Win32,119.9184555,6135e006383e6ea6c3d06a28,613645f2752b6216141e1fab,"[""period""]",0,[0.08569999980926468],58,0,58,0,1
,,,,,,,60ff15e1741753dfdfdb16f4,,,,,,60ff15e1741753dfdfdb16f4,Mężczyzna,20,2021-09-06_18h47.02.876,rantool2,2021.1.4,Win32,119.9184555,6135e006383e6ea6c3d06a28,613645f2752b6216141e1fab,"[""period""]",0,[0.22500000000002274],59,0,59,0,1
,,,,,,,60ff15e1741753dfdfdb16f4,,,,,,60ff15e1741753dfdfdb16f4,Mężczyzna,20,2021-09-06_18h47.02.876,rantool2,2021.1.4,Win32,119.9184555,6135e006383e6ea6c3d06a28,613645f2752b6216141e1fab,"[""period""]",0,[0.23980000019071213],60,0,60,0,1
,,,,,,,60ff15e1741753dfdfdb16f4,,,,,,60ff15e1741753dfdfdb16f4,Mężczyzna,20,2021-09-06_18h47.02.876,rantool2,2021.1.4,Win32,119.9184555,6135e006383e6ea6c3d06a28,613645f2752b6216141e1fab,"[""period""]",0,[0.25900000000001455],61,0,61,0,1
,,,,,,,60ff15e1741753dfdfdb16f4,,,,,,60ff15e1741753dfdfdb16f4,Mężczyzna,20,2021-09-06_18h47.02.876,rantool2,2021.1.4,Win32,119.9184555,6135e006383e6ea6c3d06a28,613645f2752b6216141e1fab,"[""comma""]",0,[0.3420000000000414],62,0,62,0,1
,,,,,,,60ff15e1741753dfdfdb16f4,,,,,,60ff15e1741753dfdfdb16f4,Mężczyzna,20,2021-09-06_18h47.02.876,rantool2,2021.1.4,Win32,119.9184555,6135e006383e6ea6c3d06a28,613645f2752b6216141e1fab,"[""comma""]",0,[0.2436000001430898],63,0,63,0,1
,,,,,,,60ff15e1741753dfdfdb16f4,,,,,,60ff15e1741753dfdfdb16f4,Mężczyzna,20,2021-09-06_18h47.02.876,rantool2,2021.1.4,Win32,119.9184555,6135e006383e6ea6c3d06a28,613645f2752b6216141e1fab,"[""comma""]",0,[0.23279999995230582],64,0,64,0,1
,,,,,,,60ff15e1741753dfdfdb16f4,,,,,,60ff15e1741753dfdfdb16f4,Mężczyzna,20,2021-09-06_18h47.02.876,rantool2,2021.1.4,Win32,119.9184555,6135e006383e6ea6c3d06a28,613645f2752b6216141e1fab,"[""comma""]",0,[0.23099999999999454],65,0,65,0,1
,,,,,,,60ff15e1741753dfdfdb16f4,,,,,,60ff15e1741753dfdfdb16f4,Mężczyzna,20,2021-09-06_18h47.02.876,rantool2,2021.1.4,Win32,119.9184555,6135e006383e6ea6c3d06a28,613645f2752b6216141e1fab,"[""comma""]",0,[0.15959999990462848],66,0,66,0,1
,,,,,,,60ff15e1741753dfdfdb16f4,,,,,,60ff15e1741753dfdfdb16f4,Mężczyzna,20,2021-09-06_18h47.02.876,rantool2,2021.1.4,Win32,119.9184555,6135e006383e6ea6c3d06a28,613645f2752b6216141e1fab,"[""comma""]",0,[0.22370000004769963],67,0,67,0,1
,,,,,,,60ff15e1741753dfdfdb16f4,,,,,,60ff15e1741753dfdfdb16f4,Mężczyzna,20,2021-09-06_18h47.02.876,rantool2,2021.1.4,Win32,119.9184555,6135e006383e6ea6c3d06a28,613645f2752b6216141e1fab,"[""comma""]",0,[0.31059999990463893],68,0,68,0,1
,,,,,,,60ff15e1741753dfdfdb16f4,,,,,,60ff15e1741753dfdfdb16f4,Mężczyzna,20,2021-09-06_18h47.02.876,rantool2,2021.1.4,Win32,119.9184555,6135e006383e6ea6c3d06a28,613645f2752b6216141e1fab,"[""period""]",0,[0.05090000009539608],69,0,69,0,1
,,,,,,,60ff15e1741753dfdfdb16f4,,,,,,60ff15e1741753dfdfdb16f4,Mężczyzna,20,2021-09-06_18h47.02.876,rantool2,2021.1.4,Win32,119.9184555,6135e006383e6ea6c3d06a28,613645f2752b6216141e1fab,"[""comma""]",0,[0.2644999999999982],70,0,70,0,1
,,,,,,,60ff15e1741753dfdfdb16f4,,,,,,60ff15e1741753dfdfdb16f4,Mężczyzna,20,2021-09-06_18h47.02.876,rantool2,2021.1.4,Win32,119.9184555,6135e006383e6ea6c3d06a28,613645f2752b6216141e1fab,"[""period"",""period""]",0,"[0.03970000004767371,1.9129000000953624]",71,0,71,0,1
,,,,,,,60ff15e1741753dfdfdb16f4,,,,,,60ff15e1741753dfdfdb16f4,Mężczyzna,20,2021-09-06_18h47.02.876,rantool2,2021.1.4,Win32,119.9184555,6135e006383e6ea6c3d06a28,613645f2752b6216141e1fab,"[""period""]",0,[1.922200000047667],72,0,72,0,1
,,,,,,,60ff15e1741753dfdfdb16f4,,,,,,60ff15e1741753dfdfdb16f4,Mężczyzna,20,2021-09-06_18h47.02.876,rantool2,2021.1.4,Win32,119.9184555,6135e006383e6ea6c3d06a28,613645f2752b6216141e1fab,"[""comma""]",0,[1.856700000047681],73,0,73,0,1
,,,,,,,60ff15e1741753dfdfdb16f4,,,,,,60ff15e1741753dfdfdb16f4,Mężczyzna,20,2021-09-06_18h47.02.876,rantool2,2021.1.4,Win32,119.9184555,6135e006383e6ea6c3d06a28,613645f2752b6216141e1fab,0,0,,74,0,74,0,1
,,,,,,,60ff15e1741753dfdfdb16f4,,,,,,60ff15e1741753dfdfdb16f4,Mężczyzna,20,2021-09-06_18h47.02.876,rantool2,2021.1.4,Win32,119.9184555,6135e006383e6ea6c3d06a28,613645f2752b6216141e1fab,"[""comma""]",0,[0.07640000009536152],75,0,75,0,1
,,,,,,,60ff15e1741753dfdfdb16f4,,,,,,60ff15e1741753dfdfdb16f4,Mężczyzna,20,2021-09-06_18h47.02.876,rantool2,2021.1.4,Win32,119.9184555,6135e006383e6ea6c3d06a28,613645f2752b6216141e1fab,"[""comma""]",0,[0.16829999995229628],76,0,76,0,1
,,,,,,,60ff15e1741753dfdfdb16f4,,,,,,60ff15e1741753dfdfdb16f4,Mężczyzna,20,2021-09-06_18h47.02.876,rantool2,2021.1.4,Win32,119.9184555,6135e006383e6ea6c3d06a28,613645f2752b6216141e1fab,"[""comma"",""comma""]",0,"[0.2232999999523031,1.9599999999999795]",77,0,77,0,1
,,,,,,,60ff15e1741753dfdfdb16f4,,,,,,60ff15e1741753dfdfdb16f4,Mężczyzna,20,2021-09-06_18h47.02.876,rantool2,2021.1.4,Win32,119.9184555,6135e006383e6ea6c3d06a28,613645f2752b6216141e1fab,0,0,,78,0,78,0,1
,,,,,,,60ff15e1741753dfdfdb16f4,,,,,,60ff15e1741753dfdfdb16f4,Mężczyzna,20,2021-09-06_18h47.02.876,rantool2,2021.1.4,Win32,119.9184555,6135e006383e6ea6c3d06a28,613645f2752b6216141e1fab,"[""comma""]",0,[0.21939999985693248],79,0,79,0,1
,,,,,,,60ff15e1741753dfdfdb16f4,,,,,,60ff15e1741753dfdfdb16f4,Mężczyzna,20,2021-09-06_18h47.02.876,rantool2,2021.1.4,Win32,119.9184555,6135e006383e6ea6c3d06a28,613645f2752b6216141e1fab,"[""comma""]",0,[0.2532999999522758],80,0,80,0,1
,,,,,,,60ff15e1741753dfdfdb16f4,,,,,,60ff15e1741753dfdfdb16f4,Mężczyzna,20,2021-09-06_18h47.02.876,rantool2,2021.1.4,Win32,119.9184555,6135e006383e6ea6c3d06a28,613645f2752b6216141e1fab,"[""comma""]",0,[0.3064000000953797],81,0,81,0,1
,,,,,,,60ff15e1741753dfdfdb16f4,,,,,,60ff15e1741753dfdfdb16f4,Mężczyzna,20,2021-09-06_18h47.02.876,rantool2,2021.1.4,Win32,119.9184555,6135e006383e6ea6c3d06a28,613645f2752b6216141e1fab,"[""comma""]",0,[0.22760000014307025],82,0,82,0,1
,,,,,,,60ff15e1741753dfdfdb16f4,,,,,,60ff15e1741753dfdfdb16f4,Mężczyzna,20,2021-09-06_18h47.02.876,rantool2,2021.1.4,Win32,119.9184555,6135e006383e6ea6c3d06a28,613645f2752b6216141e1fab,"[""comma"",""period""]",0,"[0.27329999995231447,1.9130999999046594]",83,0,83,0,1
,,,,,,,60ff15e1741753dfdfdb16f4,,,,,,60ff15e1741753dfdfdb16f4,Mężczyzna,20,2021-09-06_18h47.02.876,rantool2,2021.1.4,Win32,119.9184555,6135e006383e6ea6c3d06a28,613645f2752b6216141e1fab,0,0,,84,0,84,0,1
,,,,,,,60ff15e1741753dfdfdb16f4,,,,,,60ff15e1741753dfdfdb16f4,Mężczyzna,20,2021-09-06_18h47.02.876,rantool2,2021.1.4,Win32,119.9184555,6135e006383e6ea6c3d06a28,613645f2752b6216141e1fab,"[""period""]",0,[0.2406999998092374],85,0,85,0,1
,,,,,,,60ff15e1741753dfdfdb16f4,,,,,,60ff15e1741753dfdfdb16f4,Mężczyzna,20,2021-09-06_18h47.02.876,rantool2,2021.1.4,Win32,119.9184555,6135e006383e6ea6c3d06a28,613645f2752b6216141e1fab,"[""comma""]",0,[0.0012999999523231054],86,0,86,0,1
,,,,,,,60ff15e1741753dfdfdb16f4,,,,,,60ff15e1741753dfdfdb16f4,Mężczyzna,20,2021-09-06_18h47.02.876,rantool2,2021.1.4,Win32,119.9184555,6135e006383e6ea6c3d06a28,613645f2752b6216141e1fab,"[""comma""]",0,[0.2480000000000473],87,0,87,0,1
,,,,,,,60ff15e1741753dfdfdb16f4,,,,,,60ff15e1741753dfdfdb16f4,Mężczyzna,20,2021-09-06_18h47.02.876,rantool2,2021.1.4,Win32,119.9184555,6135e006383e6ea6c3d06a28,613645f2752b6216141e1fab,"[""period""]",0,[0.21550000000002],88,0,88,0,1
,,,,,,,60ff15e1741753dfdfdb16f4,,,,,,60ff15e1741753dfdfdb16f4,Mężczyzna,20,2021-09-06_18h47.02.876,rantool2,2021.1.4,Win32,119.9184555,6135e006383e6ea6c3d06a28,613645f2752b6216141e1fab,"[""period""]",0,[0.20689999985694385],89,0,89,0,1
,,,,,,,60ff15e1741753dfdfdb16f4,,,,,,60ff15e1741753dfdfdb16f4,Mężczyzna,20,2021-09-06_18h47.02.876,rantool2,2021.1.4,Win32,119.9184555,6135e006383e6ea6c3d06a28,613645f2752b6216141e1fab,"[""comma"",""period""]",0,"[0.283400000095412,1.927000000000021]",90,0,90,0,1
,,,,,,,60ff15e1741753dfdfdb16f4,,,,,,60ff15e1741753dfdfdb16f4,Mężczyzna,20,2021-09-06_18h47.02.876,rantool2,2021.1.4,Win32,119.9184555,6135e006383e6ea6c3d06a28,613645f2752b6216141e1fab,0,0,,91,0,91,0,1
,,,,,,,60ff15e1741753dfdfdb16f4,,,,,,60ff15e1741753dfdfdb16f4,Mężczyzna,20,2021-09-06_18h47.02.876,rantool2,2021.1.4,Win32,119.9184555,6135e006383e6ea6c3d06a28,613645f2752b6216141e1fab,"[""period""]",0,[0.2276000001430134],92,0,92,0,1
,,,,,,,60ff15e1741753dfdfdb16f4,,,,,,60ff15e1741753dfdfdb16f4,Mężczyzna,20,2021-09-06_18h47.02.876,rantool2,2021.1.4,Win32,119.9184555,6135e006383e6ea6c3d06a28,613645f2752b6216141e1fab,"[""period""]",0,[0.26679999995229764],93,0,93,0,1
,,,,,,,60ff15e1741753dfdfdb16f4,,,,,,60ff15e1741753dfdfdb16f4,Mężczyzna,20,2021-09-06_18h47.02.876,rantool2,2021.1.4,Win32,119.9184555,6135e006383e6ea6c3d06a28,613645f2752b6216141e1fab,"[""comma""]",0,[0.272599999904628],94,0,94,0,1
,,,,,,,60ff15e1741753dfdfdb16f4,,,,,,60ff15e1741753dfdfdb16f4,Mężczyzna,20,2021-09-06_18h47.02.876,rantool2,2021.1.4,Win32,119.9184555,6135e006383e6ea6c3d06a28,613645f2752b6216141e1fab,"[""comma""]",0,[0.3233999998569743],95,0,95,0,1
,,,,,,,60ff15e1741753dfdfdb16f4,,,,,,60ff15e1741753dfdfdb16f4,Mężczyzna,20,2021-09-06_18h47.02.876,rantool2,2021.1.4,Win32,119.9184555,6135e006383e6ea6c3d06a28,613645f2752b6216141e1fab,"[""comma""]",0,[0.3176999998092924],96,0,96,0,1
,,,,,,,60ff15e1741753dfdfdb16f4,,,,,,60ff15e1741753dfdfdb16f4,Mężczyzna,20,2021-09-06_18h47.02.876,rantool2,2021.1.4,Win32,119.9184555,6135e006383e6ea6c3d06a28,613645f2752b6216141e1fab,"[""period""]",0,[0.25200000000000955],97,0,97,0,1
,,,,,,,60ff15e1741753dfdfdb16f4,,,,,,60ff15e1741753dfdfdb16f4,Mężczyzna,20,2021-09-06_18h47.02.876,rantool2,2021.1.4,Win32,119.9184555,6135e006383e6ea6c3d06a28,613645f2752b6216141e1fab,"[""comma""]",0,[0.6030000000000086],98,0,98,0,1
,,,,,,,60ff15e1741753dfdfdb16f4,,,,,,60ff15e1741753dfdfdb16f4,Mężczyzna,20,2021-09-06_18h47.02.876,rantool2,2021.1.4,Win32,119.9184555,6135e006383e6ea6c3d06a28,613645f2752b6216141e1fab,"[""comma""]",0,[0.29790000009535333],99,0,99,0,1
,,,,,,,60ff15e1741753dfdfdb16f4,,,,,,60ff15e1741753dfdfdb16f4,Mężczyzna,20,2021-09-06_18h47.02.876,rantool2,2021.1.4,Win32,119.9184555,6135e006383e6ea6c3d06a28,613645f2752b6216141e1fab,"[""period"",""period""]",0,"[0.23240000009536743,1.842700000047671]",100,0,100,0,1
,,,,,,,60ff15e1741753dfdfdb16f4,,,,,,60ff15e1741753dfdfdb16f4,Mężczyzna,20,2021-09-06_18h47.02.876,rantool2,2021.1.4,Win32,119.9184555,6135e006383e6ea6c3d06a28,613645f2752b6216141e1fab,"[""period""]",0,[0.3431000001430675],101,0,101,0,1
,,,,,,,60ff15e1741753dfdfdb16f4,,,,,,60ff15e1741753dfdfdb16f4,Mężczyzna,20,2021-09-06_18h47.02.876,rantool2,2021.1.4,Win32,119.9184555,6135e006383e6ea6c3d06a28,613645f2752b6216141e1fab,"[""comma""]",0,[0.26779999995233084],102,0,102,0,1
,,,,,,,60ff15e1741753dfdfdb16f4,,,,,,60ff15e1741753dfdfdb16f4,Mężczyzna,20,2021-09-06_18h47.02.876,rantool2,2021.1.4,Win32,119.9184555,6135e006383e6ea6c3d06a28,613645f2752b6216141e1fab,"[""period""]",0,[0.0772000000476396],103,0,103,0,1
,,,,,,,60ff15e1741753dfdfdb16f4,,,,,,60ff15e1741753dfdfdb16f4,Mężczyzna,20,2021-09-06_18h47.02.876,rantool2,2021.1.4,Win32,119.9184555,6135e006383e6ea6c3d06a28,613645f2752b6216141e1fab,"[""period""]",0,[0.22429999995227945],104,0,104,0,1
,,,,,,,60ff15e1741753dfdfdb16f4,,,,,,60ff15e1741753dfdfdb16f4,Mężczyzna,20,2021-09-06_18h47.02.876,rantool2,2021.1.4,Win32,119.9184555,6135e006383e6ea6c3d06a28,613645f2752b6216141e1fab,"[""comma""]",0,[0.27350000000001273],105,0,105,0,1
,,,,,,,60ff15e1741753dfdfdb16f4,,,,,,60ff15e1741753dfdfdb16f4,Mężczyzna,20,2021-09-06_18h47.02.876,rantool2,2021.1.4,Win32,119.9184555,6135e006383e6ea6c3d06a28,613645f2752b6216141e1fab,"[""comma""]",0,[0.14309999990462074],106,0,106,0,1
,,,,,,,60ff15e1741753dfdfdb16f4,,,,,,60ff15e1741753dfdfdb16f4,Mężczyzna,20,2021-09-06_18h47.02.876,rantool2,2021.1.4,Win32,119.9184555,6135e006383e6ea6c3d06a28,613645f2752b6216141e1fab,"[""comma""]",0,[0.3067000000476696],107,0,107,0,1
,,,,,,,60ff15e1741753dfdfdb16f4,,,,,,60ff15e1741753dfdfdb16f4,Mężczyzna,20,2021-09-06_18h47.02.876,rantool2,2021.1.4,Win32,119.9184555,6135e006383e6ea6c3d06a28,613645f2752b6216141e1fab,"[""comma""]",0,[0.2504999999999882],108,0,108,0,1
,,,,,,,60ff15e1741753dfdfdb16f4,,,,,,60ff15e1741753dfdfdb16f4,Mężczyzna,20,2021-09-06_18h47.02.876,rantool2,2021.1.4,Win32,119.9184555,6135e006383e6ea6c3d06a28,613645f2752b6216141e1fab,"[""period""]",0,[0.16490000009537198],109,0,109,0,1
,,,,,,,60ff15e1741753dfdfdb16f4,,,,,,60ff15e1741753dfdfdb16f4,Mężczyzna,20,2021-09-06_18h47.02.876,rantool2,2021.1.4,Win32,119.9184555,6135e006383e6ea6c3d06a28,613645f2752b6216141e1fab,"[""comma""]",0,[0.2897000000476737],110,0,110,0,1
,,,,,,,60ff15e1741753dfdfdb16f4,,,,,,60ff15e1741753dfdfdb16f4,Mężczyzna,20,2021-09-06_18h47.02.876,rantool2,2021.1.4,Win32,119.9184555,6135e006383e6ea6c3d06a28,613645f2752b6216141e1fab,"[""period""]",0,[0.23269999980925604],111,0,111,0,1
,,,,,,,60ff15e1741753dfdfdb16f4,,,,,,60ff15e1741753dfdfdb16f4,Mężczyzna,20,2021-09-06_18h47.02.876,rantool2,2021.1.4,Win32,119.9184555,6135e006383e6ea6c3d06a28,613645f2752b6216141e1fab,"[""period""]",0,[0.20859999990460665],112,0,112,0,1
,,,,,,,60ff15e1741753dfdfdb16f4,,,,,,60ff15e1741753dfdfdb16f4,Mężczyzna,20,2021-09-06_18h47.02.876,rantool2,2021.1.4,Win32,119.9184555,6135e006383e6ea6c3d06a28,613645f2752b6216141e1fab,"[""period""]",0,[0.21929999995234084],113,0,113,0,1
,,,,,,,60ff15e1741753dfdfdb16f4,,,,,,60ff15e1741753dfdfdb16f4,Mężczyzna,20,2021-09-06_18h47.02.876,rantool2,2021.1.4,Win32,119.9184555,6135e006383e6ea6c3d06a28,613645f2752b6216141e1fab,"[""comma""]",0,[0.2670999999046444],114,0,114,0,1
,,,,,,,60ff15e1741753dfdfdb16f4,,,,,,60ff15e1741753dfdfdb16f4,Mężczyzna,20,2021-09-06_18h47.02.876,rantool2,2021.1.4,Win32,119.9184555,6135e006383e6ea6c3d06a28,613645f2752b6216141e1fab,"[""period""]",0,[0.3165000000000191],115,0,115,0,1
,,,,,,,60ff15e1741753dfdfdb16f4,,,,,,60ff15e1741753dfdfdb16f4,Mężczyzna,20,2021-09-06_18h47.02.876,rantool2,2021.1.4,Win32,119.9184555,6135e006383e6ea6c3d06a28,613645f2752b6216141e1fab,"[""comma""]",0,[0.21529999995232174],116,0,116,0,1
,,,,,,,60ff15e1741753dfdfdb16f4,,,,,,60ff15e1741753dfdfdb16f4,Mężczyzna,20,2021-09-06_18h47.02.876,rantool2,2021.1.4,Win32,119.9184555,6135e006383e6ea6c3d06a28,613645f2752b6216141e1fab,"[""period""]",0,[0.21809999990460938],117,0,117,0,1
,,,,,,,60ff15e1741753dfdfdb16f4,,,,,,60ff15e1741753dfdfdb16f4,Mężczyzna,20,2021-09-06_18h47.02.876,rantool2,2021.1.4,Win32,119.9184555,6135e006383e6ea6c3d06a28,613645f2752b6216141e1fab,"[""comma""]",0,[0.39790000009537607],118,0,118,0,1
,,,,,,,60ff15e1741753dfdfdb16f4,,,,,,60ff15e1741753dfdfdb16f4,Mężczyzna,20,2021-09-06_18h47.02.876,rantool2,2021.1.4,Win32,119.9184555,6135e006383e6ea6c3d06a28,613645f2752b6216141e1fab,"[""period""]",0,[0.2574999999999932],119,0,119,0,1
