key_resp_7.keys,key_resp_7.rt,trials_2.thisRepN,trials_2.thisTrialN,trials_2.thisN,trials_2.thisIndex,trials_2.ran,id,series_0,series_1,acss_0,acss_1,comparison,id*,Płeć*,Wiek*,date,expName,psychopyVersion,OS,frameRate,STUDY_ID,SESSION_ID,key_resp_5.keys,key_resp_5.corr,key_resp_5.rt,trials.thisRepN,trials.thisTrialN,trials.thisN,trials.thisIndex,trials.ran
j,2.6914,0,0,0,41,1,612f3f73f0f8086722abf5c5,ROROORO,ROROORR,20.42602454,21.71443381,series_1,612f3f73f0f8086722abf5c5,Mężczyzna,18,2021-09-06_19h00.53.067,rantool2,2021.1.4,Win32,60.13952369,6135e006383e6ea6c3d06a28,6136487ec82b3732f840295e,,,,,,,,
f,2.1337,0,1,1,51,1,612f3f73f0f8086722abf5c5,RROORRO,RROORRR,21.89852628,22.02786418,series_1,612f3f73f0f8086722abf5c5,Mężczyzna,18,2021-09-06_19h00.53.067,rantool2,2021.1.4,Win32,60.13952369,6135e006383e6ea6c3d06a28,6136487ec82b3732f840295e,,,,,,,,
j,2.3007,0,2,2,25,1,612f3f73f0f8086722abf5c5,ORROORO,ORROORR,21.79500819,22.61624387,series_1,612f3f73f0f8086722abf5c5,Mężczyzna,18,2021-09-06_19h00.53.067,rantool2,2021.1.4,Win32,60.13952369,6135e006383e6ea6c3d06a28,6136487ec82b3732f840295e,,,,,,,,
f,2.2786,0,3,3,3,1,612f3f73f0f8086722abf5c5,OOOORRO,OOOORRR,20.90986523,21.74922619,series_1,612f3f73f0f8086722abf5c5,Mężczyzna,18,2021-09-06_19h00.53.067,rantool2,2021.1.4,Win32,60.13952369,6135e006383e6ea6c3d06a28,6136487ec82b3732f840295e,,,,,,,,
f,2.483,0,4,4,33,1,612f3f73f0f8086722abf5c5,ROOOORO,ROOOORR,20.83779602,22.03072203,series_1,612f3f73f0f8086722abf5c5,Mężczyzna,18,2021-09-06_19h00.53.067,rantool2,2021.1.4,Win32,60.13952369,6135e006383e6ea6c3d06a28,6136487ec82b3732f840295e,,,,,,,,
f,2.8161,0,5,5,26,1,612f3f73f0f8086722abf5c5,ORROROO,ORROROR,22.02732763,21.71443381,series_0,612f3f73f0f8086722abf5c5,Mężczyzna,18,2021-09-06_19h00.53.067,rantool2,2021.1.4,Win32,60.13952369,6135e006383e6ea6c3d06a28,6136487ec82b3732f840295e,,,,,,,,
j,2.2362,0,6,6,7,1,612f3f73f0f8086722abf5c5,OOORRRO,OOORRRR,21.6194508,21.899017,series_1,612f3f73f0f8086722abf5c5,Mężczyzna,18,2021-09-06_19h00.53.067,rantool2,2021.1.4,Win32,60.13952369,6135e006383e6ea6c3d06a28,6136487ec82b3732f840295e,,,,,,,,
j,2.7793,0,7,7,36,1,612f3f73f0f8086722abf5c5,ROOROOO,ROOROOR,21.07991943,20.9984461,series_0,612f3f73f0f8086722abf5c5,Mężczyzna,18,2021-09-06_19h00.53.067,rantool2,2021.1.4,Win32,60.13952369,6135e006383e6ea6c3d06a28,6136487ec82b3732f840295e,,,,,,,,
j,2.7878,0,8,8,34,1,612f3f73f0f8086722abf5c5,ROOOROO,ROOOROR,21.03750787,21.24781509,series_1,612f3f73f0f8086722abf5c5,Mężczyzna,18,2021-09-06_19h00.53.067,rantool2,2021.1.4,Win32,60.13952369,6135e006383e6ea6c3d06a28,6136487ec82b3732f840295e,,,,,,,,
f,3.0039,0,9,9,0,1,612f3f73f0f8086722abf5c5,OOOOOOO,OOOOOOR,18.52739004,19.62521613,series_1,612f3f73f0f8086722abf5c5,Mężczyzna,18,2021-09-06_19h00.53.067,rantool2,2021.1.4,Win32,60.13952369,6135e006383e6ea6c3d06a28,6136487ec82b3732f840295e,,,,,,,,
j,1.9227,0,10,10,54,1,612f3f73f0f8086722abf5c5,RRORROO,RRORROR,21.55250791,20.9984461,series_0,612f3f73f0f8086722abf5c5,Mężczyzna,18,2021-09-06_19h00.53.067,rantool2,2021.1.4,Win32,60.13952369,6135e006383e6ea6c3d06a28,6136487ec82b3732f840295e,,,,,,,,
f,1.5836,0,11,11,32,1,612f3f73f0f8086722abf5c5,ROOOOOO,ROOOOOR,19.92253567,21.27974287,series_1,612f3f73f0f8086722abf5c5,Mężczyzna,18,2021-09-06_19h00.53.067,rantool2,2021.1.4,Win32,60.13952369,6135e006383e6ea6c3d06a28,6136487ec82b3732f840295e,,,,,,,,
j,3.67,0,12,12,29,1,612f3f73f0f8086722abf5c5,ORRRORO,ORRRORR,22.00300695,22.12173012,series_1,612f3f73f0f8086722abf5c5,Mężczyzna,18,2021-09-06_19h00.53.067,rantool2,2021.1.4,Win32,60.13952369,6135e006383e6ea6c3d06a28,6136487ec82b3732f840295e,,,,,,,,
f,3.6884,0,13,13,21,1,612f3f73f0f8086722abf5c5,ORORORO,ORORORR,20.39515459,22.06781359,series_1,612f3f73f0f8086722abf5c5,Mężczyzna,18,2021-09-06_19h00.53.067,rantool2,2021.1.4,Win32,60.13952369,6135e006383e6ea6c3d06a28,6136487ec82b3732f840295e,,,,,,,,
j,1.3011,0,14,14,45,1,612f3f73f0f8086722abf5c5,RORRORO,RORRORR,20.78182524,21.22513037,series_1,612f3f73f0f8086722abf5c5,Mężczyzna,18,2021-09-06_19h00.53.067,rantool2,2021.1.4,Win32,60.13952369,6135e006383e6ea6c3d06a28,6136487ec82b3732f840295e,,,,,,,,
f,3.177,0,15,15,24,1,612f3f73f0f8086722abf5c5,ORROOOO,ORROOOR,21.12383932,22.07102821,series_1,612f3f73f0f8086722abf5c5,Mężczyzna,18,2021-09-06_19h00.53.067,rantool2,2021.1.4,Win32,60.13952369,6135e006383e6ea6c3d06a28,6136487ec82b3732f840295e,,,,,,,,
j,2.5537,0,16,16,10,1,612f3f73f0f8086722abf5c5,OOROROO,OOROROR,21.31236711,21.07490964,series_0,612f3f73f0f8086722abf5c5,Mężczyzna,18,2021-09-06_19h00.53.067,rantool2,2021.1.4,Win32,60.13952369,6135e006383e6ea6c3d06a28,6136487ec82b3732f840295e,,,,,,,,
j,2.0827,0,17,17,1,1,612f3f73f0f8086722abf5c5,OOOOORO,OOOOORR,19.92253567,20.74050628,series_1,612f3f73f0f8086722abf5c5,Mężczyzna,18,2021-09-06_19h00.53.067,rantool2,2021.1.4,Win32,60.13952369,6135e006383e6ea6c3d06a28,6136487ec82b3732f840295e,,,,,,,,
j,2.7024,0,18,18,38,1,612f3f73f0f8086722abf5c5,ROORROO,ROORROR,21.79500819,21.36812781,series_0,612f3f73f0f8086722abf5c5,Mężczyzna,18,2021-09-06_19h00.53.067,rantool2,2021.1.4,Win32,60.13952369,6135e006383e6ea6c3d06a28,6136487ec82b3732f840295e,,,,,,,,
f,1.3137,0,19,19,19,1,612f3f73f0f8086722abf5c5,OROORRO,OROORRR,21.73568164,22.11181017,series_1,612f3f73f0f8086722abf5c5,Mężczyzna,18,2021-09-06_19h00.53.067,rantool2,2021.1.4,Win32,60.13952369,6135e006383e6ea6c3d06a28,6136487ec82b3732f840295e,,,,,,,,
j,1.9974,0,20,20,40,1,612f3f73f0f8086722abf5c5,ROROOOO,ROROOOR,20.87963819,21.37121559,series_1,612f3f73f0f8086722abf5c5,Mężczyzna,18,2021-09-06_19h00.53.067,rantool2,2021.1.4,Win32,60.13952369,6135e006383e6ea6c3d06a28,6136487ec82b3732f840295e,,,,,,,,
f,1.645,0,21,21,14,1,612f3f73f0f8086722abf5c5,OORRROO,OORRROR,22.24142883,22.16977179,series_0,612f3f73f0f8086722abf5c5,Mężczyzna,18,2021-09-06_19h00.53.067,rantool2,2021.1.4,Win32,60.13952369,6135e006383e6ea6c3d06a28,6136487ec82b3732f840295e,,,,,,,,
f,1.323,0,22,22,17,1,612f3f73f0f8086722abf5c5,OROOORO,OROOORR,21.03750787,22.12173012,series_1,612f3f73f0f8086722abf5c5,Mężczyzna,18,2021-09-06_19h00.53.067,rantool2,2021.1.4,Win32,60.13952369,6135e006383e6ea6c3d06a28,6136487ec82b3732f840295e,,,,,,,,
j,1.2454,0,23,23,53,1,612f3f73f0f8086722abf5c5,RRORORO,RRORORR,20.71309134,21.90565814,series_1,612f3f73f0f8086722abf5c5,Mężczyzna,18,2021-09-06_19h00.53.067,rantool2,2021.1.4,Win32,60.13952369,6135e006383e6ea6c3d06a28,6136487ec82b3732f840295e,,,,,,,,
f,1.717,0,24,24,27,1,612f3f73f0f8086722abf5c5,ORRORRO,ORRORRR,21.55250791,22.2428857,series_1,612f3f73f0f8086722abf5c5,Mężczyzna,18,2021-09-06_19h00.53.067,rantool2,2021.1.4,Win32,60.13952369,6135e006383e6ea6c3d06a28,6136487ec82b3732f840295e,,,,,,,,
j,3.2381,0,25,25,49,1,612f3f73f0f8086722abf5c5,RROOORO,RROOORR,21.76276513,22.53364006,series_1,612f3f73f0f8086722abf5c5,Mężczyzna,18,2021-09-06_19h00.53.067,rantool2,2021.1.4,Win32,60.13952369,6135e006383e6ea6c3d06a28,6136487ec82b3732f840295e,,,,,,,,
j,1.8599,0,26,26,23,1,612f3f73f0f8086722abf5c5,ORORRRO,ORORRRR,22.1285618,21.9921709,series_0,612f3f73f0f8086722abf5c5,Mężczyzna,18,2021-09-06_19h00.53.067,rantool2,2021.1.4,Win32,60.13952369,6135e006383e6ea6c3d06a28,6136487ec82b3732f840295e,,,,,,,,
j,2.1616,0,27,27,37,1,612f3f73f0f8086722abf5c5,ROORORO,ROORORR,20.42602454,21.57657071,series_1,612f3f73f0f8086722abf5c5,Mężczyzna,18,2021-09-06_19h00.53.067,rantool2,2021.1.4,Win32,60.13952369,6135e006383e6ea6c3d06a28,6136487ec82b3732f840295e,,,,,,,,
j,1.9782,0,28,28,35,1,612f3f73f0f8086722abf5c5,ROOORRO,ROOORRR,21.76276513,22.16977179,series_1,612f3f73f0f8086722abf5c5,Mężczyzna,18,2021-09-06_19h00.53.067,rantool2,2021.1.4,Win32,60.13952369,6135e006383e6ea6c3d06a28,6136487ec82b3732f840295e,,,,,,,,
f,3.0594,0,29,29,46,1,612f3f73f0f8086722abf5c5,RORRROO,RORRROR,22.00300695,21.24781509,series_0,612f3f73f0f8086722abf5c5,Mężczyzna,18,2021-09-06_19h00.53.067,rantool2,2021.1.4,Win32,60.13952369,6135e006383e6ea6c3d06a28,6136487ec82b3732f840295e,,,,,,,,
j,2.3368,0,30,30,57,1,612f3f73f0f8086722abf5c5,RRROORO,RRROORR,21.82425538,22.07102821,series_1,612f3f73f0f8086722abf5c5,Mężczyzna,18,2021-09-06_19h00.53.067,rantool2,2021.1.4,Win32,60.13952369,6135e006383e6ea6c3d06a28,6136487ec82b3732f840295e,,,,,,,,
f,2.322,0,31,31,15,1,612f3f73f0f8086722abf5c5,OORRRRO,OORRRRR,22.10108823,21.74922619,series_0,612f3f73f0f8086722abf5c5,Mężczyzna,18,2021-09-06_19h00.53.067,rantool2,2021.1.4,Win32,60.13952369,6135e006383e6ea6c3d06a28,6136487ec82b3732f840295e,,,,,,,,
j,2.3329,0,32,32,31,1,612f3f73f0f8086722abf5c5,ORRRRRO,ORRRRRR,22.16413392,20.74050628,series_0,612f3f73f0f8086722abf5c5,Mężczyzna,18,2021-09-06_19h00.53.067,rantool2,2021.1.4,Win32,60.13952369,6135e006383e6ea6c3d06a28,6136487ec82b3732f840295e,,,,,,,,
f,1.5664,0,33,33,56,1,612f3f73f0f8086722abf5c5,RRROOOO,RRROOOR,21.6194508,22.31681875,series_1,612f3f73f0f8086722abf5c5,Mężczyzna,18,2021-09-06_19h00.53.067,rantool2,2021.1.4,Win32,60.13952369,6135e006383e6ea6c3d06a28,6136487ec82b3732f840295e,,,,,,,,
f,1.6232,0,34,34,11,1,612f3f73f0f8086722abf5c5,OORORRO,OORORRR,22.18365867,22.6797523,series_1,612f3f73f0f8086722abf5c5,Mężczyzna,18,2021-09-06_19h00.53.067,rantool2,2021.1.4,Win32,60.13952369,6135e006383e6ea6c3d06a28,6136487ec82b3732f840295e,,,,,,,,
j,1.4779,0,35,35,50,1,612f3f73f0f8086722abf5c5,RROOROO,RROOROR,21.73568164,22.02566557,series_1,612f3f73f0f8086722abf5c5,Mężczyzna,18,2021-09-06_19h00.53.067,rantool2,2021.1.4,Win32,60.13952369,6135e006383e6ea6c3d06a28,6136487ec82b3732f840295e,,,,,,,,
j,1.5007,0,36,36,55,1,612f3f73f0f8086722abf5c5,RRORRRO,RRORRRR,21.56657303,21.21223021,series_0,612f3f73f0f8086722abf5c5,Mężczyzna,18,2021-09-06_19h00.53.067,rantool2,2021.1.4,Win32,60.13952369,6135e006383e6ea6c3d06a28,6136487ec82b3732f840295e,,,,,,,,
f,1.8855,0,37,37,60,1,612f3f73f0f8086722abf5c5,RRRROOO,RRRROOR,22.10108823,22.15934078,series_1,612f3f73f0f8086722abf5c5,Mężczyzna,18,2021-09-06_19h00.53.067,rantool2,2021.1.4,Win32,60.13952369,6135e006383e6ea6c3d06a28,6136487ec82b3732f840295e,,,,,,,,
j,1.8979,0,38,38,63,1,612f3f73f0f8086722abf5c5,RRRRRRO,RRRRRRR,21.35278725,19.62521613,series_0,612f3f73f0f8086722abf5c5,Mężczyzna,18,2021-09-06_19h00.53.067,rantool2,2021.1.4,Win32,60.13952369,6135e006383e6ea6c3d06a28,6136487ec82b3732f840295e,,,,,,,,
f,1.7416,0,39,39,47,1,612f3f73f0f8086722abf5c5,RORRRRO,RORRRRR,21.81333602,21.02936224,series_0,612f3f73f0f8086722abf5c5,Mężczyzna,18,2021-09-06_19h00.53.067,rantool2,2021.1.4,Win32,60.13952369,6135e006383e6ea6c3d06a28,6136487ec82b3732f840295e,,,,,,,,
j,1.2237,0,40,40,18,1,612f3f73f0f8086722abf5c5,OROOROO,OROOROR,20.84860893,21.22513037,series_1,612f3f73f0f8086722abf5c5,Mężczyzna,18,2021-09-06_19h00.53.067,rantool2,2021.1.4,Win32,60.13952369,6135e006383e6ea6c3d06a28,6136487ec82b3732f840295e,,,,,,,,
f,1.1841,0,41,41,30,1,612f3f73f0f8086722abf5c5,ORRRROO,ORRRROR,22.46748491,22.03072203,series_0,612f3f73f0f8086722abf5c5,Mężczyzna,18,2021-09-06_19h00.53.067,rantool2,2021.1.4,Win32,60.13952369,6135e006383e6ea6c3d06a28,6136487ec82b3732f840295e,,,,,,,,
f,1.5506,0,42,42,6,1,612f3f73f0f8086722abf5c5,OOORROO,OOORROR,21.12383932,21.38562617,series_1,612f3f73f0f8086722abf5c5,Mężczyzna,18,2021-09-06_19h00.53.067,rantool2,2021.1.4,Win32,60.13952369,6135e006383e6ea6c3d06a28,6136487ec82b3732f840295e,,,,,,,,
f,1.6712,0,43,43,52,1,612f3f73f0f8086722abf5c5,RROROOO,RROROOR,22.18365867,22.11097995,series_0,612f3f73f0f8086722abf5c5,Mężczyzna,18,2021-09-06_19h00.53.067,rantool2,2021.1.4,Win32,60.13952369,6135e006383e6ea6c3d06a28,6136487ec82b3732f840295e,,,,,,,,
j,1.1078,0,44,44,48,1,612f3f73f0f8086722abf5c5,RROOOOO,RROOOOR,20.90986523,22.15934078,series_1,612f3f73f0f8086722abf5c5,Mężczyzna,18,2021-09-06_19h00.53.067,rantool2,2021.1.4,Win32,60.13952369,6135e006383e6ea6c3d06a28,6136487ec82b3732f840295e,,,,,,,,
f,0.719,0,45,45,8,1,612f3f73f0f8086722abf5c5,OOROOOO,OOROOOR,19.91402015,20.89823192,series_1,612f3f73f0f8086722abf5c5,Mężczyzna,18,2021-09-06_19h00.53.067,rantool2,2021.1.4,Win32,60.13952369,6135e006383e6ea6c3d06a28,6136487ec82b3732f840295e,,,,,,,,
j,0.9542,0,46,46,20,1,612f3f73f0f8086722abf5c5,OROROOO,OROROOR,21.31236711,21.90565814,series_1,612f3f73f0f8086722abf5c5,Mężczyzna,18,2021-09-06_19h00.53.067,rantool2,2021.1.4,Win32,60.13952369,6135e006383e6ea6c3d06a28,6136487ec82b3732f840295e,,,,,,,,
f,1.0108,0,47,47,44,1,612f3f73f0f8086722abf5c5,RORROOO,RORROOR,21.66733484,22.02566557,series_1,612f3f73f0f8086722abf5c5,Mężczyzna,18,2021-09-06_19h00.53.067,rantool2,2021.1.4,Win32,60.13952369,6135e006383e6ea6c3d06a28,6136487ec82b3732f840295e,,,,,,,,
j,1.8183,0,48,48,28,1,612f3f73f0f8086722abf5c5,ORRROOO,ORRROOR,22.24142883,22.53364006,series_1,612f3f73f0f8086722abf5c5,Mężczyzna,18,2021-09-06_19h00.53.067,rantool2,2021.1.4,Win32,60.13952369,6135e006383e6ea6c3d06a28,6136487ec82b3732f840295e,,,,,,,,
f,0.8889,0,49,49,12,1,612f3f73f0f8086722abf5c5,OORROOO,OORROOR,21.30250474,22.02786418,series_1,612f3f73f0f8086722abf5c5,Mężczyzna,18,2021-09-06_19h00.53.067,rantool2,2021.1.4,Win32,60.13952369,6135e006383e6ea6c3d06a28,6136487ec82b3732f840295e,,,,,,,,
j,1.3887,0,50,50,16,1,612f3f73f0f8086722abf5c5,OROOOOO,OROOOOR,20.43051175,21.17347734,series_1,612f3f73f0f8086722abf5c5,Mężczyzna,18,2021-09-06_19h00.53.067,rantool2,2021.1.4,Win32,60.13952369,6135e006383e6ea6c3d06a28,6136487ec82b3732f840295e,,,,,,,,
f,0.8447,0,51,51,13,1,612f3f73f0f8086722abf5c5,OORRORO,OORRORR,21.66733484,22.11181017,series_1,612f3f73f0f8086722abf5c5,Mężczyzna,18,2021-09-06_19h00.53.067,rantool2,2021.1.4,Win32,60.13952369,6135e006383e6ea6c3d06a28,6136487ec82b3732f840295e,,,,,,,,
j,0.795,0,52,52,42,1,612f3f73f0f8086722abf5c5,ROROROO,ROROROR,20.39515459,19.8361834,series_0,612f3f73f0f8086722abf5c5,Mężczyzna,18,2021-09-06_19h00.53.067,rantool2,2021.1.4,Win32,60.13952369,6135e006383e6ea6c3d06a28,6136487ec82b3732f840295e,,,,,,,,
j,1.1006,0,53,53,62,1,612f3f73f0f8086722abf5c5,RRRRROO,RRRRROR,22.16413392,21.27974287,series_0,612f3f73f0f8086722abf5c5,Mężczyzna,18,2021-09-06_19h00.53.067,rantool2,2021.1.4,Win32,60.13952369,6135e006383e6ea6c3d06a28,6136487ec82b3732f840295e,,,,,,,,
j,2.1662,0,54,54,22,1,612f3f73f0f8086722abf5c5,ORORROO,ORORROR,22.02732763,21.57657071,series_0,612f3f73f0f8086722abf5c5,Mężczyzna,18,2021-09-06_19h00.53.067,rantool2,2021.1.4,Win32,60.13952369,6135e006383e6ea6c3d06a28,6136487ec82b3732f840295e,,,,,,,,
f,0.9587,0,55,55,58,1,612f3f73f0f8086722abf5c5,RRROROO,RRROROR,22.1285618,21.37121559,series_0,612f3f73f0f8086722abf5c5,Mężczyzna,18,2021-09-06_19h00.53.067,rantool2,2021.1.4,Win32,60.13952369,6135e006383e6ea6c3d06a28,6136487ec82b3732f840295e,,,,,,,,
f,1.088,0,56,56,9,1,612f3f73f0f8086722abf5c5,OOROORO,OOROORR,21.07991943,22.2428857,series_1,612f3f73f0f8086722abf5c5,Mężczyzna,18,2021-09-06_19h00.53.067,rantool2,2021.1.4,Win32,60.13952369,6135e006383e6ea6c3d06a28,6136487ec82b3732f840295e,,,,,,,,
j,1.1638,0,57,57,39,1,612f3f73f0f8086722abf5c5,ROORRRO,ROORRRR,21.82425538,21.38562617,series_0,612f3f73f0f8086722abf5c5,Mężczyzna,18,2021-09-06_19h00.53.067,rantool2,2021.1.4,Win32,60.13952369,6135e006383e6ea6c3d06a28,6136487ec82b3732f840295e,,,,,,,,
j,1.7892,0,58,58,43,1,612f3f73f0f8086722abf5c5,RORORRO,RORORRR,20.71309134,21.07490964,series_1,612f3f73f0f8086722abf5c5,Mężczyzna,18,2021-09-06_19h00.53.067,rantool2,2021.1.4,Win32,60.13952369,6135e006383e6ea6c3d06a28,6136487ec82b3732f840295e,,,,,,,,
f,1.6047,0,59,59,61,1,612f3f73f0f8086722abf5c5,RRRRORO,RRRRORR,21.81333602,21.17347734,series_0,612f3f73f0f8086722abf5c5,Mężczyzna,18,2021-09-06_19h00.53.067,rantool2,2021.1.4,Win32,60.13952369,6135e006383e6ea6c3d06a28,6136487ec82b3732f840295e,,,,,,,,
j,1.6283,0,60,60,4,1,612f3f73f0f8086722abf5c5,OOOROOO,OOOROOR,19.91402015,21.21223021,series_1,612f3f73f0f8086722abf5c5,Mężczyzna,18,2021-09-06_19h00.53.067,rantool2,2021.1.4,Win32,60.13952369,6135e006383e6ea6c3d06a28,6136487ec82b3732f840295e,,,,,,,,
f,3.2672,0,61,61,5,1,612f3f73f0f8086722abf5c5,OOORORO,OOORORR,20.87963819,21.9921709,series_1,612f3f73f0f8086722abf5c5,Mężczyzna,18,2021-09-06_19h00.53.067,rantool2,2021.1.4,Win32,60.13952369,6135e006383e6ea6c3d06a28,6136487ec82b3732f840295e,,,,,,,,
j,1.6869,0,62,62,2,1,612f3f73f0f8086722abf5c5,OOOOROO,OOOOROR,20.43051175,21.02936224,series_1,612f3f73f0f8086722abf5c5,Mężczyzna,18,2021-09-06_19h00.53.067,rantool2,2021.1.4,Win32,60.13952369,6135e006383e6ea6c3d06a28,6136487ec82b3732f840295e,,,,,,,,
f,2.2352,0,63,63,59,1,612f3f73f0f8086722abf5c5,RRRORRO,RRRORRR,21.56657303,20.89823192,series_0,612f3f73f0f8086722abf5c5,Mężczyzna,18,2021-09-06_19h00.53.067,rantool2,2021.1.4,Win32,60.13952369,6135e006383e6ea6c3d06a28,6136487ec82b3732f840295e,,,,,,,,
,,,,,,,612f3f73f0f8086722abf5c5,,,,,,612f3f73f0f8086722abf5c5,Mężczyzna,18,2021-09-06_19h00.53.067,rantool2,2021.1.4,Win32,60.13952369,6135e006383e6ea6c3d06a28,6136487ec82b3732f840295e,"[""comma""]",0,[1.0976999999999748],0,0,0,0,1
,,,,,,,612f3f73f0f8086722abf5c5,,,,,,612f3f73f0f8086722abf5c5,Mężczyzna,18,2021-09-06_19h00.53.067,rantool2,2021.1.4,Win32,60.13952369,6135e006383e6ea6c3d06a28,6136487ec82b3732f840295e,"[""period""]",0,[1.3021999999999707],1,0,1,0,1
,,,,,,,612f3f73f0f8086722abf5c5,,,,,,612f3f73f0f8086722abf5c5,Mężczyzna,18,2021-09-06_19h00.53.067,rantool2,2021.1.4,Win32,60.13952369,6135e006383e6ea6c3d06a28,6136487ec82b3732f840295e,"[""comma""]",0,[1.3901999999999362],2,0,2,0,1
,,,,,,,612f3f73f0f8086722abf5c5,,,,,,612f3f73f0f8086722abf5c5,Mężczyzna,18,2021-09-06_19h00.53.067,rantool2,2021.1.4,Win32,60.13952369,6135e006383e6ea6c3d06a28,6136487ec82b3732f840295e,"[""comma""]",0,[1.2058000000000675],3,0,3,0,1
,,,,,,,612f3f73f0f8086722abf5c5,,,,,,612f3f73f0f8086722abf5c5,Mężczyzna,18,2021-09-06_19h00.53.067,rantool2,2021.1.4,Win32,60.13952369,6135e006383e6ea6c3d06a28,6136487ec82b3732f840295e,"[""period""]",0,[1.0620999999999867],4,0,4,0,1
,,,,,,,612f3f73f0f8086722abf5c5,,,,,,612f3f73f0f8086722abf5c5,Mężczyzna,18,2021-09-06_19h00.53.067,rantool2,2021.1.4,Win32,60.13952369,6135e006383e6ea6c3d06a28,6136487ec82b3732f840295e,"[""period""]",0,[1.0340999999999667],5,0,5,0,1
,,,,,,,612f3f73f0f8086722abf5c5,,,,,,612f3f73f0f8086722abf5c5,Mężczyzna,18,2021-09-06_19h00.53.067,rantool2,2021.1.4,Win32,60.13952369,6135e006383e6ea6c3d06a28,6136487ec82b3732f840295e,"[""period""]",0,[1.0777000000001067],6,0,6,0,1
,,,,,,,612f3f73f0f8086722abf5c5,,,,,,612f3f73f0f8086722abf5c5,Mężczyzna,18,2021-09-06_19h00.53.067,rantool2,2021.1.4,Win32,60.13952369,6135e006383e6ea6c3d06a28,6136487ec82b3732f840295e,"[""comma""]",0,[0.9175999999999931],7,0,7,0,1
,,,,,,,612f3f73f0f8086722abf5c5,,,,,,612f3f73f0f8086722abf5c5,Mężczyzna,18,2021-09-06_19h00.53.067,rantool2,2021.1.4,Win32,60.13952369,6135e006383e6ea6c3d06a28,6136487ec82b3732f840295e,"[""comma""]",0,[1.0004000000000133],8,0,8,0,1
,,,,,,,612f3f73f0f8086722abf5c5,,,,,,612f3f73f0f8086722abf5c5,Mężczyzna,18,2021-09-06_19h00.53.067,rantool2,2021.1.4,Win32,60.13952369,6135e006383e6ea6c3d06a28,6136487ec82b3732f840295e,"[""period""]",0,[1.0505999999999744],9,0,9,0,1
,,,,,,,612f3f73f0f8086722abf5c5,,,,,,612f3f73f0f8086722abf5c5,Mężczyzna,18,2021-09-06_19h00.53.067,rantool2,2021.1.4,Win32,60.13952369,6135e006383e6ea6c3d06a28,6136487ec82b3732f840295e,"[""comma""]",0,[0.9414000000000442],10,0,10,0,1
,,,,,,,612f3f73f0f8086722abf5c5,,,,,,612f3f73f0f8086722abf5c5,Mężczyzna,18,2021-09-06_19h00.53.067,rantool2,2021.1.4,Win32,60.13952369,6135e006383e6ea6c3d06a28,6136487ec82b3732f840295e,"[""comma""]",0,[0.8297000000001162],11,0,11,0,1
,,,,,,,612f3f73f0f8086722abf5c5,,,,,,612f3f73f0f8086722abf5c5,Mężczyzna,18,2021-09-06_19h00.53.067,rantool2,2021.1.4,Win32,60.13952369,6135e006383e6ea6c3d06a28,6136487ec82b3732f840295e,"[""period""]",0,[1.045500000000004],12,0,12,0,1
,,,,,,,612f3f73f0f8086722abf5c5,,,,,,612f3f73f0f8086722abf5c5,Mężczyzna,18,2021-09-06_19h00.53.067,rantool2,2021.1.4,Win32,60.13952369,6135e006383e6ea6c3d06a28,6136487ec82b3732f840295e,"[""comma""]",0,[0.8774999999999977],13,0,13,0,1
,,,,,,,612f3f73f0f8086722abf5c5,,,,,,612f3f73f0f8086722abf5c5,Mężczyzna,18,2021-09-06_19h00.53.067,rantool2,2021.1.4,Win32,60.13952369,6135e006383e6ea6c3d06a28,6136487ec82b3732f840295e,"[""period""]",0,[1.0693000000000552],14,0,14,0,1
,,,,,,,612f3f73f0f8086722abf5c5,,,,,,612f3f73f0f8086722abf5c5,Mężczyzna,18,2021-09-06_19h00.53.067,rantool2,2021.1.4,Win32,60.13952369,6135e006383e6ea6c3d06a28,6136487ec82b3732f840295e,"[""period""]",0,[1.0339999999999918],15,0,15,0,1
,,,,,,,612f3f73f0f8086722abf5c5,,,,,,612f3f73f0f8086722abf5c5,Mężczyzna,18,2021-09-06_19h00.53.067,rantool2,2021.1.4,Win32,60.13952369,6135e006383e6ea6c3d06a28,6136487ec82b3732f840295e,"[""comma""]",0,[0.9570999999999685],16,0,16,0,1
,,,,,,,612f3f73f0f8086722abf5c5,,,,,,612f3f73f0f8086722abf5c5,Mężczyzna,18,2021-09-06_19h00.53.067,rantool2,2021.1.4,Win32,60.13952369,6135e006383e6ea6c3d06a28,6136487ec82b3732f840295e,"[""period""]",0,[0.5811999999999102],17,0,17,0,1
,,,,,,,612f3f73f0f8086722abf5c5,,,,,,612f3f73f0f8086722abf5c5,Mężczyzna,18,2021-09-06_19h00.53.067,rantool2,2021.1.4,Win32,60.13952369,6135e006383e6ea6c3d06a28,6136487ec82b3732f840295e,"[""comma""]",0,[0.9807000000000698],18,0,18,0,1
,,,,,,,612f3f73f0f8086722abf5c5,,,,,,612f3f73f0f8086722abf5c5,Mężczyzna,18,2021-09-06_19h00.53.067,rantool2,2021.1.4,Win32,60.13952369,6135e006383e6ea6c3d06a28,6136487ec82b3732f840295e,"[""period""]",0,[0.9505999999999517],19,0,19,0,1
,,,,,,,612f3f73f0f8086722abf5c5,,,,,,612f3f73f0f8086722abf5c5,Mężczyzna,18,2021-09-06_19h00.53.067,rantool2,2021.1.4,Win32,60.13952369,6135e006383e6ea6c3d06a28,6136487ec82b3732f840295e,"[""comma""]",0,[0.9005999999999403],20,0,20,0,1
,,,,,,,612f3f73f0f8086722abf5c5,,,,,,612f3f73f0f8086722abf5c5,Mężczyzna,18,2021-09-06_19h00.53.067,rantool2,2021.1.4,Win32,60.13952369,6135e006383e6ea6c3d06a28,6136487ec82b3732f840295e,"[""comma""]",0,[0.8442000000000576],21,0,21,0,1
,,,,,,,612f3f73f0f8086722abf5c5,,,,,,612f3f73f0f8086722abf5c5,Mężczyzna,18,2021-09-06_19h00.53.067,rantool2,2021.1.4,Win32,60.13952369,6135e006383e6ea6c3d06a28,6136487ec82b3732f840295e,"[""comma""]",0,[0.9339999999999691],22,0,22,0,1
,,,,,,,612f3f73f0f8086722abf5c5,,,,,,612f3f73f0f8086722abf5c5,Mężczyzna,18,2021-09-06_19h00.53.067,rantool2,2021.1.4,Win32,60.13952369,6135e006383e6ea6c3d06a28,6136487ec82b3732f840295e,"[""period""]",0,[0.9342000000000326],23,0,23,0,1
,,,,,,,612f3f73f0f8086722abf5c5,,,,,,612f3f73f0f8086722abf5c5,Mężczyzna,18,2021-09-06_19h00.53.067,rantool2,2021.1.4,Win32,60.13952369,6135e006383e6ea6c3d06a28,6136487ec82b3732f840295e,"[""period""]",0,[0.97199999999998],24,0,24,0,1
,,,,,,,612f3f73f0f8086722abf5c5,,,,,,612f3f73f0f8086722abf5c5,Mężczyzna,18,2021-09-06_19h00.53.067,rantool2,2021.1.4,Win32,60.13952369,6135e006383e6ea6c3d06a28,6136487ec82b3732f840295e,"[""comma""]",0,[0.8600999999999885],25,0,25,0,1
,,,,,,,612f3f73f0f8086722abf5c5,,,,,,612f3f73f0f8086722abf5c5,Mężczyzna,18,2021-09-06_19h00.53.067,rantool2,2021.1.4,Win32,60.13952369,6135e006383e6ea6c3d06a28,6136487ec82b3732f840295e,"[""comma""]",0,[0.7340999999999553],26,0,26,0,1
,,,,,,,612f3f73f0f8086722abf5c5,,,,,,612f3f73f0f8086722abf5c5,Mężczyzna,18,2021-09-06_19h00.53.067,rantool2,2021.1.4,Win32,60.13952369,6135e006383e6ea6c3d06a28,6136487ec82b3732f840295e,"[""period""]",0,[0.7721999999999412],27,0,27,0,1
,,,,,,,612f3f73f0f8086722abf5c5,,,,,,612f3f73f0f8086722abf5c5,Mężczyzna,18,2021-09-06_19h00.53.067,rantool2,2021.1.4,Win32,60.13952369,6135e006383e6ea6c3d06a28,6136487ec82b3732f840295e,"[""period""]",0,[0.6505999999999972],28,0,28,0,1
,,,,,,,612f3f73f0f8086722abf5c5,,,,,,612f3f73f0f8086722abf5c5,Mężczyzna,18,2021-09-06_19h00.53.067,rantool2,2021.1.4,Win32,60.13952369,6135e006383e6ea6c3d06a28,6136487ec82b3732f840295e,"[""comma""]",0,[0.7637000000000853],29,0,29,0,1
,,,,,,,612f3f73f0f8086722abf5c5,,,,,,612f3f73f0f8086722abf5c5,Mężczyzna,18,2021-09-06_19h00.53.067,rantool2,2021.1.4,Win32,60.13952369,6135e006383e6ea6c3d06a28,6136487ec82b3732f840295e,"[""period""]",0,[0.3476999999999748],30,0,30,0,1
,,,,,,,612f3f73f0f8086722abf5c5,,,,,,612f3f73f0f8086722abf5c5,Mężczyzna,18,2021-09-06_19h00.53.067,rantool2,2021.1.4,Win32,60.13952369,6135e006383e6ea6c3d06a28,6136487ec82b3732f840295e,"[""comma""]",0,[0.9716999999999416],31,0,31,0,1
,,,,,,,612f3f73f0f8086722abf5c5,,,,,,612f3f73f0f8086722abf5c5,Mężczyzna,18,2021-09-06_19h00.53.067,rantool2,2021.1.4,Win32,60.13952369,6135e006383e6ea6c3d06a28,6136487ec82b3732f840295e,"[""period""]",0,[0.9320999999999913],32,0,32,0,1
,,,,,,,612f3f73f0f8086722abf5c5,,,,,,612f3f73f0f8086722abf5c5,Mężczyzna,18,2021-09-06_19h00.53.067,rantool2,2021.1.4,Win32,60.13952369,6135e006383e6ea6c3d06a28,6136487ec82b3732f840295e,"[""comma""]",0,[0.8923000000000343],33,0,33,0,1
,,,,,,,612f3f73f0f8086722abf5c5,,,,,,612f3f73f0f8086722abf5c5,Mężczyzna,18,2021-09-06_19h00.53.067,rantool2,2021.1.4,Win32,60.13952369,6135e006383e6ea6c3d06a28,6136487ec82b3732f840295e,"[""comma""]",0,[0.7633000000000152],34,0,34,0,1
,,,,,,,612f3f73f0f8086722abf5c5,,,,,,612f3f73f0f8086722abf5c5,Mężczyzna,18,2021-09-06_19h00.53.067,rantool2,2021.1.4,Win32,60.13952369,6135e006383e6ea6c3d06a28,6136487ec82b3732f840295e,"[""period""]",0,[0.8757000000000517],35,0,35,0,1
,,,,,,,612f3f73f0f8086722abf5c5,,,,,,612f3f73f0f8086722abf5c5,Mężczyzna,18,2021-09-06_19h00.53.067,rantool2,2021.1.4,Win32,60.13952369,6135e006383e6ea6c3d06a28,6136487ec82b3732f840295e,"[""comma""]",0,[0.674799999999891],36,0,36,0,1
,,,,,,,612f3f73f0f8086722abf5c5,,,,,,612f3f73f0f8086722abf5c5,Mężczyzna,18,2021-09-06_19h00.53.067,rantool2,2021.1.4,Win32,60.13952369,6135e006383e6ea6c3d06a28,6136487ec82b3732f840295e,"[""period""]",0,[0.8354999999999677],37,0,37,0,1
,,,,,,,612f3f73f0f8086722abf5c5,,,,,,612f3f73f0f8086722abf5c5,Mężczyzna,18,2021-09-06_19h00.53.067,rantool2,2021.1.4,Win32,60.13952369,6135e006383e6ea6c3d06a28,6136487ec82b3732f840295e,"[""period""]",0,[0.8026999999999589],38,0,38,0,1
,,,,,,,612f3f73f0f8086722abf5c5,,,,,,612f3f73f0f8086722abf5c5,Mężczyzna,18,2021-09-06_19h00.53.067,rantool2,2021.1.4,Win32,60.13952369,6135e006383e6ea6c3d06a28,6136487ec82b3732f840295e,"[""period""]",0,[0.939200000000028],39,0,39,0,1
,,,,,,,612f3f73f0f8086722abf5c5,,,,,,612f3f73f0f8086722abf5c5,Mężczyzna,18,2021-09-06_19h00.53.067,rantool2,2021.1.4,Win32,60.13952369,6135e006383e6ea6c3d06a28,6136487ec82b3732f840295e,"[""comma""]",0,[0.9230000000000018],40,0,40,0,1
,,,,,,,612f3f73f0f8086722abf5c5,,,,,,612f3f73f0f8086722abf5c5,Mężczyzna,18,2021-09-06_19h00.53.067,rantool2,2021.1.4,Win32,60.13952369,6135e006383e6ea6c3d06a28,6136487ec82b3732f840295e,"[""period""]",0,[1.0048000000000457],41,0,41,0,1
,,,,,,,612f3f73f0f8086722abf5c5,,,,,,612f3f73f0f8086722abf5c5,Mężczyzna,18,2021-09-06_19h00.53.067,rantool2,2021.1.4,Win32,60.13952369,6135e006383e6ea6c3d06a28,6136487ec82b3732f840295e,"[""period""]",0,[0.8845999999999776],42,0,42,0,1
,,,,,,,612f3f73f0f8086722abf5c5,,,,,,612f3f73f0f8086722abf5c5,Mężczyzna,18,2021-09-06_19h00.53.067,rantool2,2021.1.4,Win32,60.13952369,6135e006383e6ea6c3d06a28,6136487ec82b3732f840295e,"[""period""]",0,[0.8909000000000447],43,0,43,0,1
,,,,,,,612f3f73f0f8086722abf5c5,,,,,,612f3f73f0f8086722abf5c5,Mężczyzna,18,2021-09-06_19h00.53.067,rantool2,2021.1.4,Win32,60.13952369,6135e006383e6ea6c3d06a28,6136487ec82b3732f840295e,"[""comma""]",0,[0.9015999999999735],44,0,44,0,1
,,,,,,,612f3f73f0f8086722abf5c5,,,,,,612f3f73f0f8086722abf5c5,Mężczyzna,18,2021-09-06_19h00.53.067,rantool2,2021.1.4,Win32,60.13952369,6135e006383e6ea6c3d06a28,6136487ec82b3732f840295e,"[""comma""]",0,[0.8914000000000328],45,0,45,0,1
,,,,,,,612f3f73f0f8086722abf5c5,,,,,,612f3f73f0f8086722abf5c5,Mężczyzna,18,2021-09-06_19h00.53.067,rantool2,2021.1.4,Win32,60.13952369,6135e006383e6ea6c3d06a28,6136487ec82b3732f840295e,"[""comma""]",0,[0.8022000000000844],46,0,46,0,1
,,,,,,,612f3f73f0f8086722abf5c5,,,,,,612f3f73f0f8086722abf5c5,Mężczyzna,18,2021-09-06_19h00.53.067,rantool2,2021.1.4,Win32,60.13952369,6135e006383e6ea6c3d06a28,6136487ec82b3732f840295e,"[""period""]",0,[0.6745000000000232],47,0,47,0,1
,,,,,,,612f3f73f0f8086722abf5c5,,,,,,612f3f73f0f8086722abf5c5,Mężczyzna,18,2021-09-06_19h00.53.067,rantool2,2021.1.4,Win32,60.13952369,6135e006383e6ea6c3d06a28,6136487ec82b3732f840295e,"[""comma""]",0,[0.9512999999999465],48,0,48,0,1
,,,,,,,612f3f73f0f8086722abf5c5,,,,,,612f3f73f0f8086722abf5c5,Mężczyzna,18,2021-09-06_19h00.53.067,rantool2,2021.1.4,Win32,60.13952369,6135e006383e6ea6c3d06a28,6136487ec82b3732f840295e,"[""period""]",0,[0.9621999999999389],49,0,49,0,1
,,,,,,,612f3f73f0f8086722abf5c5,,,,,,612f3f73f0f8086722abf5c5,Mężczyzna,18,2021-09-06_19h00.53.067,rantool2,2021.1.4,Win32,60.13952369,6135e006383e6ea6c3d06a28,6136487ec82b3732f840295e,"[""period""]",0,[0.9213999999998919],50,0,50,0,1
,,,,,,,612f3f73f0f8086722abf5c5,,,,,,612f3f73f0f8086722abf5c5,Mężczyzna,18,2021-09-06_19h00.53.067,rantool2,2021.1.4,Win32,60.13952369,6135e006383e6ea6c3d06a28,6136487ec82b3732f840295e,"[""comma""]",0,[0.6695000000000277],51,0,51,0,1
,,,,,,,612f3f73f0f8086722abf5c5,,,,,,612f3f73f0f8086722abf5c5,Mężczyzna,18,2021-09-06_19h00.53.067,rantool2,2021.1.4,Win32,60.13952369,6135e006383e6ea6c3d06a28,6136487ec82b3732f840295e,"[""period""]",0,[0.985300000000052],52,0,52,0,1
,,,,,,,612f3f73f0f8086722abf5c5,,,,,,612f3f73f0f8086722abf5c5,Mężczyzna,18,2021-09-06_19h00.53.067,rantool2,2021.1.4,Win32,60.13952369,6135e006383e6ea6c3d06a28,6136487ec82b3732f840295e,"[""comma""]",0,[1.001100000000008],53,0,53,0,1
,,,,,,,612f3f73f0f8086722abf5c5,,,,,,612f3f73f0f8086722abf5c5,Mężczyzna,18,2021-09-06_19h00.53.067,rantool2,2021.1.4,Win32,60.13952369,6135e006383e6ea6c3d06a28,6136487ec82b3732f840295e,"[""period""]",0,[0.9220000000000255],54,0,54,0,1
,,,,,,,612f3f73f0f8086722abf5c5,,,,,,612f3f73f0f8086722abf5c5,Mężczyzna,18,2021-09-06_19h00.53.067,rantool2,2021.1.4,Win32,60.13952369,6135e006383e6ea6c3d06a28,6136487ec82b3732f840295e,"[""comma""]",0,[1.5302999999999543],55,0,55,0,1
,,,,,,,612f3f73f0f8086722abf5c5,,,,,,612f3f73f0f8086722abf5c5,Mężczyzna,18,2021-09-06_19h00.53.067,rantool2,2021.1.4,Win32,60.13952369,6135e006383e6ea6c3d06a28,6136487ec82b3732f840295e,0,0,,56,0,56,0,1
,,,,,,,612f3f73f0f8086722abf5c5,,,,,,612f3f73f0f8086722abf5c5,Mężczyzna,18,2021-09-06_19h00.53.067,rantool2,2021.1.4,Win32,60.13952369,6135e006383e6ea6c3d06a28,6136487ec82b3732f840295e,"[""period""]",0,[0.18480000000005248],57,0,57,0,1
,,,,,,,612f3f73f0f8086722abf5c5,,,,,,612f3f73f0f8086722abf5c5,Mężczyzna,18,2021-09-06_19h00.53.067,rantool2,2021.1.4,Win32,60.13952369,6135e006383e6ea6c3d06a28,6136487ec82b3732f840295e,"[""comma""]",0,[0.968400000000031],58,0,58,0,1
,,,,,,,612f3f73f0f8086722abf5c5,,,,,,612f3f73f0f8086722abf5c5,Mężczyzna,18,2021-09-06_19h00.53.067,rantool2,2021.1.4,Win32,60.13952369,6135e006383e6ea6c3d06a28,6136487ec82b3732f840295e,"[""period""]",0,[1.0732000000000426],59,0,59,0,1
,,,,,,,612f3f73f0f8086722abf5c5,,,,,,612f3f73f0f8086722abf5c5,Mężczyzna,18,2021-09-06_19h00.53.067,rantool2,2021.1.4,Win32,60.13952369,6135e006383e6ea6c3d06a28,6136487ec82b3732f840295e,"[""period""]",0,[1.689299999999946],60,0,60,0,1
,,,,,,,612f3f73f0f8086722abf5c5,,,,,,612f3f73f0f8086722abf5c5,Mężczyzna,18,2021-09-06_19h00.53.067,rantool2,2021.1.4,Win32,60.13952369,6135e006383e6ea6c3d06a28,6136487ec82b3732f840295e,"[""comma""]",0,[1.251199999999983],61,0,61,0,1
,,,,,,,612f3f73f0f8086722abf5c5,,,,,,612f3f73f0f8086722abf5c5,Mężczyzna,18,2021-09-06_19h00.53.067,rantool2,2021.1.4,Win32,60.13952369,6135e006383e6ea6c3d06a28,6136487ec82b3732f840295e,"[""period""]",0,[0.9930999999999699],62,0,62,0,1
,,,,,,,612f3f73f0f8086722abf5c5,,,,,,612f3f73f0f8086722abf5c5,Mężczyzna,18,2021-09-06_19h00.53.067,rantool2,2021.1.4,Win32,60.13952369,6135e006383e6ea6c3d06a28,6136487ec82b3732f840295e,"[""comma""]",0,[0.8885999999999399],63,0,63,0,1
,,,,,,,612f3f73f0f8086722abf5c5,,,,,,612f3f73f0f8086722abf5c5,Mężczyzna,18,2021-09-06_19h00.53.067,rantool2,2021.1.4,Win32,60.13952369,6135e006383e6ea6c3d06a28,6136487ec82b3732f840295e,"[""period""]",0,[0.9933999999998946],64,0,64,0,1
,,,,,,,612f3f73f0f8086722abf5c5,,,,,,612f3f73f0f8086722abf5c5,Mężczyzna,18,2021-09-06_19h00.53.067,rantool2,2021.1.4,Win32,60.13952369,6135e006383e6ea6c3d06a28,6136487ec82b3732f840295e,"[""period""]",0,[1.0347000000001003],65,0,65,0,1
,,,,,,,612f3f73f0f8086722abf5c5,,,,,,612f3f73f0f8086722abf5c5,Mężczyzna,18,2021-09-06_19h00.53.067,rantool2,2021.1.4,Win32,60.13952369,6135e006383e6ea6c3d06a28,6136487ec82b3732f840295e,"[""comma""]",0,[0.8691000000000599],66,0,66,0,1
,,,,,,,612f3f73f0f8086722abf5c5,,,,,,612f3f73f0f8086722abf5c5,Mężczyzna,18,2021-09-06_19h00.53.067,rantool2,2021.1.4,Win32,60.13952369,6135e006383e6ea6c3d06a28,6136487ec82b3732f840295e,"[""comma""]",0,[0.9124999999999659],67,0,67,0,1
,,,,,,,612f3f73f0f8086722abf5c5,,,,,,612f3f73f0f8086722abf5c5,Mężczyzna,18,2021-09-06_19h00.53.067,rantool2,2021.1.4,Win32,60.13952369,6135e006383e6ea6c3d06a28,6136487ec82b3732f840295e,"[""period""]",0,[0.8720000000000141],68,0,68,0,1
,,,,,,,612f3f73f0f8086722abf5c5,,,,,,612f3f73f0f8086722abf5c5,Mężczyzna,18,2021-09-06_19h00.53.067,rantool2,2021.1.4,Win32,60.13952369,6135e006383e6ea6c3d06a28,6136487ec82b3732f840295e,"[""period""]",0,[0.9518000000000484],69,0,69,0,1
,,,,,,,612f3f73f0f8086722abf5c5,,,,,,612f3f73f0f8086722abf5c5,Mężczyzna,18,2021-09-06_19h00.53.067,rantool2,2021.1.4,Win32,60.13952369,6135e006383e6ea6c3d06a28,6136487ec82b3732f840295e,"[""comma""]",0,[0.7348000000000638],70,0,70,0,1
,,,,,,,612f3f73f0f8086722abf5c5,,,,,,612f3f73f0f8086722abf5c5,Mężczyzna,18,2021-09-06_19h00.53.067,rantool2,2021.1.4,Win32,60.13952369,6135e006383e6ea6c3d06a28,6136487ec82b3732f840295e,"[""period""]",0,[0.9519000000000233],71,0,71,0,1
,,,,,,,612f3f73f0f8086722abf5c5,,,,,,612f3f73f0f8086722abf5c5,Mężczyzna,18,2021-09-06_19h00.53.067,rantool2,2021.1.4,Win32,60.13952369,6135e006383e6ea6c3d06a28,6136487ec82b3732f840295e,"[""comma""]",0,[0.9044000000000096],72,0,72,0,1
,,,,,,,612f3f73f0f8086722abf5c5,,,,,,612f3f73f0f8086722abf5c5,Mężczyzna,18,2021-09-06_19h00.53.067,rantool2,2021.1.4,Win32,60.13952369,6135e006383e6ea6c3d06a28,6136487ec82b3732f840295e,"[""period""]",0,[0.853999999999985],73,0,73,0,1
,,,,,,,612f3f73f0f8086722abf5c5,,,,,,612f3f73f0f8086722abf5c5,Mężczyzna,18,2021-09-06_19h00.53.067,rantool2,2021.1.4,Win32,60.13952369,6135e006383e6ea6c3d06a28,6136487ec82b3732f840295e,"[""comma""]",0,[0.8546000000000049],74,0,74,0,1
,,,,,,,612f3f73f0f8086722abf5c5,,,,,,612f3f73f0f8086722abf5c5,Mężczyzna,18,2021-09-06_19h00.53.067,rantool2,2021.1.4,Win32,60.13952369,6135e006383e6ea6c3d06a28,6136487ec82b3732f840295e,"[""comma""]",0,[0.8864000000000374],75,0,75,0,1
,,,,,,,612f3f73f0f8086722abf5c5,,,,,,612f3f73f0f8086722abf5c5,Mężczyzna,18,2021-09-06_19h00.53.067,rantool2,2021.1.4,Win32,60.13952369,6135e006383e6ea6c3d06a28,6136487ec82b3732f840295e,"[""period""]",0,[0.9664999999999964],76,0,76,0,1
,,,,,,,612f3f73f0f8086722abf5c5,,,,,,612f3f73f0f8086722abf5c5,Mężczyzna,18,2021-09-06_19h00.53.067,rantool2,2021.1.4,Win32,60.13952369,6135e006383e6ea6c3d06a28,6136487ec82b3732f840295e,"[""period""]",0,[0.8870000000000005],77,0,77,0,1
,,,,,,,612f3f73f0f8086722abf5c5,,,,,,612f3f73f0f8086722abf5c5,Mężczyzna,18,2021-09-06_19h00.53.067,rantool2,2021.1.4,Win32,60.13952369,6135e006383e6ea6c3d06a28,6136487ec82b3732f840295e,"[""comma""]",0,[0.8625000000000114],78,0,78,0,1
,,,,,,,612f3f73f0f8086722abf5c5,,,,,,612f3f73f0f8086722abf5c5,Mężczyzna,18,2021-09-06_19h00.53.067,rantool2,2021.1.4,Win32,60.13952369,6135e006383e6ea6c3d06a28,6136487ec82b3732f840295e,"[""period""]",0,[0.8782999999999674],79,0,79,0,1
,,,,,,,612f3f73f0f8086722abf5c5,,,,,,612f3f73f0f8086722abf5c5,Mężczyzna,18,2021-09-06_19h00.53.067,rantool2,2021.1.4,Win32,60.13952369,6135e006383e6ea6c3d06a28,6136487ec82b3732f840295e,"[""period""]",0,[0.7379999999999995],80,0,80,0,1
,,,,,,,612f3f73f0f8086722abf5c5,,,,,,612f3f73f0f8086722abf5c5,Mężczyzna,18,2021-09-06_19h00.53.067,rantool2,2021.1.4,Win32,60.13952369,6135e006383e6ea6c3d06a28,6136487ec82b3732f840295e,"[""comma""]",0,[0.966700000000003],81,0,81,0,1
,,,,,,,612f3f73f0f8086722abf5c5,,,,,,612f3f73f0f8086722abf5c5,Mężczyzna,18,2021-09-06_19h00.53.067,rantool2,2021.1.4,Win32,60.13952369,6135e006383e6ea6c3d06a28,6136487ec82b3732f840295e,"[""comma""]",0,[0.8161999999999807],82,0,82,0,1
,,,,,,,612f3f73f0f8086722abf5c5,,,,,,612f3f73f0f8086722abf5c5,Mężczyzna,18,2021-09-06_19h00.53.067,rantool2,2021.1.4,Win32,60.13952369,6135e006383e6ea6c3d06a28,6136487ec82b3732f840295e,"[""period""]",0,[1.0540000000000305],83,0,83,0,1
,,,,,,,612f3f73f0f8086722abf5c5,,,,,,612f3f73f0f8086722abf5c5,Mężczyzna,18,2021-09-06_19h00.53.067,rantool2,2021.1.4,Win32,60.13952369,6135e006383e6ea6c3d06a28,6136487ec82b3732f840295e,"[""period""]",0,[0.8012999999999693],84,0,84,0,1
,,,,,,,612f3f73f0f8086722abf5c5,,,,,,612f3f73f0f8086722abf5c5,Mężczyzna,18,2021-09-06_19h00.53.067,rantool2,2021.1.4,Win32,60.13952369,6135e006383e6ea6c3d06a28,6136487ec82b3732f840295e,"[""comma""]",0,[0.8057000000000016],85,0,85,0,1
,,,,,,,612f3f73f0f8086722abf5c5,,,,,,612f3f73f0f8086722abf5c5,Mężczyzna,18,2021-09-06_19h00.53.067,rantool2,2021.1.4,Win32,60.13952369,6135e006383e6ea6c3d06a28,6136487ec82b3732f840295e,"[""comma""]",0,[0.8537999999999784],86,0,86,0,1
,,,,,,,612f3f73f0f8086722abf5c5,,,,,,612f3f73f0f8086722abf5c5,Mężczyzna,18,2021-09-06_19h00.53.067,rantool2,2021.1.4,Win32,60.13952369,6135e006383e6ea6c3d06a28,6136487ec82b3732f840295e,"[""period""]",0,[0.9016000000000304],87,0,87,0,1
,,,,,,,612f3f73f0f8086722abf5c5,,,,,,612f3f73f0f8086722abf5c5,Mężczyzna,18,2021-09-06_19h00.53.067,rantool2,2021.1.4,Win32,60.13952369,6135e006383e6ea6c3d06a28,6136487ec82b3732f840295e,"[""comma""]",0,[0.9239000000000033],88,0,88,0,1
,,,,,,,612f3f73f0f8086722abf5c5,,,,,,612f3f73f0f8086722abf5c5,Mężczyzna,18,2021-09-06_19h00.53.067,rantool2,2021.1.4,Win32,60.13952369,6135e006383e6ea6c3d06a28,6136487ec82b3732f840295e,"[""period""]",0,[0.9154000000000337],89,0,89,0,1
,,,,,,,612f3f73f0f8086722abf5c5,,,,,,612f3f73f0f8086722abf5c5,Mężczyzna,18,2021-09-06_19h00.53.067,rantool2,2021.1.4,Win32,60.13952369,6135e006383e6ea6c3d06a28,6136487ec82b3732f840295e,"[""comma""]",0,[0.9014000000000237],90,0,90,0,1
,,,,,,,612f3f73f0f8086722abf5c5,,,,,,612f3f73f0f8086722abf5c5,Mężczyzna,18,2021-09-06_19h00.53.067,rantool2,2021.1.4,Win32,60.13952369,6135e006383e6ea6c3d06a28,6136487ec82b3732f840295e,"[""period""]",0,[1.022800000000018],91,0,91,0,1
,,,,,,,612f3f73f0f8086722abf5c5,,,,,,612f3f73f0f8086722abf5c5,Mężczyzna,18,2021-09-06_19h00.53.067,rantool2,2021.1.4,Win32,60.13952369,6135e006383e6ea6c3d06a28,6136487ec82b3732f840295e,"[""period""]",0,[0.9886999999999944],92,0,92,0,1
,,,,,,,612f3f73f0f8086722abf5c5,,,,,,612f3f73f0f8086722abf5c5,Mężczyzna,18,2021-09-06_19h00.53.067,rantool2,2021.1.4,Win32,60.13952369,6135e006383e6ea6c3d06a28,6136487ec82b3732f840295e,"[""period""]",0,[0.925700000000063],93,0,93,0,1
,,,,,,,612f3f73f0f8086722abf5c5,,,,,,612f3f73f0f8086722abf5c5,Mężczyzna,18,2021-09-06_19h00.53.067,rantool2,2021.1.4,Win32,60.13952369,6135e006383e6ea6c3d06a28,6136487ec82b3732f840295e,"[""comma""]",0,[0.8695999999999913],94,0,94,0,1
,,,,,,,612f3f73f0f8086722abf5c5,,,,,,612f3f73f0f8086722abf5c5,Mężczyzna,18,2021-09-06_19h00.53.067,rantool2,2021.1.4,Win32,60.13952369,6135e006383e6ea6c3d06a28,6136487ec82b3732f840295e,"[""period""]",0,[0.9009999999999536],95,0,95,0,1
,,,,,,,612f3f73f0f8086722abf5c5,,,,,,612f3f73f0f8086722abf5c5,Mężczyzna,18,2021-09-06_19h00.53.067,rantool2,2021.1.4,Win32,60.13952369,6135e006383e6ea6c3d06a28,6136487ec82b3732f840295e,"[""comma""]",0,[1.0380999999999858],96,0,96,0,1
,,,,,,,612f3f73f0f8086722abf5c5,,,,,,612f3f73f0f8086722abf5c5,Mężczyzna,18,2021-09-06_19h00.53.067,rantool2,2021.1.4,Win32,60.13952369,6135e006383e6ea6c3d06a28,6136487ec82b3732f840295e,"[""period""]",0,[1.1411999999999125],97,0,97,0,1
,,,,,,,612f3f73f0f8086722abf5c5,,,,,,612f3f73f0f8086722abf5c5,Mężczyzna,18,2021-09-06_19h00.53.067,rantool2,2021.1.4,Win32,60.13952369,6135e006383e6ea6c3d06a28,6136487ec82b3732f840295e,"[""comma""]",0,[0.9511000000001104],98,0,98,0,1
,,,,,,,612f3f73f0f8086722abf5c5,,,,,,612f3f73f0f8086722abf5c5,Mężczyzna,18,2021-09-06_19h00.53.067,rantool2,2021.1.4,Win32,60.13952369,6135e006383e6ea6c3d06a28,6136487ec82b3732f840295e,"[""period""]",0,[0.9674999999999727],99,0,99,0,1
,,,,,,,612f3f73f0f8086722abf5c5,,,,,,612f3f73f0f8086722abf5c5,Mężczyzna,18,2021-09-06_19h00.53.067,rantool2,2021.1.4,Win32,60.13952369,6135e006383e6ea6c3d06a28,6136487ec82b3732f840295e,"[""comma""]",0,[0.9097000000000435],100,0,100,0,1
,,,,,,,612f3f73f0f8086722abf5c5,,,,,,612f3f73f0f8086722abf5c5,Mężczyzna,18,2021-09-06_19h00.53.067,rantool2,2021.1.4,Win32,60.13952369,6135e006383e6ea6c3d06a28,6136487ec82b3732f840295e,"[""period""]",0,[0.892400000000066],101,0,101,0,1
,,,,,,,612f3f73f0f8086722abf5c5,,,,,,612f3f73f0f8086722abf5c5,Mężczyzna,18,2021-09-06_19h00.53.067,rantool2,2021.1.4,Win32,60.13952369,6135e006383e6ea6c3d06a28,6136487ec82b3732f840295e,"[""period""]",0,[0.7979000000000269],102,0,102,0,1
,,,,,,,612f3f73f0f8086722abf5c5,,,,,,612f3f73f0f8086722abf5c5,Mężczyzna,18,2021-09-06_19h00.53.067,rantool2,2021.1.4,Win32,60.13952369,6135e006383e6ea6c3d06a28,6136487ec82b3732f840295e,"[""period""]",0,[0.8140000000000782],103,0,103,0,1
,,,,,,,612f3f73f0f8086722abf5c5,,,,,,612f3f73f0f8086722abf5c5,Mężczyzna,18,2021-09-06_19h00.53.067,rantool2,2021.1.4,Win32,60.13952369,6135e006383e6ea6c3d06a28,6136487ec82b3732f840295e,"[""period""]",0,[0.6120999999999412],104,0,104,0,1
,,,,,,,612f3f73f0f8086722abf5c5,,,,,,612f3f73f0f8086722abf5c5,Mężczyzna,18,2021-09-06_19h00.53.067,rantool2,2021.1.4,Win32,60.13952369,6135e006383e6ea6c3d06a28,6136487ec82b3732f840295e,"[""comma""]",0,[0.8526000000000522],105,0,105,0,1
,,,,,,,612f3f73f0f8086722abf5c5,,,,,,612f3f73f0f8086722abf5c5,Mężczyzna,18,2021-09-06_19h00.53.067,rantool2,2021.1.4,Win32,60.13952369,6135e006383e6ea6c3d06a28,6136487ec82b3732f840295e,"[""period""]",0,[0.8117000000000871],106,0,106,0,1
,,,,,,,612f3f73f0f8086722abf5c5,,,,,,612f3f73f0f8086722abf5c5,Mężczyzna,18,2021-09-06_19h00.53.067,rantool2,2021.1.4,Win32,60.13952369,6135e006383e6ea6c3d06a28,6136487ec82b3732f840295e,"[""comma""]",0,[0.8763000000000147],107,0,107,0,1
,,,,,,,612f3f73f0f8086722abf5c5,,,,,,612f3f73f0f8086722abf5c5,Mężczyzna,18,2021-09-06_19h00.53.067,rantool2,2021.1.4,Win32,60.13952369,6135e006383e6ea6c3d06a28,6136487ec82b3732f840295e,"[""comma""]",0,[0.7715999999999212],108,0,108,0,1
,,,,,,,612f3f73f0f8086722abf5c5,,,,,,612f3f73f0f8086722abf5c5,Mężczyzna,18,2021-09-06_19h00.53.067,rantool2,2021.1.4,Win32,60.13952369,6135e006383e6ea6c3d06a28,6136487ec82b3732f840295e,"[""comma""]",0,[0.9723999999999933],109,0,109,0,1
,,,,,,,612f3f73f0f8086722abf5c5,,,,,,612f3f73f0f8086722abf5c5,Mężczyzna,18,2021-09-06_19h00.53.067,rantool2,2021.1.4,Win32,60.13952369,6135e006383e6ea6c3d06a28,6136487ec82b3732f840295e,"[""period""]",0,[0.9395999999999276],110,0,110,0,1
,,,,,,,612f3f73f0f8086722abf5c5,,,,,,612f3f73f0f8086722abf5c5,Mężczyzna,18,2021-09-06_19h00.53.067,rantool2,2021.1.4,Win32,60.13952369,6135e006383e6ea6c3d06a28,6136487ec82b3732f840295e,"[""comma""]",0,[0.8687999999999647],111,0,111,0,1
,,,,,,,612f3f73f0f8086722abf5c5,,,,,,612f3f73f0f8086722abf5c5,Mężczyzna,18,2021-09-06_19h00.53.067,rantool2,2021.1.4,Win32,60.13952369,6135e006383e6ea6c3d06a28,6136487ec82b3732f840295e,"[""comma""]",0,[0.9817999999999074],112,0,112,0,1
,,,,,,,612f3f73f0f8086722abf5c5,,,,,,612f3f73f0f8086722abf5c5,Mężczyzna,18,2021-09-06_19h00.53.067,rantool2,2021.1.4,Win32,60.13952369,6135e006383e6ea6c3d06a28,6136487ec82b3732f840295e,"[""period""]",0,[1.0044000000000324],113,0,113,0,1
,,,,,,,612f3f73f0f8086722abf5c5,,,,,,612f3f73f0f8086722abf5c5,Mężczyzna,18,2021-09-06_19h00.53.067,rantool2,2021.1.4,Win32,60.13952369,6135e006383e6ea6c3d06a28,6136487ec82b3732f840295e,"[""comma""]",0,[0.96449999999993],114,0,114,0,1
,,,,,,,612f3f73f0f8086722abf5c5,,,,,,612f3f73f0f8086722abf5c5,Mężczyzna,18,2021-09-06_19h00.53.067,rantool2,2021.1.4,Win32,60.13952369,6135e006383e6ea6c3d06a28,6136487ec82b3732f840295e,"[""period""]",0,[0.9809000000000196],115,0,115,0,1
,,,,,,,612f3f73f0f8086722abf5c5,,,,,,612f3f73f0f8086722abf5c5,Mężczyzna,18,2021-09-06_19h00.53.067,rantool2,2021.1.4,Win32,60.13952369,6135e006383e6ea6c3d06a28,6136487ec82b3732f840295e,"[""comma""]",0,[0.7716999999998961],116,0,116,0,1
,,,,,,,612f3f73f0f8086722abf5c5,,,,,,612f3f73f0f8086722abf5c5,Mężczyzna,18,2021-09-06_19h00.53.067,rantool2,2021.1.4,Win32,60.13952369,6135e006383e6ea6c3d06a28,6136487ec82b3732f840295e,"[""comma""]",0,[0.9343999999999824],117,0,117,0,1
,,,,,,,612f3f73f0f8086722abf5c5,,,,,,612f3f73f0f8086722abf5c5,Mężczyzna,18,2021-09-06_19h00.53.067,rantool2,2021.1.4,Win32,60.13952369,6135e006383e6ea6c3d06a28,6136487ec82b3732f840295e,"[""comma""]",0,[0.6278999999998405],118,0,118,0,1
,,,,,,,612f3f73f0f8086722abf5c5,,,,,,612f3f73f0f8086722abf5c5,Mężczyzna,18,2021-09-06_19h00.53.067,rantool2,2021.1.4,Win32,60.13952369,6135e006383e6ea6c3d06a28,6136487ec82b3732f840295e,"[""period""]",0,[0.8680000000000518],119,0,119,0,1
