key_resp_7.keys,key_resp_7.rt,trials_2.thisRepN,trials_2.thisTrialN,trials_2.thisN,trials_2.thisIndex,trials_2.ran,id,series_0,series_1,acss_0,acss_1,comparison,id*,Płeć*,Wiek*,date,expName,psychopyVersion,OS,frameRate,STUDY_ID,SESSION_ID,key_resp_5.keys,key_resp_5.corr,key_resp_5.rt,trials.thisRepN,trials.thisTrialN,trials.thisN,trials.thisIndex,trials.ran
f,1.6517,0,0,0,63,1,6128f7c06a0eba3378ffb1c3,RRRRRRO,RRRRRRR,21.35278725,19.62521613,series_0,6128f7c06a0eba3378ffb1c3,Kobieta,30,2021-09-06_19h02.32.122,rantool2,2021.1.4,Win32,59.89099838,6135e006383e6ea6c3d06a28,61364964df4faf6efb97ad6f,,,,,,,,
j,1.4068,0,1,1,36,1,6128f7c06a0eba3378ffb1c3,ROOROOO,ROOROOR,21.07991943,20.9984461,series_0,6128f7c06a0eba3378ffb1c3,Kobieta,30,2021-09-06_19h02.32.122,rantool2,2021.1.4,Win32,59.89099838,6135e006383e6ea6c3d06a28,61364964df4faf6efb97ad6f,,,,,,,,
j,1.6204,0,2,2,56,1,6128f7c06a0eba3378ffb1c3,RRROOOO,RRROOOR,21.6194508,22.31681875,series_1,6128f7c06a0eba3378ffb1c3,Kobieta,30,2021-09-06_19h02.32.122,rantool2,2021.1.4,Win32,59.89099838,6135e006383e6ea6c3d06a28,61364964df4faf6efb97ad6f,,,,,,,,
f,1.1526,0,3,3,8,1,6128f7c06a0eba3378ffb1c3,OOROOOO,OOROOOR,19.91402015,20.89823192,series_1,6128f7c06a0eba3378ffb1c3,Kobieta,30,2021-09-06_19h02.32.122,rantool2,2021.1.4,Win32,59.89099838,6135e006383e6ea6c3d06a28,61364964df4faf6efb97ad6f,,,,,,,,
j,1.3187,0,4,4,35,1,6128f7c06a0eba3378ffb1c3,ROOORRO,ROOORRR,21.76276513,22.16977179,series_1,6128f7c06a0eba3378ffb1c3,Kobieta,30,2021-09-06_19h02.32.122,rantool2,2021.1.4,Win32,59.89099838,6135e006383e6ea6c3d06a28,61364964df4faf6efb97ad6f,,,,,,,,
j,1.2792,0,5,5,32,1,6128f7c06a0eba3378ffb1c3,ROOOOOO,ROOOOOR,19.92253567,21.27974287,series_1,6128f7c06a0eba3378ffb1c3,Kobieta,30,2021-09-06_19h02.32.122,rantool2,2021.1.4,Win32,59.89099838,6135e006383e6ea6c3d06a28,61364964df4faf6efb97ad6f,,,,,,,,
f,1.1772,0,6,6,17,1,6128f7c06a0eba3378ffb1c3,OROOORO,OROOORR,21.03750787,22.12173012,series_1,6128f7c06a0eba3378ffb1c3,Kobieta,30,2021-09-06_19h02.32.122,rantool2,2021.1.4,Win32,59.89099838,6135e006383e6ea6c3d06a28,61364964df4faf6efb97ad6f,,,,,,,,
j,1.0194,0,7,7,43,1,6128f7c06a0eba3378ffb1c3,RORORRO,RORORRR,20.71309134,21.07490964,series_1,6128f7c06a0eba3378ffb1c3,Kobieta,30,2021-09-06_19h02.32.122,rantool2,2021.1.4,Win32,59.89099838,6135e006383e6ea6c3d06a28,61364964df4faf6efb97ad6f,,,,,,,,
f,1.1012,0,8,8,60,1,6128f7c06a0eba3378ffb1c3,RRRROOO,RRRROOR,22.10108823,22.15934078,series_1,6128f7c06a0eba3378ffb1c3,Kobieta,30,2021-09-06_19h02.32.122,rantool2,2021.1.4,Win32,59.89099838,6135e006383e6ea6c3d06a28,61364964df4faf6efb97ad6f,,,,,,,,
j,1.6993,0,9,9,0,1,6128f7c06a0eba3378ffb1c3,OOOOOOO,OOOOOOR,18.52739004,19.62521613,series_1,6128f7c06a0eba3378ffb1c3,Kobieta,30,2021-09-06_19h02.32.122,rantool2,2021.1.4,Win32,59.89099838,6135e006383e6ea6c3d06a28,61364964df4faf6efb97ad6f,,,,,,,,
f,1.4053,0,10,10,12,1,6128f7c06a0eba3378ffb1c3,OORROOO,OORROOR,21.30250474,22.02786418,series_1,6128f7c06a0eba3378ffb1c3,Kobieta,30,2021-09-06_19h02.32.122,rantool2,2021.1.4,Win32,59.89099838,6135e006383e6ea6c3d06a28,61364964df4faf6efb97ad6f,,,,,,,,
j,1.9298,0,11,11,37,1,6128f7c06a0eba3378ffb1c3,ROORORO,ROORORR,20.42602454,21.57657071,series_1,6128f7c06a0eba3378ffb1c3,Kobieta,30,2021-09-06_19h02.32.122,rantool2,2021.1.4,Win32,59.89099838,6135e006383e6ea6c3d06a28,61364964df4faf6efb97ad6f,,,,,,,,
f,1.1928,0,12,12,34,1,6128f7c06a0eba3378ffb1c3,ROOOROO,ROOOROR,21.03750787,21.24781509,series_1,6128f7c06a0eba3378ffb1c3,Kobieta,30,2021-09-06_19h02.32.122,rantool2,2021.1.4,Win32,59.89099838,6135e006383e6ea6c3d06a28,61364964df4faf6efb97ad6f,,,,,,,,
j,1.1265,0,13,13,59,1,6128f7c06a0eba3378ffb1c3,RRRORRO,RRRORRR,21.56657303,20.89823192,series_0,6128f7c06a0eba3378ffb1c3,Kobieta,30,2021-09-06_19h02.32.122,rantool2,2021.1.4,Win32,59.89099838,6135e006383e6ea6c3d06a28,61364964df4faf6efb97ad6f,,,,,,,,
f,1.6871,0,14,14,53,1,6128f7c06a0eba3378ffb1c3,RRORORO,RRORORR,20.71309134,21.90565814,series_1,6128f7c06a0eba3378ffb1c3,Kobieta,30,2021-09-06_19h02.32.122,rantool2,2021.1.4,Win32,59.89099838,6135e006383e6ea6c3d06a28,61364964df4faf6efb97ad6f,,,,,,,,
j,1.0554,0,15,15,22,1,6128f7c06a0eba3378ffb1c3,ORORROO,ORORROR,22.02732763,21.57657071,series_0,6128f7c06a0eba3378ffb1c3,Kobieta,30,2021-09-06_19h02.32.122,rantool2,2021.1.4,Win32,59.89099838,6135e006383e6ea6c3d06a28,61364964df4faf6efb97ad6f,,,,,,,,
j,2.0267,0,16,16,16,1,6128f7c06a0eba3378ffb1c3,OROOOOO,OROOOOR,20.43051175,21.17347734,series_1,6128f7c06a0eba3378ffb1c3,Kobieta,30,2021-09-06_19h02.32.122,rantool2,2021.1.4,Win32,59.89099838,6135e006383e6ea6c3d06a28,61364964df4faf6efb97ad6f,,,,,,,,
f,1.1575,0,17,17,26,1,6128f7c06a0eba3378ffb1c3,ORROROO,ORROROR,22.02732763,21.71443381,series_0,6128f7c06a0eba3378ffb1c3,Kobieta,30,2021-09-06_19h02.32.122,rantool2,2021.1.4,Win32,59.89099838,6135e006383e6ea6c3d06a28,61364964df4faf6efb97ad6f,,,,,,,,
j,1.1646,0,18,18,6,1,6128f7c06a0eba3378ffb1c3,OOORROO,OOORROR,21.12383932,21.38562617,series_1,6128f7c06a0eba3378ffb1c3,Kobieta,30,2021-09-06_19h02.32.122,rantool2,2021.1.4,Win32,59.89099838,6135e006383e6ea6c3d06a28,61364964df4faf6efb97ad6f,,,,,,,,
j,1.5795,0,19,19,10,1,6128f7c06a0eba3378ffb1c3,OOROROO,OOROROR,21.31236711,21.07490964,series_0,6128f7c06a0eba3378ffb1c3,Kobieta,30,2021-09-06_19h02.32.122,rantool2,2021.1.4,Win32,59.89099838,6135e006383e6ea6c3d06a28,61364964df4faf6efb97ad6f,,,,,,,,
f,1.297,0,20,20,1,1,6128f7c06a0eba3378ffb1c3,OOOOORO,OOOOORR,19.92253567,20.74050628,series_1,6128f7c06a0eba3378ffb1c3,Kobieta,30,2021-09-06_19h02.32.122,rantool2,2021.1.4,Win32,59.89099838,6135e006383e6ea6c3d06a28,61364964df4faf6efb97ad6f,,,,,,,,
j,1.6745,0,21,21,13,1,6128f7c06a0eba3378ffb1c3,OORRORO,OORRORR,21.66733484,22.11181017,series_1,6128f7c06a0eba3378ffb1c3,Kobieta,30,2021-09-06_19h02.32.122,rantool2,2021.1.4,Win32,59.89099838,6135e006383e6ea6c3d06a28,61364964df4faf6efb97ad6f,,,,,,,,
f,1.0601,0,22,22,7,1,6128f7c06a0eba3378ffb1c3,OOORRRO,OOORRRR,21.6194508,21.899017,series_1,6128f7c06a0eba3378ffb1c3,Kobieta,30,2021-09-06_19h02.32.122,rantool2,2021.1.4,Win32,59.89099838,6135e006383e6ea6c3d06a28,61364964df4faf6efb97ad6f,,,,,,,,
f,1.2871,0,23,23,48,1,6128f7c06a0eba3378ffb1c3,RROOOOO,RROOOOR,20.90986523,22.15934078,series_1,6128f7c06a0eba3378ffb1c3,Kobieta,30,2021-09-06_19h02.32.122,rantool2,2021.1.4,Win32,59.89099838,6135e006383e6ea6c3d06a28,61364964df4faf6efb97ad6f,,,,,,,,
j,1.0178,0,24,24,24,1,6128f7c06a0eba3378ffb1c3,ORROOOO,ORROOOR,21.12383932,22.07102821,series_1,6128f7c06a0eba3378ffb1c3,Kobieta,30,2021-09-06_19h02.32.122,rantool2,2021.1.4,Win32,59.89099838,6135e006383e6ea6c3d06a28,61364964df4faf6efb97ad6f,,,,,,,,
f,1.1814,0,25,25,25,1,6128f7c06a0eba3378ffb1c3,ORROORO,ORROORR,21.79500819,22.61624387,series_1,6128f7c06a0eba3378ffb1c3,Kobieta,30,2021-09-06_19h02.32.122,rantool2,2021.1.4,Win32,59.89099838,6135e006383e6ea6c3d06a28,61364964df4faf6efb97ad6f,,,,,,,,
j,1.5076,0,26,26,9,1,6128f7c06a0eba3378ffb1c3,OOROORO,OOROORR,21.07991943,22.2428857,series_1,6128f7c06a0eba3378ffb1c3,Kobieta,30,2021-09-06_19h02.32.122,rantool2,2021.1.4,Win32,59.89099838,6135e006383e6ea6c3d06a28,61364964df4faf6efb97ad6f,,,,,,,,
f,1.3853,0,27,27,44,1,6128f7c06a0eba3378ffb1c3,RORROOO,RORROOR,21.66733484,22.02566557,series_1,6128f7c06a0eba3378ffb1c3,Kobieta,30,2021-09-06_19h02.32.122,rantool2,2021.1.4,Win32,59.89099838,6135e006383e6ea6c3d06a28,61364964df4faf6efb97ad6f,,,,,,,,
j,1.1612,0,28,28,58,1,6128f7c06a0eba3378ffb1c3,RRROROO,RRROROR,22.1285618,21.37121559,series_0,6128f7c06a0eba3378ffb1c3,Kobieta,30,2021-09-06_19h02.32.122,rantool2,2021.1.4,Win32,59.89099838,6135e006383e6ea6c3d06a28,61364964df4faf6efb97ad6f,,,,,,,,
f,1.1045,0,29,29,39,1,6128f7c06a0eba3378ffb1c3,ROORRRO,ROORRRR,21.82425538,21.38562617,series_0,6128f7c06a0eba3378ffb1c3,Kobieta,30,2021-09-06_19h02.32.122,rantool2,2021.1.4,Win32,59.89099838,6135e006383e6ea6c3d06a28,61364964df4faf6efb97ad6f,,,,,,,,
j,1.0645,0,30,30,11,1,6128f7c06a0eba3378ffb1c3,OORORRO,OORORRR,22.18365867,22.6797523,series_1,6128f7c06a0eba3378ffb1c3,Kobieta,30,2021-09-06_19h02.32.122,rantool2,2021.1.4,Win32,59.89099838,6135e006383e6ea6c3d06a28,61364964df4faf6efb97ad6f,,,,,,,,
f,1.364,0,31,31,47,1,6128f7c06a0eba3378ffb1c3,RORRRRO,RORRRRR,21.81333602,21.02936224,series_0,6128f7c06a0eba3378ffb1c3,Kobieta,30,2021-09-06_19h02.32.122,rantool2,2021.1.4,Win32,59.89099838,6135e006383e6ea6c3d06a28,61364964df4faf6efb97ad6f,,,,,,,,
j,1.0427,0,32,32,28,1,6128f7c06a0eba3378ffb1c3,ORRROOO,ORRROOR,22.24142883,22.53364006,series_1,6128f7c06a0eba3378ffb1c3,Kobieta,30,2021-09-06_19h02.32.122,rantool2,2021.1.4,Win32,59.89099838,6135e006383e6ea6c3d06a28,61364964df4faf6efb97ad6f,,,,,,,,
f,1.6225,0,33,33,50,1,6128f7c06a0eba3378ffb1c3,RROOROO,RROOROR,21.73568164,22.02566557,series_1,6128f7c06a0eba3378ffb1c3,Kobieta,30,2021-09-06_19h02.32.122,rantool2,2021.1.4,Win32,59.89099838,6135e006383e6ea6c3d06a28,61364964df4faf6efb97ad6f,,,,,,,,
f,0.9942,0,34,34,19,1,6128f7c06a0eba3378ffb1c3,OROORRO,OROORRR,21.73568164,22.11181017,series_1,6128f7c06a0eba3378ffb1c3,Kobieta,30,2021-09-06_19h02.32.122,rantool2,2021.1.4,Win32,59.89099838,6135e006383e6ea6c3d06a28,61364964df4faf6efb97ad6f,,,,,,,,
j,0.9654,0,35,35,29,1,6128f7c06a0eba3378ffb1c3,ORRRORO,ORRRORR,22.00300695,22.12173012,series_1,6128f7c06a0eba3378ffb1c3,Kobieta,30,2021-09-06_19h02.32.122,rantool2,2021.1.4,Win32,59.89099838,6135e006383e6ea6c3d06a28,61364964df4faf6efb97ad6f,,,,,,,,
j,1.0711,0,36,36,40,1,6128f7c06a0eba3378ffb1c3,ROROOOO,ROROOOR,20.87963819,21.37121559,series_1,6128f7c06a0eba3378ffb1c3,Kobieta,30,2021-09-06_19h02.32.122,rantool2,2021.1.4,Win32,59.89099838,6135e006383e6ea6c3d06a28,61364964df4faf6efb97ad6f,,,,,,,,
f,0.9134,0,37,37,20,1,6128f7c06a0eba3378ffb1c3,OROROOO,OROROOR,21.31236711,21.90565814,series_1,6128f7c06a0eba3378ffb1c3,Kobieta,30,2021-09-06_19h02.32.122,rantool2,2021.1.4,Win32,59.89099838,6135e006383e6ea6c3d06a28,61364964df4faf6efb97ad6f,,,,,,,,
j,2.2418,0,38,38,61,1,6128f7c06a0eba3378ffb1c3,RRRRORO,RRRRORR,21.81333602,21.17347734,series_0,6128f7c06a0eba3378ffb1c3,Kobieta,30,2021-09-06_19h02.32.122,rantool2,2021.1.4,Win32,59.89099838,6135e006383e6ea6c3d06a28,61364964df4faf6efb97ad6f,,,,,,,,
f,0.9235,0,39,39,30,1,6128f7c06a0eba3378ffb1c3,ORRRROO,ORRRROR,22.46748491,22.03072203,series_0,6128f7c06a0eba3378ffb1c3,Kobieta,30,2021-09-06_19h02.32.122,rantool2,2021.1.4,Win32,59.89099838,6135e006383e6ea6c3d06a28,61364964df4faf6efb97ad6f,,,,,,,,
j,1.5255,0,40,40,15,1,6128f7c06a0eba3378ffb1c3,OORRRRO,OORRRRR,22.10108823,21.74922619,series_0,6128f7c06a0eba3378ffb1c3,Kobieta,30,2021-09-06_19h02.32.122,rantool2,2021.1.4,Win32,59.89099838,6135e006383e6ea6c3d06a28,61364964df4faf6efb97ad6f,,,,,,,,
j,1.973,0,41,41,62,1,6128f7c06a0eba3378ffb1c3,RRRRROO,RRRRROR,22.16413392,21.27974287,series_0,6128f7c06a0eba3378ffb1c3,Kobieta,30,2021-09-06_19h02.32.122,rantool2,2021.1.4,Win32,59.89099838,6135e006383e6ea6c3d06a28,61364964df4faf6efb97ad6f,,,,,,,,
f,1.0899,0,42,42,57,1,6128f7c06a0eba3378ffb1c3,RRROORO,RRROORR,21.82425538,22.07102821,series_1,6128f7c06a0eba3378ffb1c3,Kobieta,30,2021-09-06_19h02.32.122,rantool2,2021.1.4,Win32,59.89099838,6135e006383e6ea6c3d06a28,61364964df4faf6efb97ad6f,,,,,,,,
f,1.1637,0,43,43,31,1,6128f7c06a0eba3378ffb1c3,ORRRRRO,ORRRRRR,22.16413392,20.74050628,series_0,6128f7c06a0eba3378ffb1c3,Kobieta,30,2021-09-06_19h02.32.122,rantool2,2021.1.4,Win32,59.89099838,6135e006383e6ea6c3d06a28,61364964df4faf6efb97ad6f,,,,,,,,
j,1.0029,0,44,44,18,1,6128f7c06a0eba3378ffb1c3,OROOROO,OROOROR,20.84860893,21.22513037,series_1,6128f7c06a0eba3378ffb1c3,Kobieta,30,2021-09-06_19h02.32.122,rantool2,2021.1.4,Win32,59.89099838,6135e006383e6ea6c3d06a28,61364964df4faf6efb97ad6f,,,,,,,,
f,1.0008,0,45,45,52,1,6128f7c06a0eba3378ffb1c3,RROROOO,RROROOR,22.18365867,22.11097995,series_0,6128f7c06a0eba3378ffb1c3,Kobieta,30,2021-09-06_19h02.32.122,rantool2,2021.1.4,Win32,59.89099838,6135e006383e6ea6c3d06a28,61364964df4faf6efb97ad6f,,,,,,,,
j,0.8855,0,46,46,41,1,6128f7c06a0eba3378ffb1c3,ROROORO,ROROORR,20.42602454,21.71443381,series_1,6128f7c06a0eba3378ffb1c3,Kobieta,30,2021-09-06_19h02.32.122,rantool2,2021.1.4,Win32,59.89099838,6135e006383e6ea6c3d06a28,61364964df4faf6efb97ad6f,,,,,,,,
f,1.0882,0,47,47,42,1,6128f7c06a0eba3378ffb1c3,ROROROO,ROROROR,20.39515459,19.8361834,series_0,6128f7c06a0eba3378ffb1c3,Kobieta,30,2021-09-06_19h02.32.122,rantool2,2021.1.4,Win32,59.89099838,6135e006383e6ea6c3d06a28,61364964df4faf6efb97ad6f,,,,,,,,
j,1.1135,0,48,48,54,1,6128f7c06a0eba3378ffb1c3,RRORROO,RRORROR,21.55250791,20.9984461,series_0,6128f7c06a0eba3378ffb1c3,Kobieta,30,2021-09-06_19h02.32.122,rantool2,2021.1.4,Win32,59.89099838,6135e006383e6ea6c3d06a28,61364964df4faf6efb97ad6f,,,,,,,,
f,1.3944,0,49,49,38,1,6128f7c06a0eba3378ffb1c3,ROORROO,ROORROR,21.79500819,21.36812781,series_0,6128f7c06a0eba3378ffb1c3,Kobieta,30,2021-09-06_19h02.32.122,rantool2,2021.1.4,Win32,59.89099838,6135e006383e6ea6c3d06a28,61364964df4faf6efb97ad6f,,,,,,,,
j,0.96,0,50,50,45,1,6128f7c06a0eba3378ffb1c3,RORRORO,RORRORR,20.78182524,21.22513037,series_1,6128f7c06a0eba3378ffb1c3,Kobieta,30,2021-09-06_19h02.32.122,rantool2,2021.1.4,Win32,59.89099838,6135e006383e6ea6c3d06a28,61364964df4faf6efb97ad6f,,,,,,,,
f,1.0713,0,51,51,14,1,6128f7c06a0eba3378ffb1c3,OORRROO,OORRROR,22.24142883,22.16977179,series_0,6128f7c06a0eba3378ffb1c3,Kobieta,30,2021-09-06_19h02.32.122,rantool2,2021.1.4,Win32,59.89099838,6135e006383e6ea6c3d06a28,61364964df4faf6efb97ad6f,,,,,,,,
j,0.9541,0,52,52,4,1,6128f7c06a0eba3378ffb1c3,OOOROOO,OOOROOR,19.91402015,21.21223021,series_1,6128f7c06a0eba3378ffb1c3,Kobieta,30,2021-09-06_19h02.32.122,rantool2,2021.1.4,Win32,59.89099838,6135e006383e6ea6c3d06a28,61364964df4faf6efb97ad6f,,,,,,,,
j,1.2179,0,53,53,51,1,6128f7c06a0eba3378ffb1c3,RROORRO,RROORRR,21.89852628,22.02786418,series_1,6128f7c06a0eba3378ffb1c3,Kobieta,30,2021-09-06_19h02.32.122,rantool2,2021.1.4,Win32,59.89099838,6135e006383e6ea6c3d06a28,61364964df4faf6efb97ad6f,,,,,,,,
f,0.8778,0,54,54,5,1,6128f7c06a0eba3378ffb1c3,OOORORO,OOORORR,20.87963819,21.9921709,series_1,6128f7c06a0eba3378ffb1c3,Kobieta,30,2021-09-06_19h02.32.122,rantool2,2021.1.4,Win32,59.89099838,6135e006383e6ea6c3d06a28,61364964df4faf6efb97ad6f,,,,,,,,
f,1.5286,0,55,55,55,1,6128f7c06a0eba3378ffb1c3,RRORRRO,RRORRRR,21.56657303,21.21223021,series_0,6128f7c06a0eba3378ffb1c3,Kobieta,30,2021-09-06_19h02.32.122,rantool2,2021.1.4,Win32,59.89099838,6135e006383e6ea6c3d06a28,61364964df4faf6efb97ad6f,,,,,,,,
j,1.4852,0,56,56,2,1,6128f7c06a0eba3378ffb1c3,OOOOROO,OOOOROR,20.43051175,21.02936224,series_1,6128f7c06a0eba3378ffb1c3,Kobieta,30,2021-09-06_19h02.32.122,rantool2,2021.1.4,Win32,59.89099838,6135e006383e6ea6c3d06a28,61364964df4faf6efb97ad6f,,,,,,,,
f,1.0255,0,57,57,3,1,6128f7c06a0eba3378ffb1c3,OOOORRO,OOOORRR,20.90986523,21.74922619,series_1,6128f7c06a0eba3378ffb1c3,Kobieta,30,2021-09-06_19h02.32.122,rantool2,2021.1.4,Win32,59.89099838,6135e006383e6ea6c3d06a28,61364964df4faf6efb97ad6f,,,,,,,,
j,0.8139,0,58,58,33,1,6128f7c06a0eba3378ffb1c3,ROOOORO,ROOOORR,20.83779602,22.03072203,series_1,6128f7c06a0eba3378ffb1c3,Kobieta,30,2021-09-06_19h02.32.122,rantool2,2021.1.4,Win32,59.89099838,6135e006383e6ea6c3d06a28,61364964df4faf6efb97ad6f,,,,,,,,
f,0.5954,0,59,59,23,1,6128f7c06a0eba3378ffb1c3,ORORRRO,ORORRRR,22.1285618,21.9921709,series_0,6128f7c06a0eba3378ffb1c3,Kobieta,30,2021-09-06_19h02.32.122,rantool2,2021.1.4,Win32,59.89099838,6135e006383e6ea6c3d06a28,61364964df4faf6efb97ad6f,,,,,,,,
j,1.6689,0,60,60,46,1,6128f7c06a0eba3378ffb1c3,RORRROO,RORRROR,22.00300695,21.24781509,series_0,6128f7c06a0eba3378ffb1c3,Kobieta,30,2021-09-06_19h02.32.122,rantool2,2021.1.4,Win32,59.89099838,6135e006383e6ea6c3d06a28,61364964df4faf6efb97ad6f,,,,,,,,
f,0.8843,0,61,61,27,1,6128f7c06a0eba3378ffb1c3,ORRORRO,ORRORRR,21.55250791,22.2428857,series_1,6128f7c06a0eba3378ffb1c3,Kobieta,30,2021-09-06_19h02.32.122,rantool2,2021.1.4,Win32,59.89099838,6135e006383e6ea6c3d06a28,61364964df4faf6efb97ad6f,,,,,,,,
j,1.2779,0,62,62,49,1,6128f7c06a0eba3378ffb1c3,RROOORO,RROOORR,21.76276513,22.53364006,series_1,6128f7c06a0eba3378ffb1c3,Kobieta,30,2021-09-06_19h02.32.122,rantool2,2021.1.4,Win32,59.89099838,6135e006383e6ea6c3d06a28,61364964df4faf6efb97ad6f,,,,,,,,
f,1.6163,0,63,63,21,1,6128f7c06a0eba3378ffb1c3,ORORORO,ORORORR,20.39515459,22.06781359,series_1,6128f7c06a0eba3378ffb1c3,Kobieta,30,2021-09-06_19h02.32.122,rantool2,2021.1.4,Win32,59.89099838,6135e006383e6ea6c3d06a28,61364964df4faf6efb97ad6f,,,,,,,,
,,,,,,,6128f7c06a0eba3378ffb1c3,,,,,,6128f7c06a0eba3378ffb1c3,Kobieta,30,2021-09-06_19h02.32.122,rantool2,2021.1.4,Win32,59.89099838,6135e006383e6ea6c3d06a28,61364964df4faf6efb97ad6f,0,,,0,0,0,0,1
,,,,,,,6128f7c06a0eba3378ffb1c3,,,,,,6128f7c06a0eba3378ffb1c3,Kobieta,30,2021-09-06_19h02.32.122,rantool2,2021.1.4,Win32,59.89099838,6135e006383e6ea6c3d06a28,61364964df4faf6efb97ad6f,0,,,1,0,1,0,1
,,,,,,,6128f7c06a0eba3378ffb1c3,,,,,,6128f7c06a0eba3378ffb1c3,Kobieta,30,2021-09-06_19h02.32.122,rantool2,2021.1.4,Win32,59.89099838,6135e006383e6ea6c3d06a28,61364964df4faf6efb97ad6f,0,,,2,0,2,0,1
,,,,,,,6128f7c06a0eba3378ffb1c3,,,,,,6128f7c06a0eba3378ffb1c3,Kobieta,30,2021-09-06_19h02.32.122,rantool2,2021.1.4,Win32,59.89099838,6135e006383e6ea6c3d06a28,61364964df4faf6efb97ad6f,"[""comma""]",0,[0.9434000000003664],3,0,3,0,1
,,,,,,,6128f7c06a0eba3378ffb1c3,,,,,,6128f7c06a0eba3378ffb1c3,Kobieta,30,2021-09-06_19h02.32.122,rantool2,2021.1.4,Win32,59.89099838,6135e006383e6ea6c3d06a28,61364964df4faf6efb97ad6f,"[""period""]",0,[0.33309999999963225],4,0,4,0,1
,,,,,,,6128f7c06a0eba3378ffb1c3,,,,,,6128f7c06a0eba3378ffb1c3,Kobieta,30,2021-09-06_19h02.32.122,rantool2,2021.1.4,Win32,59.89099838,6135e006383e6ea6c3d06a28,61364964df4faf6efb97ad6f,"[""period""]",0,[0.2249000000003889],5,0,5,0,1
,,,,,,,6128f7c06a0eba3378ffb1c3,,,,,,6128f7c06a0eba3378ffb1c3,Kobieta,30,2021-09-06_19h02.32.122,rantool2,2021.1.4,Win32,59.89099838,6135e006383e6ea6c3d06a28,61364964df4faf6efb97ad6f,"[""period""]",0,[0.2203000000007478],6,0,6,0,1
,,,,,,,6128f7c06a0eba3378ffb1c3,,,,,,6128f7c06a0eba3378ffb1c3,Kobieta,30,2021-09-06_19h02.32.122,rantool2,2021.1.4,Win32,59.89099838,6135e006383e6ea6c3d06a28,61364964df4faf6efb97ad6f,"[""comma""]",0,[0.24969999999925108],7,0,7,0,1
,,,,,,,6128f7c06a0eba3378ffb1c3,,,,,,6128f7c06a0eba3378ffb1c3,Kobieta,30,2021-09-06_19h02.32.122,rantool2,2021.1.4,Win32,59.89099838,6135e006383e6ea6c3d06a28,61364964df4faf6efb97ad6f,"[""period""]",0,[0.1880000000000166],8,0,8,0,1
,,,,,,,6128f7c06a0eba3378ffb1c3,,,,,,6128f7c06a0eba3378ffb1c3,Kobieta,30,2021-09-06_19h02.32.122,rantool2,2021.1.4,Win32,59.89099838,6135e006383e6ea6c3d06a28,61364964df4faf6efb97ad6f,"[""period""]",0,[0.2725999999996418],9,0,9,0,1
,,,,,,,6128f7c06a0eba3378ffb1c3,,,,,,6128f7c06a0eba3378ffb1c3,Kobieta,30,2021-09-06_19h02.32.122,rantool2,2021.1.4,Win32,59.89099838,6135e006383e6ea6c3d06a28,61364964df4faf6efb97ad6f,"[""comma""]",0,[0.3806000000014933],10,0,10,0,1
,,,,,,,6128f7c06a0eba3378ffb1c3,,,,,,6128f7c06a0eba3378ffb1c3,Kobieta,30,2021-09-06_19h02.32.122,rantool2,2021.1.4,Win32,59.89099838,6135e006383e6ea6c3d06a28,61364964df4faf6efb97ad6f,"[""comma""]",0,[0.32170000000112964],11,0,11,0,1
,,,,,,,6128f7c06a0eba3378ffb1c3,,,,,,6128f7c06a0eba3378ffb1c3,Kobieta,30,2021-09-06_19h02.32.122,rantool2,2021.1.4,Win32,59.89099838,6135e006383e6ea6c3d06a28,61364964df4faf6efb97ad6f,"[""period""]",0,[0.3098000000007346],12,0,12,0,1
,,,,,,,6128f7c06a0eba3378ffb1c3,,,,,,6128f7c06a0eba3378ffb1c3,Kobieta,30,2021-09-06_19h02.32.122,rantool2,2021.1.4,Win32,59.89099838,6135e006383e6ea6c3d06a28,61364964df4faf6efb97ad6f,"[""comma""]",0,[0.2895999999996377],13,0,13,0,1
,,,,,,,6128f7c06a0eba3378ffb1c3,,,,,,6128f7c06a0eba3378ffb1c3,Kobieta,30,2021-09-06_19h02.32.122,rantool2,2021.1.4,Win32,59.89099838,6135e006383e6ea6c3d06a28,61364964df4faf6efb97ad6f,"[""comma""]",0,[0.35030000000074324],14,0,14,0,1
,,,,,,,6128f7c06a0eba3378ffb1c3,,,,,,6128f7c06a0eba3378ffb1c3,Kobieta,30,2021-09-06_19h02.32.122,rantool2,2021.1.4,Win32,59.89099838,6135e006383e6ea6c3d06a28,61364964df4faf6efb97ad6f,"[""period"",""comma""]",0,"[0.24820000000113396,1.8087000000011244]",15,0,15,0,1
,,,,,,,6128f7c06a0eba3378ffb1c3,,,,,,6128f7c06a0eba3378ffb1c3,Kobieta,30,2021-09-06_19h02.32.122,rantool2,2021.1.4,Win32,59.89099838,6135e006383e6ea6c3d06a28,61364964df4faf6efb97ad6f,0,0,,16,0,16,0,1
,,,,,,,6128f7c06a0eba3378ffb1c3,,,,,,6128f7c06a0eba3378ffb1c3,Kobieta,30,2021-09-06_19h02.32.122,rantool2,2021.1.4,Win32,59.89099838,6135e006383e6ea6c3d06a28,61364964df4faf6efb97ad6f,"[""period""]",0,[0.2426999999992745],17,0,17,0,1
,,,,,,,6128f7c06a0eba3378ffb1c3,,,,,,6128f7c06a0eba3378ffb1c3,Kobieta,30,2021-09-06_19h02.32.122,rantool2,2021.1.4,Win32,59.89099838,6135e006383e6ea6c3d06a28,61364964df4faf6efb97ad6f,"[""comma""]",0,[0.31959999999963884],18,0,18,0,1
,,,,,,,6128f7c06a0eba3378ffb1c3,,,,,,6128f7c06a0eba3378ffb1c3,Kobieta,30,2021-09-06_19h02.32.122,rantool2,2021.1.4,Win32,59.89099838,6135e006383e6ea6c3d06a28,61364964df4faf6efb97ad6f,"[""period""]",0,[0.2516000000014742],19,0,19,0,1
,,,,,,,6128f7c06a0eba3378ffb1c3,,,,,,6128f7c06a0eba3378ffb1c3,Kobieta,30,2021-09-06_19h02.32.122,rantool2,2021.1.4,Win32,59.89099838,6135e006383e6ea6c3d06a28,61364964df4faf6efb97ad6f,"[""period""]",0,[0.3116999999992629],20,0,20,0,1
,,,,,,,6128f7c06a0eba3378ffb1c3,,,,,,6128f7c06a0eba3378ffb1c3,Kobieta,30,2021-09-06_19h02.32.122,rantool2,2021.1.4,Win32,59.89099838,6135e006383e6ea6c3d06a28,61364964df4faf6efb97ad6f,"[""comma""]",0,[0.3165999999996245],21,0,21,0,1
,,,,,,,6128f7c06a0eba3378ffb1c3,,,,,,6128f7c06a0eba3378ffb1c3,Kobieta,30,2021-09-06_19h02.32.122,rantool2,2021.1.4,Win32,59.89099838,6135e006383e6ea6c3d06a28,61364964df4faf6efb97ad6f,"[""period""]",0,[0.3439999999999941],22,0,22,0,1
,,,,,,,6128f7c06a0eba3378ffb1c3,,,,,,6128f7c06a0eba3378ffb1c3,Kobieta,30,2021-09-06_19h02.32.122,rantool2,2021.1.4,Win32,59.89099838,6135e006383e6ea6c3d06a28,61364964df4faf6efb97ad6f,"[""comma""]",0,[0.37260000000151194],23,0,23,0,1
,,,,,,,6128f7c06a0eba3378ffb1c3,,,,,,6128f7c06a0eba3378ffb1c3,Kobieta,30,2021-09-06_19h02.32.122,rantool2,2021.1.4,Win32,59.89099838,6135e006383e6ea6c3d06a28,61364964df4faf6efb97ad6f,"[""comma""]",0,[0.32880000000074006],24,0,24,0,1
,,,,,,,6128f7c06a0eba3378ffb1c3,,,,,,6128f7c06a0eba3378ffb1c3,Kobieta,30,2021-09-06_19h02.32.122,rantool2,2021.1.4,Win32,59.89099838,6135e006383e6ea6c3d06a28,61364964df4faf6efb97ad6f,"[""comma""]",0,[0.26089999999851443],25,0,25,0,1
,,,,,,,6128f7c06a0eba3378ffb1c3,,,,,,6128f7c06a0eba3378ffb1c3,Kobieta,30,2021-09-06_19h02.32.122,rantool2,2021.1.4,Win32,59.89099838,6135e006383e6ea6c3d06a28,61364964df4faf6efb97ad6f,"[""period""]",0,[0.3050000000000068],26,0,26,0,1
,,,,,,,6128f7c06a0eba3378ffb1c3,,,,,,6128f7c06a0eba3378ffb1c3,Kobieta,30,2021-09-06_19h02.32.122,rantool2,2021.1.4,Win32,59.89099838,6135e006383e6ea6c3d06a28,61364964df4faf6efb97ad6f,"[""period""]",0,[0.2303000000007387],27,0,27,0,1
,,,,,,,6128f7c06a0eba3378ffb1c3,,,,,,6128f7c06a0eba3378ffb1c3,Kobieta,30,2021-09-06_19h02.32.122,rantool2,2021.1.4,Win32,59.89099838,6135e006383e6ea6c3d06a28,61364964df4faf6efb97ad6f,"[""comma""]",0,[0.24970000000121217],28,0,28,0,1
,,,,,,,6128f7c06a0eba3378ffb1c3,,,,,,6128f7c06a0eba3378ffb1c3,Kobieta,30,2021-09-06_19h02.32.122,rantool2,2021.1.4,Win32,59.89099838,6135e006383e6ea6c3d06a28,61364964df4faf6efb97ad6f,"[""comma""]",0,[0.3098999999986063],29,0,29,0,1
,,,,,,,6128f7c06a0eba3378ffb1c3,,,,,,6128f7c06a0eba3378ffb1c3,Kobieta,30,2021-09-06_19h02.32.122,rantool2,2021.1.4,Win32,59.89099838,6135e006383e6ea6c3d06a28,61364964df4faf6efb97ad6f,"[""period""]",0,[0.07380000000068776],30,0,30,0,1
,,,,,,,6128f7c06a0eba3378ffb1c3,,,,,,6128f7c06a0eba3378ffb1c3,Kobieta,30,2021-09-06_19h02.32.122,rantool2,2021.1.4,Win32,59.89099838,6135e006383e6ea6c3d06a28,61364964df4faf6efb97ad6f,"[""period""]",0,[0.1580999999996493],31,0,31,0,1
,,,,,,,6128f7c06a0eba3378ffb1c3,,,,,,6128f7c06a0eba3378ffb1c3,Kobieta,30,2021-09-06_19h02.32.122,rantool2,2021.1.4,Win32,59.89099838,6135e006383e6ea6c3d06a28,61364964df4faf6efb97ad6f,"[""comma""]",0,[0.31659999999965294],32,0,32,0,1
,,,,,,,6128f7c06a0eba3378ffb1c3,,,,,,6128f7c06a0eba3378ffb1c3,Kobieta,30,2021-09-06_19h02.32.122,rantool2,2021.1.4,Win32,59.89099838,6135e006383e6ea6c3d06a28,61364964df4faf6efb97ad6f,"[""comma"",""period""]",0,"[0.27869999999927586,1.830500000000029]",33,0,33,0,1
,,,,,,,6128f7c06a0eba3378ffb1c3,,,,,,6128f7c06a0eba3378ffb1c3,Kobieta,30,2021-09-06_19h02.32.122,rantool2,2021.1.4,Win32,59.89099838,6135e006383e6ea6c3d06a28,61364964df4faf6efb97ad6f,"[""period""]",0,[1.386800000000676],34,0,34,0,1
,,,,,,,6128f7c06a0eba3378ffb1c3,,,,,,6128f7c06a0eba3378ffb1c3,Kobieta,30,2021-09-06_19h02.32.122,rantool2,2021.1.4,Win32,59.89099838,6135e006383e6ea6c3d06a28,61364964df4faf6efb97ad6f,0,0,,35,0,35,0,1
,,,,,,,6128f7c06a0eba3378ffb1c3,,,,,,6128f7c06a0eba3378ffb1c3,Kobieta,30,2021-09-06_19h02.32.122,rantool2,2021.1.4,Win32,59.89099838,6135e006383e6ea6c3d06a28,61364964df4faf6efb97ad6f,"[""comma""]",0,[0.26779999999882875],36,0,36,0,1
,,,,,,,6128f7c06a0eba3378ffb1c3,,,,,,6128f7c06a0eba3378ffb1c3,Kobieta,30,2021-09-06_19h02.32.122,rantool2,2021.1.4,Win32,59.89099838,6135e006383e6ea6c3d06a28,61364964df4faf6efb97ad6f,"[""period""]",0,[0.3039999999999736],37,0,37,0,1
,,,,,,,6128f7c06a0eba3378ffb1c3,,,,,,6128f7c06a0eba3378ffb1c3,Kobieta,30,2021-09-06_19h02.32.122,rantool2,2021.1.4,Win32,59.89099838,6135e006383e6ea6c3d06a28,61364964df4faf6efb97ad6f,"[""comma""]",0,[0.31640000000038526],38,0,38,0,1
,,,,,,,6128f7c06a0eba3378ffb1c3,,,,,,6128f7c06a0eba3378ffb1c3,Kobieta,30,2021-09-06_19h02.32.122,rantool2,2021.1.4,Win32,59.89099838,6135e006383e6ea6c3d06a28,61364964df4faf6efb97ad6f,"[""comma""]",0,[0.28809999999964475],39,0,39,0,1
,,,,,,,6128f7c06a0eba3378ffb1c3,,,,,,6128f7c06a0eba3378ffb1c3,Kobieta,30,2021-09-06_19h02.32.122,rantool2,2021.1.4,Win32,59.89099838,6135e006383e6ea6c3d06a28,61364964df4faf6efb97ad6f,"[""comma""]",0,[0.30009999999958836],40,0,40,0,1
,,,,,,,6128f7c06a0eba3378ffb1c3,,,,,,6128f7c06a0eba3378ffb1c3,Kobieta,30,2021-09-06_19h02.32.122,rantool2,2021.1.4,Win32,59.89099838,6135e006383e6ea6c3d06a28,61364964df4faf6efb97ad6f,"[""period""]",0,[0.2409000000003516],41,0,41,0,1
,,,,,,,6128f7c06a0eba3378ffb1c3,,,,,,6128f7c06a0eba3378ffb1c3,Kobieta,30,2021-09-06_19h02.32.122,rantool2,2021.1.4,Win32,59.89099838,6135e006383e6ea6c3d06a28,61364964df4faf6efb97ad6f,"[""period""]",0,[0.2743000000007214],42,0,42,0,1
,,,,,,,6128f7c06a0eba3378ffb1c3,,,,,,6128f7c06a0eba3378ffb1c3,Kobieta,30,2021-09-06_19h02.32.122,rantool2,2021.1.4,Win32,59.89099838,6135e006383e6ea6c3d06a28,61364964df4faf6efb97ad6f,"[""period""]",0,[0.28920000000107393],43,0,43,0,1
,,,,,,,6128f7c06a0eba3378ffb1c3,,,,,,6128f7c06a0eba3378ffb1c3,Kobieta,30,2021-09-06_19h02.32.122,rantool2,2021.1.4,Win32,59.89099838,6135e006383e6ea6c3d06a28,61364964df4faf6efb97ad6f,"[""comma""]",0,[0.32569999999918764],44,0,44,0,1
,,,,,,,6128f7c06a0eba3378ffb1c3,,,,,,6128f7c06a0eba3378ffb1c3,Kobieta,30,2021-09-06_19h02.32.122,rantool2,2021.1.4,Win32,59.89099838,6135e006383e6ea6c3d06a28,61364964df4faf6efb97ad6f,"[""comma""]",0,[0.3165000000000191],45,0,45,0,1
,,,,,,,6128f7c06a0eba3378ffb1c3,,,,,,6128f7c06a0eba3378ffb1c3,Kobieta,30,2021-09-06_19h02.32.122,rantool2,2021.1.4,Win32,59.89099838,6135e006383e6ea6c3d06a28,61364964df4faf6efb97ad6f,"[""period""]",0,[0.0621999999992795],46,0,46,0,1
,,,,,,,6128f7c06a0eba3378ffb1c3,,,,,,6128f7c06a0eba3378ffb1c3,Kobieta,30,2021-09-06_19h02.32.122,rantool2,2021.1.4,Win32,59.89099838,6135e006383e6ea6c3d06a28,61364964df4faf6efb97ad6f,"[""comma""]",0,[0.28300000000001546],47,0,47,0,1
,,,,,,,6128f7c06a0eba3378ffb1c3,,,,,,6128f7c06a0eba3378ffb1c3,Kobieta,30,2021-09-06_19h02.32.122,rantool2,2021.1.4,Win32,59.89099838,6135e006383e6ea6c3d06a28,61364964df4faf6efb97ad6f,"[""period""]",0,[0.28640000000041255],48,0,48,0,1
,,,,,,,6128f7c06a0eba3378ffb1c3,,,,,,6128f7c06a0eba3378ffb1c3,Kobieta,30,2021-09-06_19h02.32.122,rantool2,2021.1.4,Win32,59.89099838,6135e006383e6ea6c3d06a28,61364964df4faf6efb97ad6f,"[""period""]",0,[0.35569999999927404],49,0,49,0,1
,,,,,,,6128f7c06a0eba3378ffb1c3,,,,,,6128f7c06a0eba3378ffb1c3,Kobieta,30,2021-09-06_19h02.32.122,rantool2,2021.1.4,Win32,59.89099838,6135e006383e6ea6c3d06a28,61364964df4faf6efb97ad6f,"[""period""]",0,[0.31119999999918946],50,0,50,0,1
,,,,,,,6128f7c06a0eba3378ffb1c3,,,,,,6128f7c06a0eba3378ffb1c3,Kobieta,30,2021-09-06_19h02.32.122,rantool2,2021.1.4,Win32,59.89099838,6135e006383e6ea6c3d06a28,61364964df4faf6efb97ad6f,"[""comma""]",0,[0.21130000000073323],51,0,51,0,1
,,,,,,,6128f7c06a0eba3378ffb1c3,,,,,,6128f7c06a0eba3378ffb1c3,Kobieta,30,2021-09-06_19h02.32.122,rantool2,2021.1.4,Win32,59.89099838,6135e006383e6ea6c3d06a28,61364964df4faf6efb97ad6f,"[""comma""]",0,[0.29530000000079326],52,0,52,0,1
,,,,,,,6128f7c06a0eba3378ffb1c3,,,,,,6128f7c06a0eba3378ffb1c3,Kobieta,30,2021-09-06_19h02.32.122,rantool2,2021.1.4,Win32,59.89099838,6135e006383e6ea6c3d06a28,61364964df4faf6efb97ad6f,"[""period""]",0,[0.2895999999996093],53,0,53,0,1
,,,,,,,6128f7c06a0eba3378ffb1c3,,,,,,6128f7c06a0eba3378ffb1c3,Kobieta,30,2021-09-06_19h02.32.122,rantool2,2021.1.4,Win32,59.89099838,6135e006383e6ea6c3d06a28,61364964df4faf6efb97ad6f,"[""period""]",0,[0.36890000000039436],54,0,54,0,1
,,,,,,,6128f7c06a0eba3378ffb1c3,,,,,,6128f7c06a0eba3378ffb1c3,Kobieta,30,2021-09-06_19h02.32.122,rantool2,2021.1.4,Win32,59.89099838,6135e006383e6ea6c3d06a28,61364964df4faf6efb97ad6f,"[""comma""]",0,[0.22040000000038162],55,0,55,0,1
,,,,,,,6128f7c06a0eba3378ffb1c3,,,,,,6128f7c06a0eba3378ffb1c3,Kobieta,30,2021-09-06_19h02.32.122,rantool2,2021.1.4,Win32,59.89099838,6135e006383e6ea6c3d06a28,61364964df4faf6efb97ad6f,"[""period""]",0,[0.7364999999999782],56,0,56,0,1
,,,,,,,6128f7c06a0eba3378ffb1c3,,,,,,6128f7c06a0eba3378ffb1c3,Kobieta,30,2021-09-06_19h02.32.122,rantool2,2021.1.4,Win32,59.89099838,6135e006383e6ea6c3d06a28,61364964df4faf6efb97ad6f,"[""comma""]",0,[0.3330999999997175],57,0,57,0,1
,,,,,,,6128f7c06a0eba3378ffb1c3,,,,,,6128f7c06a0eba3378ffb1c3,Kobieta,30,2021-09-06_19h02.32.122,rantool2,2021.1.4,Win32,59.89099838,6135e006383e6ea6c3d06a28,61364964df4faf6efb97ad6f,"[""comma""]",0,[0.2730999999996584],58,0,58,0,1
,,,,,,,6128f7c06a0eba3378ffb1c3,,,,,,6128f7c06a0eba3378ffb1c3,Kobieta,30,2021-09-06_19h02.32.122,rantool2,2021.1.4,Win32,59.89099838,6135e006383e6ea6c3d06a28,61364964df4faf6efb97ad6f,"[""comma""]",0,[0.34149999999999636],59,0,59,0,1
,,,,,,,6128f7c06a0eba3378ffb1c3,,,,,,6128f7c06a0eba3378ffb1c3,Kobieta,30,2021-09-06_19h02.32.122,rantool2,2021.1.4,Win32,59.89099838,6135e006383e6ea6c3d06a28,61364964df4faf6efb97ad6f,"[""comma""]",0,[0.3059000000004062],60,0,60,0,1
,,,,,,,6128f7c06a0eba3378ffb1c3,,,,,,6128f7c06a0eba3378ffb1c3,Kobieta,30,2021-09-06_19h02.32.122,rantool2,2021.1.4,Win32,59.89099838,6135e006383e6ea6c3d06a28,61364964df4faf6efb97ad6f,"[""period""]",0,[0.27759999999966567],61,0,61,0,1
,,,,,,,6128f7c06a0eba3378ffb1c3,,,,,,6128f7c06a0eba3378ffb1c3,Kobieta,30,2021-09-06_19h02.32.122,rantool2,2021.1.4,Win32,59.89099838,6135e006383e6ea6c3d06a28,61364964df4faf6efb97ad6f,"[""period""]",0,[0.29040000000043165],62,0,62,0,1
,,,,,,,6128f7c06a0eba3378ffb1c3,,,,,,6128f7c06a0eba3378ffb1c3,Kobieta,30,2021-09-06_19h02.32.122,rantool2,2021.1.4,Win32,59.89099838,6135e006383e6ea6c3d06a28,61364964df4faf6efb97ad6f,"[""comma""]",0,[0.31840000000045166],63,0,63,0,1
,,,,,,,6128f7c06a0eba3378ffb1c3,,,,,,6128f7c06a0eba3378ffb1c3,Kobieta,30,2021-09-06_19h02.32.122,rantool2,2021.1.4,Win32,59.89099838,6135e006383e6ea6c3d06a28,61364964df4faf6efb97ad6f,"[""period""]",0,[0.299700000001053],64,0,64,0,1
,,,,,,,6128f7c06a0eba3378ffb1c3,,,,,,6128f7c06a0eba3378ffb1c3,Kobieta,30,2021-09-06_19h02.32.122,rantool2,2021.1.4,Win32,59.89099838,6135e006383e6ea6c3d06a28,61364964df4faf6efb97ad6f,"[""period""]",0,[0.2944999999999709],65,0,65,0,1
,,,,,,,6128f7c06a0eba3378ffb1c3,,,,,,6128f7c06a0eba3378ffb1c3,Kobieta,30,2021-09-06_19h02.32.122,rantool2,2021.1.4,Win32,59.89099838,6135e006383e6ea6c3d06a28,61364964df4faf6efb97ad6f,"[""comma""]",0,[0.299699999999234],66,0,66,0,1
,,,,,,,6128f7c06a0eba3378ffb1c3,,,,,,6128f7c06a0eba3378ffb1c3,Kobieta,30,2021-09-06_19h02.32.122,rantool2,2021.1.4,Win32,59.89099838,6135e006383e6ea6c3d06a28,61364964df4faf6efb97ad6f,"[""comma""]",0,[0.3435999999995829],67,0,67,0,1
,,,,,,,6128f7c06a0eba3378ffb1c3,,,,,,6128f7c06a0eba3378ffb1c3,Kobieta,30,2021-09-06_19h02.32.122,rantool2,2021.1.4,Win32,59.89099838,6135e006383e6ea6c3d06a28,61364964df4faf6efb97ad6f,"[""comma""]",0,[0.3796000000014601],68,0,68,0,1
,,,,,,,6128f7c06a0eba3378ffb1c3,,,,,,6128f7c06a0eba3378ffb1c3,Kobieta,30,2021-09-06_19h02.32.122,rantool2,2021.1.4,Win32,59.89099838,6135e006383e6ea6c3d06a28,61364964df4faf6efb97ad6f,"[""period""]",0,[0.31169999999917763],69,0,69,0,1
,,,,,,,6128f7c06a0eba3378ffb1c3,,,,,,6128f7c06a0eba3378ffb1c3,Kobieta,30,2021-09-06_19h02.32.122,rantool2,2021.1.4,Win32,59.89099838,6135e006383e6ea6c3d06a28,61364964df4faf6efb97ad6f,"[""period""]",0,[0.339900000000398],70,0,70,0,1
,,,,,,,6128f7c06a0eba3378ffb1c3,,,,,,6128f7c06a0eba3378ffb1c3,Kobieta,30,2021-09-06_19h02.32.122,rantool2,2021.1.4,Win32,59.89099838,6135e006383e6ea6c3d06a28,61364964df4faf6efb97ad6f,"[""comma""]",0,[0.3291000000015174],71,0,71,0,1
,,,,,,,6128f7c06a0eba3378ffb1c3,,,,,,6128f7c06a0eba3378ffb1c3,Kobieta,30,2021-09-06_19h02.32.122,rantool2,2021.1.4,Win32,59.89099838,6135e006383e6ea6c3d06a28,61364964df4faf6efb97ad6f,"[""period""]",0,[0.48470000000111213],72,0,72,0,1
,,,,,,,6128f7c06a0eba3378ffb1c3,,,,,,6128f7c06a0eba3378ffb1c3,Kobieta,30,2021-09-06_19h02.32.122,rantool2,2021.1.4,Win32,59.89099838,6135e006383e6ea6c3d06a28,61364964df4faf6efb97ad6f,"[""comma""]",0,[0.31259999999963384],73,0,73,0,1
,,,,,,,6128f7c06a0eba3378ffb1c3,,,,,,6128f7c06a0eba3378ffb1c3,Kobieta,30,2021-09-06_19h02.32.122,rantool2,2021.1.4,Win32,59.89099838,6135e006383e6ea6c3d06a28,61364964df4faf6efb97ad6f,"[""period""]",0,[0.35690000000033706],74,0,74,0,1
,,,,,,,6128f7c06a0eba3378ffb1c3,,,,,,6128f7c06a0eba3378ffb1c3,Kobieta,30,2021-09-06_19h02.32.122,rantool2,2021.1.4,Win32,59.89099838,6135e006383e6ea6c3d06a28,61364964df4faf6efb97ad6f,"[""comma""]",0,[0.36099999999999],75,0,75,0,1
,,,,,,,6128f7c06a0eba3378ffb1c3,,,,,,6128f7c06a0eba3378ffb1c3,Kobieta,30,2021-09-06_19h02.32.122,rantool2,2021.1.4,Win32,59.89099838,6135e006383e6ea6c3d06a28,61364964df4faf6efb97ad6f,"[""period""]",0,[0.334199999999214],76,0,76,0,1
,,,,,,,6128f7c06a0eba3378ffb1c3,,,,,,6128f7c06a0eba3378ffb1c3,Kobieta,30,2021-09-06_19h02.32.122,rantool2,2021.1.4,Win32,59.89099838,6135e006383e6ea6c3d06a28,61364964df4faf6efb97ad6f,"[""comma""]",0,[0.28270000000111395],77,0,77,0,1
,,,,,,,6128f7c06a0eba3378ffb1c3,,,,,,6128f7c06a0eba3378ffb1c3,Kobieta,30,2021-09-06_19h02.32.122,rantool2,2021.1.4,Win32,59.89099838,6135e006383e6ea6c3d06a28,61364964df4faf6efb97ad6f,"[""comma""]",0,[0.3097000000010439],78,0,78,0,1
,,,,,,,6128f7c06a0eba3378ffb1c3,,,,,,6128f7c06a0eba3378ffb1c3,Kobieta,30,2021-09-06_19h02.32.122,rantool2,2021.1.4,Win32,59.89099838,6135e006383e6ea6c3d06a28,61364964df4faf6efb97ad6f,"[""period""]",0,[0.17819999999915126],79,0,79,0,1
,,,,,,,6128f7c06a0eba3378ffb1c3,,,,,,6128f7c06a0eba3378ffb1c3,Kobieta,30,2021-09-06_19h02.32.122,rantool2,2021.1.4,Win32,59.89099838,6135e006383e6ea6c3d06a28,61364964df4faf6efb97ad6f,"[""period""]",0,[0.3429999999999609],80,0,80,0,1
,,,,,,,6128f7c06a0eba3378ffb1c3,,,,,,6128f7c06a0eba3378ffb1c3,Kobieta,30,2021-09-06_19h02.32.122,rantool2,2021.1.4,Win32,59.89099838,6135e006383e6ea6c3d06a28,61364964df4faf6efb97ad6f,"[""comma""]",0,[0.32290000000045893],81,0,81,0,1
,,,,,,,6128f7c06a0eba3378ffb1c3,,,,,,6128f7c06a0eba3378ffb1c3,Kobieta,30,2021-09-06_19h02.32.122,rantool2,2021.1.4,Win32,59.89099838,6135e006383e6ea6c3d06a28,61364964df4faf6efb97ad6f,"[""period""]",0,[0.3999000000004571],82,0,82,0,1
,,,,,,,6128f7c06a0eba3378ffb1c3,,,,,,6128f7c06a0eba3378ffb1c3,Kobieta,30,2021-09-06_19h02.32.122,rantool2,2021.1.4,Win32,59.89099838,6135e006383e6ea6c3d06a28,61364964df4faf6efb97ad6f,"[""comma""]",0,[0.28319999999928314],83,0,83,0,1
,,,,,,,6128f7c06a0eba3378ffb1c3,,,,,,6128f7c06a0eba3378ffb1c3,Kobieta,30,2021-09-06_19h02.32.122,rantool2,2021.1.4,Win32,59.89099838,6135e006383e6ea6c3d06a28,61364964df4faf6efb97ad6f,"[""period""]",0,[0.2550999999996293],84,0,84,0,1
,,,,,,,6128f7c06a0eba3378ffb1c3,,,,,,6128f7c06a0eba3378ffb1c3,Kobieta,30,2021-09-06_19h02.32.122,rantool2,2021.1.4,Win32,59.89099838,6135e006383e6ea6c3d06a28,61364964df4faf6efb97ad6f,"[""comma""]",0,[0.3165000000000191],85,0,85,0,1
,,,,,,,6128f7c06a0eba3378ffb1c3,,,,,,6128f7c06a0eba3378ffb1c3,Kobieta,30,2021-09-06_19h02.32.122,rantool2,2021.1.4,Win32,59.89099838,6135e006383e6ea6c3d06a28,61364964df4faf6efb97ad6f,"[""comma""]",0,[0.35180000000070777],86,0,86,0,1
,,,,,,,6128f7c06a0eba3378ffb1c3,,,,,,6128f7c06a0eba3378ffb1c3,Kobieta,30,2021-09-06_19h02.32.122,rantool2,2021.1.4,Win32,59.89099838,6135e006383e6ea6c3d06a28,61364964df4faf6efb97ad6f,"[""comma""]",0,[0.283900000000358],87,0,87,0,1
,,,,,,,6128f7c06a0eba3378ffb1c3,,,,,,6128f7c06a0eba3378ffb1c3,Kobieta,30,2021-09-06_19h02.32.122,rantool2,2021.1.4,Win32,59.89099838,6135e006383e6ea6c3d06a28,61364964df4faf6efb97ad6f,"[""comma""]",0,[0.3446999999991931],88,0,88,0,1
,,,,,,,6128f7c06a0eba3378ffb1c3,,,,,,6128f7c06a0eba3378ffb1c3,Kobieta,30,2021-09-06_19h02.32.122,rantool2,2021.1.4,Win32,59.89099838,6135e006383e6ea6c3d06a28,61364964df4faf6efb97ad6f,"[""period""]",0,[0.3170999999996411],89,0,89,0,1
,,,,,,,6128f7c06a0eba3378ffb1c3,,,,,,6128f7c06a0eba3378ffb1c3,Kobieta,30,2021-09-06_19h02.32.122,rantool2,2021.1.4,Win32,59.89099838,6135e006383e6ea6c3d06a28,61364964df4faf6efb97ad6f,"[""period"",""comma""]",0,"[0.24959999999964566,1.761199999999235]",90,0,90,0,1
,,,,,,,6128f7c06a0eba3378ffb1c3,,,,,,6128f7c06a0eba3378ffb1c3,Kobieta,30,2021-09-06_19h02.32.122,rantool2,2021.1.4,Win32,59.89099838,6135e006383e6ea6c3d06a28,61364964df4faf6efb97ad6f,0,0,,91,0,91,0,1
,,,,,,,6128f7c06a0eba3378ffb1c3,,,,,,6128f7c06a0eba3378ffb1c3,Kobieta,30,2021-09-06_19h02.32.122,rantool2,2021.1.4,Win32,59.89099838,6135e006383e6ea6c3d06a28,61364964df4faf6efb97ad6f,"[""comma""]",0,[0.29739999999844713],92,0,92,0,1
,,,,,,,6128f7c06a0eba3378ffb1c3,,,,,,6128f7c06a0eba3378ffb1c3,Kobieta,30,2021-09-06_19h02.32.122,rantool2,2021.1.4,Win32,59.89099838,6135e006383e6ea6c3d06a28,61364964df4faf6efb97ad6f,"[""period""]",0,[0.14139999999849806],93,0,93,0,1
,,,,,,,6128f7c06a0eba3378ffb1c3,,,,,,6128f7c06a0eba3378ffb1c3,Kobieta,30,2021-09-06_19h02.32.122,rantool2,2021.1.4,Win32,59.89099838,6135e006383e6ea6c3d06a28,61364964df4faf6efb97ad6f,"[""period""]",0,[0.2882000000010976],94,0,94,0,1
,,,,,,,6128f7c06a0eba3378ffb1c3,,,,,,6128f7c06a0eba3378ffb1c3,Kobieta,30,2021-09-06_19h02.32.122,rantool2,2021.1.4,Win32,59.89099838,6135e006383e6ea6c3d06a28,61364964df4faf6efb97ad6f,"[""comma""]",0,[0.32630000000074233],95,0,95,0,1
,,,,,,,6128f7c06a0eba3378ffb1c3,,,,,,6128f7c06a0eba3378ffb1c3,Kobieta,30,2021-09-06_19h02.32.122,rantool2,2021.1.4,Win32,59.89099838,6135e006383e6ea6c3d06a28,61364964df4faf6efb97ad6f,"[""comma""]",0,[0.4022999999988315],96,0,96,0,1
,,,,,,,6128f7c06a0eba3378ffb1c3,,,,,,6128f7c06a0eba3378ffb1c3,Kobieta,30,2021-09-06_19h02.32.122,rantool2,2021.1.4,Win32,59.89099838,6135e006383e6ea6c3d06a28,61364964df4faf6efb97ad6f,"[""comma""]",0,[0.39999999999997726],97,0,97,0,1
,,,,,,,6128f7c06a0eba3378ffb1c3,,,,,,6128f7c06a0eba3378ffb1c3,Kobieta,30,2021-09-06_19h02.32.122,rantool2,2021.1.4,Win32,59.89099838,6135e006383e6ea6c3d06a28,61364964df4faf6efb97ad6f,"[""period""]",0,[0.25929999999891606],98,0,98,0,1
,,,,,,,6128f7c06a0eba3378ffb1c3,,,,,,6128f7c06a0eba3378ffb1c3,Kobieta,30,2021-09-06_19h02.32.122,rantool2,2021.1.4,Win32,59.89099838,6135e006383e6ea6c3d06a28,61364964df4faf6efb97ad6f,"[""period""]",0,[0.27949999999998454],99,0,99,0,1
,,,,,,,6128f7c06a0eba3378ffb1c3,,,,,,6128f7c06a0eba3378ffb1c3,Kobieta,30,2021-09-06_19h02.32.122,rantool2,2021.1.4,Win32,59.89099838,6135e006383e6ea6c3d06a28,61364964df4faf6efb97ad6f,"[""period""]",0,[0.3498999999984562],100,0,100,0,1
,,,,,,,6128f7c06a0eba3378ffb1c3,,,,,,6128f7c06a0eba3378ffb1c3,Kobieta,30,2021-09-06_19h02.32.122,rantool2,2021.1.4,Win32,59.89099838,6135e006383e6ea6c3d06a28,61364964df4faf6efb97ad6f,"[""period""]",0,[0.27659999999957563],101,0,101,0,1
,,,,,,,6128f7c06a0eba3378ffb1c3,,,,,,6128f7c06a0eba3378ffb1c3,Kobieta,30,2021-09-06_19h02.32.122,rantool2,2021.1.4,Win32,59.89099838,6135e006383e6ea6c3d06a28,61364964df4faf6efb97ad6f,"[""period""]",0,[0.2419999999999618],102,0,102,0,1
,,,,,,,6128f7c06a0eba3378ffb1c3,,,,,,6128f7c06a0eba3378ffb1c3,Kobieta,30,2021-09-06_19h02.32.122,rantool2,2021.1.4,Win32,59.89099838,6135e006383e6ea6c3d06a28,61364964df4faf6efb97ad6f,"[""comma""]",0,[0.09649999999999181],103,0,103,0,1
,,,,,,,6128f7c06a0eba3378ffb1c3,,,,,,6128f7c06a0eba3378ffb1c3,Kobieta,30,2021-09-06_19h02.32.122,rantool2,2021.1.4,Win32,59.89099838,6135e006383e6ea6c3d06a28,61364964df4faf6efb97ad6f,"[""comma""]",0,[0.28449999999998],104,0,104,0,1
,,,,,,,6128f7c06a0eba3378ffb1c3,,,,,,6128f7c06a0eba3378ffb1c3,Kobieta,30,2021-09-06_19h02.32.122,rantool2,2021.1.4,Win32,59.89099838,6135e006383e6ea6c3d06a28,61364964df4faf6efb97ad6f,"[""period""]",0,[0.39280000000076143],105,0,105,0,1
,,,,,,,6128f7c06a0eba3378ffb1c3,,,,,,6128f7c06a0eba3378ffb1c3,Kobieta,30,2021-09-06_19h02.32.122,rantool2,2021.1.4,Win32,59.89099838,6135e006383e6ea6c3d06a28,61364964df4faf6efb97ad6f,"[""period""]",0,[0.38830000000075415],106,0,106,0,1
,,,,,,,6128f7c06a0eba3378ffb1c3,,,,,,6128f7c06a0eba3378ffb1c3,Kobieta,30,2021-09-06_19h02.32.122,rantool2,2021.1.4,Win32,59.89099838,6135e006383e6ea6c3d06a28,61364964df4faf6efb97ad6f,"[""comma""]",0,[0.2894000000003416],107,0,107,0,1
,,,,,,,6128f7c06a0eba3378ffb1c3,,,,,,6128f7c06a0eba3378ffb1c3,Kobieta,30,2021-09-06_19h02.32.122,rantool2,2021.1.4,Win32,59.89099838,6135e006383e6ea6c3d06a28,61364964df4faf6efb97ad6f,"[""period""]",0,[0.32539999999846714],108,0,108,0,1
,,,,,,,6128f7c06a0eba3378ffb1c3,,,,,,6128f7c06a0eba3378ffb1c3,Kobieta,30,2021-09-06_19h02.32.122,rantool2,2021.1.4,Win32,59.89099838,6135e006383e6ea6c3d06a28,61364964df4faf6efb97ad6f,"[""period""]",0,[0.35349999999994],109,0,109,0,1
,,,,,,,6128f7c06a0eba3378ffb1c3,,,,,,6128f7c06a0eba3378ffb1c3,Kobieta,30,2021-09-06_19h02.32.122,rantool2,2021.1.4,Win32,59.89099838,6135e006383e6ea6c3d06a28,61364964df4faf6efb97ad6f,"[""comma""]",0,[0.27730000000065047],110,0,110,0,1
,,,,,,,6128f7c06a0eba3378ffb1c3,,,,,,6128f7c06a0eba3378ffb1c3,Kobieta,30,2021-09-06_19h02.32.122,rantool2,2021.1.4,Win32,59.89099838,6135e006383e6ea6c3d06a28,61364964df4faf6efb97ad6f,"[""period""]",0,[0.4109000000003107],111,0,111,0,1
,,,,,,,6128f7c06a0eba3378ffb1c3,,,,,,6128f7c06a0eba3378ffb1c3,Kobieta,30,2021-09-06_19h02.32.122,rantool2,2021.1.4,Win32,59.89099838,6135e006383e6ea6c3d06a28,61364964df4faf6efb97ad6f,"[""comma""]",0,[0.5505000000000564],112,0,112,0,1
,,,,,,,6128f7c06a0eba3378ffb1c3,,,,,,6128f7c06a0eba3378ffb1c3,Kobieta,30,2021-09-06_19h02.32.122,rantool2,2021.1.4,Win32,59.89099838,6135e006383e6ea6c3d06a28,61364964df4faf6efb97ad6f,"[""period""]",0,[0.3226999999992586],113,0,113,0,1
,,,,,,,6128f7c06a0eba3378ffb1c3,,,,,,6128f7c06a0eba3378ffb1c3,Kobieta,30,2021-09-06_19h02.32.122,rantool2,2021.1.4,Win32,59.89099838,6135e006383e6ea6c3d06a28,61364964df4faf6efb97ad6f,"[""period""]",0,[0.550700000001143],114,0,114,0,1
,,,,,,,6128f7c06a0eba3378ffb1c3,,,,,,6128f7c06a0eba3378ffb1c3,Kobieta,30,2021-09-06_19h02.32.122,rantool2,2021.1.4,Win32,59.89099838,6135e006383e6ea6c3d06a28,61364964df4faf6efb97ad6f,"[""period""]",0,[0.5635999999996102],115,0,115,0,1
,,,,,,,6128f7c06a0eba3378ffb1c3,,,,,,6128f7c06a0eba3378ffb1c3,Kobieta,30,2021-09-06_19h02.32.122,rantool2,2021.1.4,Win32,59.89099838,6135e006383e6ea6c3d06a28,61364964df4faf6efb97ad6f,"[""comma""]",0,[0.3115999999996575],116,0,116,0,1
,,,,,,,6128f7c06a0eba3378ffb1c3,,,,,,6128f7c06a0eba3378ffb1c3,Kobieta,30,2021-09-06_19h02.32.122,rantool2,2021.1.4,Win32,59.89099838,6135e006383e6ea6c3d06a28,61364964df4faf6efb97ad6f,"[""comma""]",0,[0.23609999999962383],117,0,117,0,1
,,,,,,,6128f7c06a0eba3378ffb1c3,,,,,,6128f7c06a0eba3378ffb1c3,Kobieta,30,2021-09-06_19h02.32.122,rantool2,2021.1.4,Win32,59.89099838,6135e006383e6ea6c3d06a28,61364964df4faf6efb97ad6f,"[""comma""]",0,[0.2163000000007287],118,0,118,0,1
,,,,,,,6128f7c06a0eba3378ffb1c3,,,,,,6128f7c06a0eba3378ffb1c3,Kobieta,30,2021-09-06_19h02.32.122,rantool2,2021.1.4,Win32,59.89099838,6135e006383e6ea6c3d06a28,61364964df4faf6efb97ad6f,0,0,,119,0,119,0,1
