key_resp_5.keys,key_resp_5.corr,key_resp_5.rt,trials.thisRepN,trials.thisTrialN,trials.thisN,trials.thisIndex,trials.ran,id*,Płeć*,Wiek*,date,expName,psychopyVersion,OS,frameRate,id,STUDY_ID,SESSION_ID,key_resp_7.keys,key_resp_7.rt,trials_2.thisRepN,trials_2.thisTrialN,trials_2.thisN,trials_2.thisIndex,trials_2.ran,series_0,series_1,acss_0,acss_1,comparison
"[""comma""]",0,[0.7569000000059702],0,0,0,0,1,5d1dbd7cba5479001656ba2d,Kobieta,31,2021-07-13_21h52.08.461,rantool2,2021.1.4,Win32,59.85156811,5d1dbd7cba5479001656ba2d,60d9d14f4a8a35a482e0d9bf,60edeec75e9fe3d329f03d55,,,,,,,,,,,,
"[""comma""]",0,[0.3162000000029792],1,0,1,0,1,5d1dbd7cba5479001656ba2d,Kobieta,31,2021-07-13_21h52.08.461,rantool2,2021.1.4,Win32,59.85156811,5d1dbd7cba5479001656ba2d,60d9d14f4a8a35a482e0d9bf,60edeec75e9fe3d329f03d55,,,,,,,,,,,,
"[""period""]",0,[0.28790000000594773],2,0,2,0,1,5d1dbd7cba5479001656ba2d,Kobieta,31,2021-07-13_21h52.08.461,rantool2,2021.1.4,Win32,59.85156811,5d1dbd7cba5479001656ba2d,60d9d14f4a8a35a482e0d9bf,60edeec75e9fe3d329f03d55,,,,,,,,,,,,
"[""period""]",0,[0.3873999999910609],3,0,3,0,1,5d1dbd7cba5479001656ba2d,Kobieta,31,2021-07-13_21h52.08.461,rantool2,2021.1.4,Win32,59.85156811,5d1dbd7cba5479001656ba2d,60d9d14f4a8a35a482e0d9bf,60edeec75e9fe3d329f03d55,,,,,,,,,,,,
"[""comma""]",0,[0.28439999999105225],4,0,4,0,1,5d1dbd7cba5479001656ba2d,Kobieta,31,2021-07-13_21h52.08.461,rantool2,2021.1.4,Win32,59.85156811,5d1dbd7cba5479001656ba2d,60d9d14f4a8a35a482e0d9bf,60edeec75e9fe3d329f03d55,,,,,,,,,,,,
"[""period""]",0,[0.30189999999106476],5,0,5,0,1,5d1dbd7cba5479001656ba2d,Kobieta,31,2021-07-13_21h52.08.461,rantool2,2021.1.4,Win32,59.85156811,5d1dbd7cba5479001656ba2d,60d9d14f4a8a35a482e0d9bf,60edeec75e9fe3d329f03d55,,,,,,,,,,,,
"[""comma""]",0,[0.3183999999910583],6,0,6,0,1,5d1dbd7cba5479001656ba2d,Kobieta,31,2021-07-13_21h52.08.461,rantool2,2021.1.4,Win32,59.85156811,5d1dbd7cba5479001656ba2d,60d9d14f4a8a35a482e0d9bf,60edeec75e9fe3d329f03d55,,,,,,,,,,,,
"[""period""]",0,[0.3190000000000026],7,0,7,0,1,5d1dbd7cba5479001656ba2d,Kobieta,31,2021-07-13_21h52.08.461,rantool2,2021.1.4,Win32,59.85156811,5d1dbd7cba5479001656ba2d,60d9d14f4a8a35a482e0d9bf,60edeec75e9fe3d329f03d55,,,,,,,,,,,,
"[""comma""]",0,[0.321800000011919],8,0,8,0,1,5d1dbd7cba5479001656ba2d,Kobieta,31,2021-07-13_21h52.08.461,rantool2,2021.1.4,Win32,59.85156811,5d1dbd7cba5479001656ba2d,60d9d14f4a8a35a482e0d9bf,60edeec75e9fe3d329f03d55,,,,,,,,,,,,
"[""comma""]",0,[0.36789999999106726],9,0,9,0,1,5d1dbd7cba5479001656ba2d,Kobieta,31,2021-07-13_21h52.08.461,rantool2,2021.1.4,Win32,59.85156811,5d1dbd7cba5479001656ba2d,60d9d14f4a8a35a482e0d9bf,60edeec75e9fe3d329f03d55,,,,,,,,,,,,
"[""period""]",0,[0.49500000000000455],10,0,10,0,1,5d1dbd7cba5479001656ba2d,Kobieta,31,2021-07-13_21h52.08.461,rantool2,2021.1.4,Win32,59.85156811,5d1dbd7cba5479001656ba2d,60d9d14f4a8a35a482e0d9bf,60edeec75e9fe3d329f03d55,,,,,,,,,,,,
"[""comma""]",0,[0.28650000000000375],11,0,11,0,1,5d1dbd7cba5479001656ba2d,Kobieta,31,2021-07-13_21h52.08.461,rantool2,2021.1.4,Win32,59.85156811,5d1dbd7cba5479001656ba2d,60d9d14f4a8a35a482e0d9bf,60edeec75e9fe3d329f03d55,,,,,,,,,,,,
"[""period""]",0,[0.3178000000119283],12,0,12,0,1,5d1dbd7cba5479001656ba2d,Kobieta,31,2021-07-13_21h52.08.461,rantool2,2021.1.4,Win32,59.85156811,5d1dbd7cba5479001656ba2d,60d9d14f4a8a35a482e0d9bf,60edeec75e9fe3d329f03d55,,,,,,,,,,,,
"[""period""]",0,[0.28390000000595705],13,0,13,0,1,5d1dbd7cba5479001656ba2d,Kobieta,31,2021-07-13_21h52.08.461,rantool2,2021.1.4,Win32,59.85156811,5d1dbd7cba5479001656ba2d,60d9d14f4a8a35a482e0d9bf,60edeec75e9fe3d329f03d55,,,,,,,,,,,,
"[""comma""]",0,[0.2620999999940352],14,0,14,0,1,5d1dbd7cba5479001656ba2d,Kobieta,31,2021-07-13_21h52.08.461,rantool2,2021.1.4,Win32,59.85156811,5d1dbd7cba5479001656ba2d,60d9d14f4a8a35a482e0d9bf,60edeec75e9fe3d329f03d55,,,,,,,,,,,,
"[""comma""]",0,[0.28629999999702704],15,0,15,0,1,5d1dbd7cba5479001656ba2d,Kobieta,31,2021-07-13_21h52.08.461,rantool2,2021.1.4,Win32,59.85156811,5d1dbd7cba5479001656ba2d,60d9d14f4a8a35a482e0d9bf,60edeec75e9fe3d329f03d55,,,,,,,,,,,,
"[""period""]",0,[0.2896000000089316],16,0,16,0,1,5d1dbd7cba5479001656ba2d,Kobieta,31,2021-07-13_21h52.08.461,rantool2,2021.1.4,Win32,59.85156811,5d1dbd7cba5479001656ba2d,60d9d14f4a8a35a482e0d9bf,60edeec75e9fe3d329f03d55,,,,,,,,,,,,
"[""period""]",0,[0.2952000000029784],17,0,17,0,1,5d1dbd7cba5479001656ba2d,Kobieta,31,2021-07-13_21h52.08.461,rantool2,2021.1.4,Win32,59.85156811,5d1dbd7cba5479001656ba2d,60d9d14f4a8a35a482e0d9bf,60edeec75e9fe3d329f03d55,,,,,,,,,,,,
"[""period""]",0,[0.2987000000029809],18,0,18,0,1,5d1dbd7cba5479001656ba2d,Kobieta,31,2021-07-13_21h52.08.461,rantool2,2021.1.4,Win32,59.85156811,5d1dbd7cba5479001656ba2d,60d9d14f4a8a35a482e0d9bf,60edeec75e9fe3d329f03d55,,,,,,,,,,,,
"[""comma""]",0,[0.35229999999702954],19,0,19,0,1,5d1dbd7cba5479001656ba2d,Kobieta,31,2021-07-13_21h52.08.461,rantool2,2021.1.4,Win32,59.85156811,5d1dbd7cba5479001656ba2d,60d9d14f4a8a35a482e0d9bf,60edeec75e9fe3d329f03d55,,,,,,,,,,,,
"[""period""]",0,[0.3557000000029973],20,0,20,0,1,5d1dbd7cba5479001656ba2d,Kobieta,31,2021-07-13_21h52.08.461,rantool2,2021.1.4,Win32,59.85156811,5d1dbd7cba5479001656ba2d,60d9d14f4a8a35a482e0d9bf,60edeec75e9fe3d329f03d55,,,,,,,,,,,,
"[""comma"",""period""]",0,"[0.28859999999403385,1.8879000000059705]",21,0,21,0,1,5d1dbd7cba5479001656ba2d,Kobieta,31,2021-07-13_21h52.08.461,rantool2,2021.1.4,Win32,59.85156811,5d1dbd7cba5479001656ba2d,60d9d14f4a8a35a482e0d9bf,60edeec75e9fe3d329f03d55,,,,,,,,,,,,
0,0,,22,0,22,0,1,5d1dbd7cba5479001656ba2d,Kobieta,31,2021-07-13_21h52.08.461,rantool2,2021.1.4,Win32,59.85156811,5d1dbd7cba5479001656ba2d,60d9d14f4a8a35a482e0d9bf,60edeec75e9fe3d329f03d55,,,,,,,,,,,,
"[""comma""]",0,[0.3015999999940391],23,0,23,0,1,5d1dbd7cba5479001656ba2d,Kobieta,31,2021-07-13_21h52.08.461,rantool2,2021.1.4,Win32,59.85156811,5d1dbd7cba5479001656ba2d,60d9d14f4a8a35a482e0d9bf,60edeec75e9fe3d329f03d55,,,,,,,,,,,,
"[""comma""]",0,[0.317100000008935],24,0,24,0,1,5d1dbd7cba5479001656ba2d,Kobieta,31,2021-07-13_21h52.08.461,rantool2,2021.1.4,Win32,59.85156811,5d1dbd7cba5479001656ba2d,60d9d14f4a8a35a482e0d9bf,60edeec75e9fe3d329f03d55,,,,,,,,,,,,
"[""comma""]",0,[0.3014999999999759],25,0,25,0,1,5d1dbd7cba5479001656ba2d,Kobieta,31,2021-07-13_21h52.08.461,rantool2,2021.1.4,Win32,59.85156811,5d1dbd7cba5479001656ba2d,60d9d14f4a8a35a482e0d9bf,60edeec75e9fe3d329f03d55,,,,,,,,,,,,
"[""period""]",0,[0.3593000000118991],26,0,26,0,1,5d1dbd7cba5479001656ba2d,Kobieta,31,2021-07-13_21h52.08.461,rantool2,2021.1.4,Win32,59.85156811,5d1dbd7cba5479001656ba2d,60d9d14f4a8a35a482e0d9bf,60edeec75e9fe3d329f03d55,,,,,,,,,,,,
"[""comma""]",0,[0.2858999999910452],27,0,27,0,1,5d1dbd7cba5479001656ba2d,Kobieta,31,2021-07-13_21h52.08.461,rantool2,2021.1.4,Win32,59.85156811,5d1dbd7cba5479001656ba2d,60d9d14f4a8a35a482e0d9bf,60edeec75e9fe3d329f03d55,,,,,,,,,,,,
"[""comma""]",0,[0.2855999999940195],28,0,28,0,1,5d1dbd7cba5479001656ba2d,Kobieta,31,2021-07-13_21h52.08.461,rantool2,2021.1.4,Win32,59.85156811,5d1dbd7cba5479001656ba2d,60d9d14f4a8a35a482e0d9bf,60edeec75e9fe3d329f03d55,,,,,,,,,,,,
"[""period""]",0,[0.35350000000002524],29,0,29,0,1,5d1dbd7cba5479001656ba2d,Kobieta,31,2021-07-13_21h52.08.461,rantool2,2021.1.4,Win32,59.85156811,5d1dbd7cba5479001656ba2d,60d9d14f4a8a35a482e0d9bf,60edeec75e9fe3d329f03d55,,,,,,,,,,,,
"[""comma""]",0,[0.33709999999402385],30,0,30,0,1,5d1dbd7cba5479001656ba2d,Kobieta,31,2021-07-13_21h52.08.461,rantool2,2021.1.4,Win32,59.85156811,5d1dbd7cba5479001656ba2d,60d9d14f4a8a35a482e0d9bf,60edeec75e9fe3d329f03d55,,,,,,,,,,,,
"[""period""]",0,[0.33549999999999613],31,0,31,0,1,5d1dbd7cba5479001656ba2d,Kobieta,31,2021-07-13_21h52.08.461,rantool2,2021.1.4,Win32,59.85156811,5d1dbd7cba5479001656ba2d,60d9d14f4a8a35a482e0d9bf,60edeec75e9fe3d329f03d55,,,,,,,,,,,,
"[""comma""]",0,[0.3057999999970207],32,0,32,0,1,5d1dbd7cba5479001656ba2d,Kobieta,31,2021-07-13_21h52.08.461,rantool2,2021.1.4,Win32,59.85156811,5d1dbd7cba5479001656ba2d,60d9d14f4a8a35a482e0d9bf,60edeec75e9fe3d329f03d55,,,,,,,,,,,,
"[""period""]",0,[0.32990000000597774],33,0,33,0,1,5d1dbd7cba5479001656ba2d,Kobieta,31,2021-07-13_21h52.08.461,rantool2,2021.1.4,Win32,59.85156811,5d1dbd7cba5479001656ba2d,60d9d14f4a8a35a482e0d9bf,60edeec75e9fe3d329f03d55,,,,,,,,,,,,
"[""period""]",0,[0.293899999991055],34,0,34,0,1,5d1dbd7cba5479001656ba2d,Kobieta,31,2021-07-13_21h52.08.461,rantool2,2021.1.4,Win32,59.85156811,5d1dbd7cba5479001656ba2d,60d9d14f4a8a35a482e0d9bf,60edeec75e9fe3d329f03d55,,,,,,,,,,,,
"[""comma""]",0,[0.27020000000297273],35,0,35,0,1,5d1dbd7cba5479001656ba2d,Kobieta,31,2021-07-13_21h52.08.461,rantool2,2021.1.4,Win32,59.85156811,5d1dbd7cba5479001656ba2d,60d9d14f4a8a35a482e0d9bf,60edeec75e9fe3d329f03d55,,,,,,,,,,,,
"[""period""]",0,[0.15770000000298978],36,0,36,0,1,5d1dbd7cba5479001656ba2d,Kobieta,31,2021-07-13_21h52.08.461,rantool2,2021.1.4,Win32,59.85156811,5d1dbd7cba5479001656ba2d,60d9d14f4a8a35a482e0d9bf,60edeec75e9fe3d329f03d55,,,,,,,,,,,,
"[""comma""]",0,[0.32990000000597774],37,0,37,0,1,5d1dbd7cba5479001656ba2d,Kobieta,31,2021-07-13_21h52.08.461,rantool2,2021.1.4,Win32,59.85156811,5d1dbd7cba5479001656ba2d,60d9d14f4a8a35a482e0d9bf,60edeec75e9fe3d329f03d55,,,,,,,,,,,,
"[""period""]",0,[0.35380000001191547],38,0,38,0,1,5d1dbd7cba5479001656ba2d,Kobieta,31,2021-07-13_21h52.08.461,rantool2,2021.1.4,Win32,59.85156811,5d1dbd7cba5479001656ba2d,60d9d14f4a8a35a482e0d9bf,60edeec75e9fe3d329f03d55,,,,,,,,,,,,
"[""period""]",0,[0.36909999999403453],39,0,39,0,1,5d1dbd7cba5479001656ba2d,Kobieta,31,2021-07-13_21h52.08.461,rantool2,2021.1.4,Win32,59.85156811,5d1dbd7cba5479001656ba2d,60d9d14f4a8a35a482e0d9bf,60edeec75e9fe3d329f03d55,,,,,,,,,,,,
"[""comma""]",0,[0.31540000000595114],40,0,40,0,1,5d1dbd7cba5479001656ba2d,Kobieta,31,2021-07-13_21h52.08.461,rantool2,2021.1.4,Win32,59.85156811,5d1dbd7cba5479001656ba2d,60d9d14f4a8a35a482e0d9bf,60edeec75e9fe3d329f03d55,,,,,,,,,,,,
"[""comma""]",0,[0.2696000000089498],41,0,41,0,1,5d1dbd7cba5479001656ba2d,Kobieta,31,2021-07-13_21h52.08.461,rantool2,2021.1.4,Win32,59.85156811,5d1dbd7cba5479001656ba2d,60d9d14f4a8a35a482e0d9bf,60edeec75e9fe3d329f03d55,,,,,,,,,,,,
"[""period""]",0,[0.31660000000894684],42,0,42,0,1,5d1dbd7cba5479001656ba2d,Kobieta,31,2021-07-13_21h52.08.461,rantool2,2021.1.4,Win32,59.85156811,5d1dbd7cba5479001656ba2d,60d9d14f4a8a35a482e0d9bf,60edeec75e9fe3d329f03d55,,,,,,,,,,,,
"[""period""]",0,[0.31779999999702113],43,0,43,0,1,5d1dbd7cba5479001656ba2d,Kobieta,31,2021-07-13_21h52.08.461,rantool2,2021.1.4,Win32,59.85156811,5d1dbd7cba5479001656ba2d,60d9d14f4a8a35a482e0d9bf,60edeec75e9fe3d329f03d55,,,,,,,,,,,,
"[""comma""]",0,[0.30209999999402726],44,0,44,0,1,5d1dbd7cba5479001656ba2d,Kobieta,31,2021-07-13_21h52.08.461,rantool2,2021.1.4,Win32,59.85156811,5d1dbd7cba5479001656ba2d,60d9d14f4a8a35a482e0d9bf,60edeec75e9fe3d329f03d55,,,,,,,,,,,,
"[""comma""]",0,[0.2882999999970366],45,0,45,0,1,5d1dbd7cba5479001656ba2d,Kobieta,31,2021-07-13_21h52.08.461,rantool2,2021.1.4,Win32,59.85156811,5d1dbd7cba5479001656ba2d,60d9d14f4a8a35a482e0d9bf,60edeec75e9fe3d329f03d55,,,,,,,,,,,,
"[""period""]",0,[0.28600000000000136],46,0,46,0,1,5d1dbd7cba5479001656ba2d,Kobieta,31,2021-07-13_21h52.08.461,rantool2,2021.1.4,Win32,59.85156811,5d1dbd7cba5479001656ba2d,60d9d14f4a8a35a482e0d9bf,60edeec75e9fe3d329f03d55,,,,,,,,,,,,
"[""comma""]",0,[0.11790000000596024],47,0,47,0,1,5d1dbd7cba5479001656ba2d,Kobieta,31,2021-07-13_21h52.08.461,rantool2,2021.1.4,Win32,59.85156811,5d1dbd7cba5479001656ba2d,60d9d14f4a8a35a482e0d9bf,60edeec75e9fe3d329f03d55,,,,,,,,,,,,
"[""period""]",0,[0.34380000001192457],48,0,48,0,1,5d1dbd7cba5479001656ba2d,Kobieta,31,2021-07-13_21h52.08.461,rantool2,2021.1.4,Win32,59.85156811,5d1dbd7cba5479001656ba2d,60d9d14f4a8a35a482e0d9bf,60edeec75e9fe3d329f03d55,,,,,,,,,,,,
"[""period""]",0,[0.3028999999910411],49,0,49,0,1,5d1dbd7cba5479001656ba2d,Kobieta,31,2021-07-13_21h52.08.461,rantool2,2021.1.4,Win32,59.85156811,5d1dbd7cba5479001656ba2d,60d9d14f4a8a35a482e0d9bf,60edeec75e9fe3d329f03d55,,,,,,,,,,,,
"[""period""]",0,[0.35129999999702477],50,0,50,0,1,5d1dbd7cba5479001656ba2d,Kobieta,31,2021-07-13_21h52.08.461,rantool2,2021.1.4,Win32,59.85156811,5d1dbd7cba5479001656ba2d,60d9d14f4a8a35a482e0d9bf,60edeec75e9fe3d329f03d55,,,,,,,,,,,,
"[""comma""]",0,[0.31839999999104407],51,0,51,0,1,5d1dbd7cba5479001656ba2d,Kobieta,31,2021-07-13_21h52.08.461,rantool2,2021.1.4,Win32,59.85156811,5d1dbd7cba5479001656ba2d,60d9d14f4a8a35a482e0d9bf,60edeec75e9fe3d329f03d55,,,,,,,,,,,,
"[""period""]",0,[0.2845999999940432],52,0,52,0,1,5d1dbd7cba5479001656ba2d,Kobieta,31,2021-07-13_21h52.08.461,rantool2,2021.1.4,Win32,59.85156811,5d1dbd7cba5479001656ba2d,60d9d14f4a8a35a482e0d9bf,60edeec75e9fe3d329f03d55,,,,,,,,,,,,
"[""period""]",0,[0.28789999999105476],53,0,53,0,1,5d1dbd7cba5479001656ba2d,Kobieta,31,2021-07-13_21h52.08.461,rantool2,2021.1.4,Win32,59.85156811,5d1dbd7cba5479001656ba2d,60d9d14f4a8a35a482e0d9bf,60edeec75e9fe3d329f03d55,,,,,,,,,,,,
"[""comma""]",0,[0.28479999999700567],54,0,54,0,1,5d1dbd7cba5479001656ba2d,Kobieta,31,2021-07-13_21h52.08.461,rantool2,2021.1.4,Win32,59.85156811,5d1dbd7cba5479001656ba2d,60d9d14f4a8a35a482e0d9bf,60edeec75e9fe3d329f03d55,,,,,,,,,,,,
"[""comma""]",0,[0.3360999999940475],55,0,55,0,1,5d1dbd7cba5479001656ba2d,Kobieta,31,2021-07-13_21h52.08.461,rantool2,2021.1.4,Win32,59.85156811,5d1dbd7cba5479001656ba2d,60d9d14f4a8a35a482e0d9bf,60edeec75e9fe3d329f03d55,,,,,,,,,,,,
"[""comma""]",0,[0.28420000000298273],56,0,56,0,1,5d1dbd7cba5479001656ba2d,Kobieta,31,2021-07-13_21h52.08.461,rantool2,2021.1.4,Win32,59.85156811,5d1dbd7cba5479001656ba2d,60d9d14f4a8a35a482e0d9bf,60edeec75e9fe3d329f03d55,,,,,,,,,,,,
"[""period""]",0,[0.26730000001191456],57,0,57,0,1,5d1dbd7cba5479001656ba2d,Kobieta,31,2021-07-13_21h52.08.461,rantool2,2021.1.4,Win32,59.85156811,5d1dbd7cba5479001656ba2d,60d9d14f4a8a35a482e0d9bf,60edeec75e9fe3d329f03d55,,,,,,,,,,,,
"[""period""]",0,[0.2992000000029691],58,0,58,0,1,5d1dbd7cba5479001656ba2d,Kobieta,31,2021-07-13_21h52.08.461,rantool2,2021.1.4,Win32,59.85156811,5d1dbd7cba5479001656ba2d,60d9d14f4a8a35a482e0d9bf,60edeec75e9fe3d329f03d55,,,,,,,,,,,,
"[""period""]",0,[0.35139999999105953],59,0,59,0,1,5d1dbd7cba5479001656ba2d,Kobieta,31,2021-07-13_21h52.08.461,rantool2,2021.1.4,Win32,59.85156811,5d1dbd7cba5479001656ba2d,60d9d14f4a8a35a482e0d9bf,60edeec75e9fe3d329f03d55,,,,,,,,,,,,
"[""comma""]",0,[0.35380000001191547],60,0,60,0,1,5d1dbd7cba5479001656ba2d,Kobieta,31,2021-07-13_21h52.08.461,rantool2,2021.1.4,Win32,59.85156811,5d1dbd7cba5479001656ba2d,60d9d14f4a8a35a482e0d9bf,60edeec75e9fe3d329f03d55,,,,,,,,,,,,
"[""period""]",0,[0.3686999999880811],61,0,61,0,1,5d1dbd7cba5479001656ba2d,Kobieta,31,2021-07-13_21h52.08.461,rantool2,2021.1.4,Win32,59.85156811,5d1dbd7cba5479001656ba2d,60d9d14f4a8a35a482e0d9bf,60edeec75e9fe3d329f03d55,,,,,,,,,,,,
"[""comma""]",0,[0.3025000000000091],62,0,62,0,1,5d1dbd7cba5479001656ba2d,Kobieta,31,2021-07-13_21h52.08.461,rantool2,2021.1.4,Win32,59.85156811,5d1dbd7cba5479001656ba2d,60d9d14f4a8a35a482e0d9bf,60edeec75e9fe3d329f03d55,,,,,,,,,,,,
"[""comma""]",0,[0.2832999999970127],63,0,63,0,1,5d1dbd7cba5479001656ba2d,Kobieta,31,2021-07-13_21h52.08.461,rantool2,2021.1.4,Win32,59.85156811,5d1dbd7cba5479001656ba2d,60d9d14f4a8a35a482e0d9bf,60edeec75e9fe3d329f03d55,,,,,,,,,,,,
"[""period""]",0,[0.38400000000001455],64,0,64,0,1,5d1dbd7cba5479001656ba2d,Kobieta,31,2021-07-13_21h52.08.461,rantool2,2021.1.4,Win32,59.85156811,5d1dbd7cba5479001656ba2d,60d9d14f4a8a35a482e0d9bf,60edeec75e9fe3d329f03d55,,,,,,,,,,,,
"[""period""]",0,[0.3345999999940261],65,0,65,0,1,5d1dbd7cba5479001656ba2d,Kobieta,31,2021-07-13_21h52.08.461,rantool2,2021.1.4,Win32,59.85156811,5d1dbd7cba5479001656ba2d,60d9d14f4a8a35a482e0d9bf,60edeec75e9fe3d329f03d55,,,,,,,,,,,,
"[""period""]",0,[0.31790000000594887],66,0,66,0,1,5d1dbd7cba5479001656ba2d,Kobieta,31,2021-07-13_21h52.08.461,rantool2,2021.1.4,Win32,59.85156811,5d1dbd7cba5479001656ba2d,60d9d14f4a8a35a482e0d9bf,60edeec75e9fe3d329f03d55,,,,,,,,,,,,
"[""comma""]",0,[0.3007999999970252],67,0,67,0,1,5d1dbd7cba5479001656ba2d,Kobieta,31,2021-07-13_21h52.08.461,rantool2,2021.1.4,Win32,59.85156811,5d1dbd7cba5479001656ba2d,60d9d14f4a8a35a482e0d9bf,60edeec75e9fe3d329f03d55,,,,,,,,,,,,
"[""period""]",0,[0.26060000000893524],68,0,68,0,1,5d1dbd7cba5479001656ba2d,Kobieta,31,2021-07-13_21h52.08.461,rantool2,2021.1.4,Win32,59.85156811,5d1dbd7cba5479001656ba2d,60d9d14f4a8a35a482e0d9bf,60edeec75e9fe3d329f03d55,,,,,,,,,,,,
"[""comma""]",0,[0.11809999999402976],69,0,69,0,1,5d1dbd7cba5479001656ba2d,Kobieta,31,2021-07-13_21h52.08.461,rantool2,2021.1.4,Win32,59.85156811,5d1dbd7cba5479001656ba2d,60d9d14f4a8a35a482e0d9bf,60edeec75e9fe3d329f03d55,,,,,,,,,,,,
"[""period""]",0,[0.3554000000059432],70,0,70,0,1,5d1dbd7cba5479001656ba2d,Kobieta,31,2021-07-13_21h52.08.461,rantool2,2021.1.4,Win32,59.85156811,5d1dbd7cba5479001656ba2d,60d9d14f4a8a35a482e0d9bf,60edeec75e9fe3d329f03d55,,,,,,,,,,,,
"[""period""]",0,[0.30400000000000205],71,0,71,0,1,5d1dbd7cba5479001656ba2d,Kobieta,31,2021-07-13_21h52.08.461,rantool2,2021.1.4,Win32,59.85156811,5d1dbd7cba5479001656ba2d,60d9d14f4a8a35a482e0d9bf,60edeec75e9fe3d329f03d55,,,,,,,,,,,,
"[""comma""]",0,[0.25219999998807907],72,0,72,0,1,5d1dbd7cba5479001656ba2d,Kobieta,31,2021-07-13_21h52.08.461,rantool2,2021.1.4,Win32,59.85156811,5d1dbd7cba5479001656ba2d,60d9d14f4a8a35a482e0d9bf,60edeec75e9fe3d329f03d55,,,,,,,,,,,,
"[""period""]",0,[0.1980000000000075],73,0,73,0,1,5d1dbd7cba5479001656ba2d,Kobieta,31,2021-07-13_21h52.08.461,rantool2,2021.1.4,Win32,59.85156811,5d1dbd7cba5479001656ba2d,60d9d14f4a8a35a482e0d9bf,60edeec75e9fe3d329f03d55,,,,,,,,,,,,
"[""period""]",0,[0.33399999999997476],74,0,74,0,1,5d1dbd7cba5479001656ba2d,Kobieta,31,2021-07-13_21h52.08.461,rantool2,2021.1.4,Win32,59.85156811,5d1dbd7cba5479001656ba2d,60d9d14f4a8a35a482e0d9bf,60edeec75e9fe3d329f03d55,,,,,,,,,,,,
"[""comma""]",0,[0.31090000000594387],75,0,75,0,1,5d1dbd7cba5479001656ba2d,Kobieta,31,2021-07-13_21h52.08.461,rantool2,2021.1.4,Win32,59.85156811,5d1dbd7cba5479001656ba2d,60d9d14f4a8a35a482e0d9bf,60edeec75e9fe3d329f03d55,,,,,,,,,,,,
"[""period""]",0,[0.351599999994022],76,0,76,0,1,5d1dbd7cba5479001656ba2d,Kobieta,31,2021-07-13_21h52.08.461,rantool2,2021.1.4,Win32,59.85156811,5d1dbd7cba5479001656ba2d,60d9d14f4a8a35a482e0d9bf,60edeec75e9fe3d329f03d55,,,,,,,,,,,,
"[""comma""]",0,[0.3184999999999718],77,0,77,0,1,5d1dbd7cba5479001656ba2d,Kobieta,31,2021-07-13_21h52.08.461,rantool2,2021.1.4,Win32,59.85156811,5d1dbd7cba5479001656ba2d,60d9d14f4a8a35a482e0d9bf,60edeec75e9fe3d329f03d55,,,,,,,,,,,,
"[""comma""]",0,[0.3520000000000323],78,0,78,0,1,5d1dbd7cba5479001656ba2d,Kobieta,31,2021-07-13_21h52.08.461,rantool2,2021.1.4,Win32,59.85156811,5d1dbd7cba5479001656ba2d,60d9d14f4a8a35a482e0d9bf,60edeec75e9fe3d329f03d55,,,,,,,,,,,,
"[""comma""]",0,[0.3367000000029634],79,0,79,0,1,5d1dbd7cba5479001656ba2d,Kobieta,31,2021-07-13_21h52.08.461,rantool2,2021.1.4,Win32,59.85156811,5d1dbd7cba5479001656ba2d,60d9d14f4a8a35a482e0d9bf,60edeec75e9fe3d329f03d55,,,,,,,,,,,,
"[""period""]",0,[0.35169999998811363],80,0,80,0,1,5d1dbd7cba5479001656ba2d,Kobieta,31,2021-07-13_21h52.08.461,rantool2,2021.1.4,Win32,59.85156811,5d1dbd7cba5479001656ba2d,60d9d14f4a8a35a482e0d9bf,60edeec75e9fe3d329f03d55,,,,,,,,,,,,
"[""comma""]",0,[0.2855999999940195],81,0,81,0,1,5d1dbd7cba5479001656ba2d,Kobieta,31,2021-07-13_21h52.08.461,rantool2,2021.1.4,Win32,59.85156811,5d1dbd7cba5479001656ba2d,60d9d14f4a8a35a482e0d9bf,60edeec75e9fe3d329f03d55,,,,,,,,,,,,
"[""period""]",0,[0.2987999999970157],82,0,82,0,1,5d1dbd7cba5479001656ba2d,Kobieta,31,2021-07-13_21h52.08.461,rantool2,2021.1.4,Win32,59.85156811,5d1dbd7cba5479001656ba2d,60d9d14f4a8a35a482e0d9bf,60edeec75e9fe3d329f03d55,,,,,,,,,,,,
"[""period""]",0,[0.25130000001195185],83,0,83,0,1,5d1dbd7cba5479001656ba2d,Kobieta,31,2021-07-13_21h52.08.461,rantool2,2021.1.4,Win32,59.85156811,5d1dbd7cba5479001656ba2d,60d9d14f4a8a35a482e0d9bf,60edeec75e9fe3d329f03d55,,,,,,,,,,,,
"[""comma""]",0,[0.30379999999706797],84,0,84,0,1,5d1dbd7cba5479001656ba2d,Kobieta,31,2021-07-13_21h52.08.461,rantool2,2021.1.4,Win32,59.85156811,5d1dbd7cba5479001656ba2d,60d9d14f4a8a35a482e0d9bf,60edeec75e9fe3d329f03d55,,,,,,,,,,,,
"[""comma""]",0,[0.23589999999103384],85,0,85,0,1,5d1dbd7cba5479001656ba2d,Kobieta,31,2021-07-13_21h52.08.461,rantool2,2021.1.4,Win32,59.85156811,5d1dbd7cba5479001656ba2d,60d9d14f4a8a35a482e0d9bf,60edeec75e9fe3d329f03d55,,,,,,,,,,,,
"[""period""]",0,[0.26509999999404954],86,0,86,0,1,5d1dbd7cba5479001656ba2d,Kobieta,31,2021-07-13_21h52.08.461,rantool2,2021.1.4,Win32,59.85156811,5d1dbd7cba5479001656ba2d,60d9d14f4a8a35a482e0d9bf,60edeec75e9fe3d329f03d55,,,,,,,,,,,,
"[""comma""]",0,[0.23639999999107886],87,0,87,0,1,5d1dbd7cba5479001656ba2d,Kobieta,31,2021-07-13_21h52.08.461,rantool2,2021.1.4,Win32,59.85156811,5d1dbd7cba5479001656ba2d,60d9d14f4a8a35a482e0d9bf,60edeec75e9fe3d329f03d55,,,,,,,,,,,,
"[""period""]",0,[0.3509999999999991],88,0,88,0,1,5d1dbd7cba5479001656ba2d,Kobieta,31,2021-07-13_21h52.08.461,rantool2,2021.1.4,Win32,59.85156811,5d1dbd7cba5479001656ba2d,60d9d14f4a8a35a482e0d9bf,60edeec75e9fe3d329f03d55,,,,,,,,,,,,
"[""period""]",0,[0.3342000000029657],89,0,89,0,1,5d1dbd7cba5479001656ba2d,Kobieta,31,2021-07-13_21h52.08.461,rantool2,2021.1.4,Win32,59.85156811,5d1dbd7cba5479001656ba2d,60d9d14f4a8a35a482e0d9bf,60edeec75e9fe3d329f03d55,,,,,,,,,,,,
"[""comma""]",0,[0.3698000000118782],90,0,90,0,1,5d1dbd7cba5479001656ba2d,Kobieta,31,2021-07-13_21h52.08.461,rantool2,2021.1.4,Win32,59.85156811,5d1dbd7cba5479001656ba2d,60d9d14f4a8a35a482e0d9bf,60edeec75e9fe3d329f03d55,,,,,,,,,,,,
"[""period""]",0,[0.33570000000298705],91,0,91,0,1,5d1dbd7cba5479001656ba2d,Kobieta,31,2021-07-13_21h52.08.461,rantool2,2021.1.4,Win32,59.85156811,5d1dbd7cba5479001656ba2d,60d9d14f4a8a35a482e0d9bf,60edeec75e9fe3d329f03d55,,,,,,,,,,,,
"[""period""]",0,[0.3985999999940759],92,0,92,0,1,5d1dbd7cba5479001656ba2d,Kobieta,31,2021-07-13_21h52.08.461,rantool2,2021.1.4,Win32,59.85156811,5d1dbd7cba5479001656ba2d,60d9d14f4a8a35a482e0d9bf,60edeec75e9fe3d329f03d55,,,,,,,,,,,,
"[""comma""]",0,[0.36860000000893933],93,0,93,0,1,5d1dbd7cba5479001656ba2d,Kobieta,31,2021-07-13_21h52.08.461,rantool2,2021.1.4,Win32,59.85156811,5d1dbd7cba5479001656ba2d,60d9d14f4a8a35a482e0d9bf,60edeec75e9fe3d329f03d55,,,,,,,,,,,,
"[""comma""]",0,[0.37089999999102474],94,0,94,0,1,5d1dbd7cba5479001656ba2d,Kobieta,31,2021-07-13_21h52.08.461,rantool2,2021.1.4,Win32,59.85156811,5d1dbd7cba5479001656ba2d,60d9d14f4a8a35a482e0d9bf,60edeec75e9fe3d329f03d55,,,,,,,,,,,,
"[""period""]",0,[0.36860000000893933],95,0,95,0,1,5d1dbd7cba5479001656ba2d,Kobieta,31,2021-07-13_21h52.08.461,rantool2,2021.1.4,Win32,59.85156811,5d1dbd7cba5479001656ba2d,60d9d14f4a8a35a482e0d9bf,60edeec75e9fe3d329f03d55,,,,,,,,,,,,
"[""comma""]",0,[0.2850999999940882],96,0,96,0,1,5d1dbd7cba5479001656ba2d,Kobieta,31,2021-07-13_21h52.08.461,rantool2,2021.1.4,Win32,59.85156811,5d1dbd7cba5479001656ba2d,60d9d14f4a8a35a482e0d9bf,60edeec75e9fe3d329f03d55,,,,,,,,,,,,
"[""period""]",0,[0.33179999999703114],97,0,97,0,1,5d1dbd7cba5479001656ba2d,Kobieta,31,2021-07-13_21h52.08.461,rantool2,2021.1.4,Win32,59.85156811,5d1dbd7cba5479001656ba2d,60d9d14f4a8a35a482e0d9bf,60edeec75e9fe3d329f03d55,,,,,,,,,,,,
"[""comma"",""period""]",0,"[0.2805999999940241,1.9197999999969966]",98,0,98,0,1,5d1dbd7cba5479001656ba2d,Kobieta,31,2021-07-13_21h52.08.461,rantool2,2021.1.4,Win32,59.85156811,5d1dbd7cba5479001656ba2d,60d9d14f4a8a35a482e0d9bf,60edeec75e9fe3d329f03d55,,,,,,,,,,,,
0,0,,99,0,99,0,1,5d1dbd7cba5479001656ba2d,Kobieta,31,2021-07-13_21h52.08.461,rantool2,2021.1.4,Win32,59.85156811,5d1dbd7cba5479001656ba2d,60d9d14f4a8a35a482e0d9bf,60edeec75e9fe3d329f03d55,,,,,,,,,,,,
"[""comma""]",0,[0.3183000000119591],100,0,100,0,1,5d1dbd7cba5479001656ba2d,Kobieta,31,2021-07-13_21h52.08.461,rantool2,2021.1.4,Win32,59.85156811,5d1dbd7cba5479001656ba2d,60d9d14f4a8a35a482e0d9bf,60edeec75e9fe3d329f03d55,,,,,,,,,,,,
"[""comma""]",0,[0.28499999999996817],101,0,101,0,1,5d1dbd7cba5479001656ba2d,Kobieta,31,2021-07-13_21h52.08.461,rantool2,2021.1.4,Win32,59.85156811,5d1dbd7cba5479001656ba2d,60d9d14f4a8a35a482e0d9bf,60edeec75e9fe3d329f03d55,,,,,,,,,,,,
"[""period""]",0,[0.3013999999910766],102,0,102,0,1,5d1dbd7cba5479001656ba2d,Kobieta,31,2021-07-13_21h52.08.461,rantool2,2021.1.4,Win32,59.85156811,5d1dbd7cba5479001656ba2d,60d9d14f4a8a35a482e0d9bf,60edeec75e9fe3d329f03d55,,,,,,,,,,,,
"[""period""]",0,[0.33499999999997954],103,0,103,0,1,5d1dbd7cba5479001656ba2d,Kobieta,31,2021-07-13_21h52.08.461,rantool2,2021.1.4,Win32,59.85156811,5d1dbd7cba5479001656ba2d,60d9d14f4a8a35a482e0d9bf,60edeec75e9fe3d329f03d55,,,,,,,,,,,,
"[""comma""]",0,[0.31779999999702113],104,0,104,0,1,5d1dbd7cba5479001656ba2d,Kobieta,31,2021-07-13_21h52.08.461,rantool2,2021.1.4,Win32,59.85156811,5d1dbd7cba5479001656ba2d,60d9d14f4a8a35a482e0d9bf,60edeec75e9fe3d329f03d55,,,,,,,,,,,,
"[""period""]",0,[0.28549999999995634],105,0,105,0,1,5d1dbd7cba5479001656ba2d,Kobieta,31,2021-07-13_21h52.08.461,rantool2,2021.1.4,Win32,59.85156811,5d1dbd7cba5479001656ba2d,60d9d14f4a8a35a482e0d9bf,60edeec75e9fe3d329f03d55,,,,,,,,,,,,
"[""period""]",0,[0.3850999999940541],106,0,106,0,1,5d1dbd7cba5479001656ba2d,Kobieta,31,2021-07-13_21h52.08.461,rantool2,2021.1.4,Win32,59.85156811,5d1dbd7cba5479001656ba2d,60d9d14f4a8a35a482e0d9bf,60edeec75e9fe3d329f03d55,,,,,,,,,,,,
"[""comma""]",0,[0.3190000000000168],107,0,107,0,1,5d1dbd7cba5479001656ba2d,Kobieta,31,2021-07-13_21h52.08.461,rantool2,2021.1.4,Win32,59.85156811,5d1dbd7cba5479001656ba2d,60d9d14f4a8a35a482e0d9bf,60edeec75e9fe3d329f03d55,,,,,,,,,,,,
"[""comma""]",0,[0.3229999999999791],108,0,108,0,1,5d1dbd7cba5479001656ba2d,Kobieta,31,2021-07-13_21h52.08.461,rantool2,2021.1.4,Win32,59.85156811,5d1dbd7cba5479001656ba2d,60d9d14f4a8a35a482e0d9bf,60edeec75e9fe3d329f03d55,,,,,,,,,,,,
"[""period""]",0,[0.3357999999969934],109,0,109,0,1,5d1dbd7cba5479001656ba2d,Kobieta,31,2021-07-13_21h52.08.461,rantool2,2021.1.4,Win32,59.85156811,5d1dbd7cba5479001656ba2d,60d9d14f4a8a35a482e0d9bf,60edeec75e9fe3d329f03d55,,,,,,,,,,,,
"[""period""]",0,[0.45129999999699066],110,0,110,0,1,5d1dbd7cba5479001656ba2d,Kobieta,31,2021-07-13_21h52.08.461,rantool2,2021.1.4,Win32,59.85156811,5d1dbd7cba5479001656ba2d,60d9d14f4a8a35a482e0d9bf,60edeec75e9fe3d329f03d55,,,,,,,,,,,,
"[""comma""]",0,[0.3342000000029657],111,0,111,0,1,5d1dbd7cba5479001656ba2d,Kobieta,31,2021-07-13_21h52.08.461,rantool2,2021.1.4,Win32,59.85156811,5d1dbd7cba5479001656ba2d,60d9d14f4a8a35a482e0d9bf,60edeec75e9fe3d329f03d55,,,,,,,,,,,,
"[""period""]",0,[0.5385999999940623],112,0,112,0,1,5d1dbd7cba5479001656ba2d,Kobieta,31,2021-07-13_21h52.08.461,rantool2,2021.1.4,Win32,59.85156811,5d1dbd7cba5479001656ba2d,60d9d14f4a8a35a482e0d9bf,60edeec75e9fe3d329f03d55,,,,,,,,,,,,
"[""comma""]",0,[0.40770000000293294],113,0,113,0,1,5d1dbd7cba5479001656ba2d,Kobieta,31,2021-07-13_21h52.08.461,rantool2,2021.1.4,Win32,59.85156811,5d1dbd7cba5479001656ba2d,60d9d14f4a8a35a482e0d9bf,60edeec75e9fe3d329f03d55,,,,,,,,,,,,
"[""period""]",0,[0.3520000000000323],114,0,114,0,1,5d1dbd7cba5479001656ba2d,Kobieta,31,2021-07-13_21h52.08.461,rantool2,2021.1.4,Win32,59.85156811,5d1dbd7cba5479001656ba2d,60d9d14f4a8a35a482e0d9bf,60edeec75e9fe3d329f03d55,,,,,,,,,,,,
"[""comma""]",0,[0.3320999999940568],115,0,115,0,1,5d1dbd7cba5479001656ba2d,Kobieta,31,2021-07-13_21h52.08.461,rantool2,2021.1.4,Win32,59.85156811,5d1dbd7cba5479001656ba2d,60d9d14f4a8a35a482e0d9bf,60edeec75e9fe3d329f03d55,,,,,,,,,,,,
"[""period""]",0,[0.3519000000059691],116,0,116,0,1,5d1dbd7cba5479001656ba2d,Kobieta,31,2021-07-13_21h52.08.461,rantool2,2021.1.4,Win32,59.85156811,5d1dbd7cba5479001656ba2d,60d9d14f4a8a35a482e0d9bf,60edeec75e9fe3d329f03d55,,,,,,,,,,,,
"[""comma""]",0,[0.3505000000000109],117,0,117,0,1,5d1dbd7cba5479001656ba2d,Kobieta,31,2021-07-13_21h52.08.461,rantool2,2021.1.4,Win32,59.85156811,5d1dbd7cba5479001656ba2d,60d9d14f4a8a35a482e0d9bf,60edeec75e9fe3d329f03d55,,,,,,,,,,,,
"[""comma""]",0,[0.35060000000891023],118,0,118,0,1,5d1dbd7cba5479001656ba2d,Kobieta,31,2021-07-13_21h52.08.461,rantool2,2021.1.4,Win32,59.85156811,5d1dbd7cba5479001656ba2d,60d9d14f4a8a35a482e0d9bf,60edeec75e9fe3d329f03d55,,,,,,,,,,,,
"[""period""]",0,[0.3039000000059673],119,0,119,0,1,5d1dbd7cba5479001656ba2d,Kobieta,31,2021-07-13_21h52.08.461,rantool2,2021.1.4,Win32,59.85156811,5d1dbd7cba5479001656ba2d,60d9d14f4a8a35a482e0d9bf,60edeec75e9fe3d329f03d55,,,,,,,,,,,,
,,,,,,,,5d1dbd7cba5479001656ba2d,Kobieta,31,2021-07-13_21h52.08.461,rantool2,2021.1.4,Win32,59.85156811,5d1dbd7cba5479001656ba2d,60d9d14f4a8a35a482e0d9bf,60edeec75e9fe3d329f03d55,j,1.1683,0,0,0,4,1,OOOROOO,OOOROOR,19.91402015,21.21223021,series_1
,,,,,,,,5d1dbd7cba5479001656ba2d,Kobieta,31,2021-07-13_21h52.08.461,rantool2,2021.1.4,Win32,59.85156811,5d1dbd7cba5479001656ba2d,60d9d14f4a8a35a482e0d9bf,60edeec75e9fe3d329f03d55,f,1.637,0,1,1,37,1,ROORORO,ROORORR,20.42602454,21.57657071,series_1
,,,,,,,,5d1dbd7cba5479001656ba2d,Kobieta,31,2021-07-13_21h52.08.461,rantool2,2021.1.4,Win32,59.85156811,5d1dbd7cba5479001656ba2d,60d9d14f4a8a35a482e0d9bf,60edeec75e9fe3d329f03d55,j,1.2554,0,2,2,61,1,RRRRORO,RRRRORR,21.81333602,21.17347734,series_0
,,,,,,,,5d1dbd7cba5479001656ba2d,Kobieta,31,2021-07-13_21h52.08.461,rantool2,2021.1.4,Win32,59.85156811,5d1dbd7cba5479001656ba2d,60d9d14f4a8a35a482e0d9bf,60edeec75e9fe3d329f03d55,j,1.4531,0,3,3,26,1,ORROROO,ORROROR,22.02732763,21.71443381,series_0
,,,,,,,,5d1dbd7cba5479001656ba2d,Kobieta,31,2021-07-13_21h52.08.461,rantool2,2021.1.4,Win32,59.85156811,5d1dbd7cba5479001656ba2d,60d9d14f4a8a35a482e0d9bf,60edeec75e9fe3d329f03d55,j,1.3531,0,4,4,47,1,RORRRRO,RORRRRR,21.81333602,21.02936224,series_0
,,,,,,,,5d1dbd7cba5479001656ba2d,Kobieta,31,2021-07-13_21h52.08.461,rantool2,2021.1.4,Win32,59.85156811,5d1dbd7cba5479001656ba2d,60d9d14f4a8a35a482e0d9bf,60edeec75e9fe3d329f03d55,f,1.0339,0,5,5,13,1,OORRORO,OORRORR,21.66733484,22.11181017,series_1
,,,,,,,,5d1dbd7cba5479001656ba2d,Kobieta,31,2021-07-13_21h52.08.461,rantool2,2021.1.4,Win32,59.85156811,5d1dbd7cba5479001656ba2d,60d9d14f4a8a35a482e0d9bf,60edeec75e9fe3d329f03d55,j,1.35,0,6,6,1,1,OOOOORO,OOOOORR,19.92253567,20.74050628,series_1
,,,,,,,,5d1dbd7cba5479001656ba2d,Kobieta,31,2021-07-13_21h52.08.461,rantool2,2021.1.4,Win32,59.85156811,5d1dbd7cba5479001656ba2d,60d9d14f4a8a35a482e0d9bf,60edeec75e9fe3d329f03d55,f,1.1368,0,7,7,36,1,ROOROOO,ROOROOR,21.07991943,20.9984461,series_0
,,,,,,,,5d1dbd7cba5479001656ba2d,Kobieta,31,2021-07-13_21h52.08.461,rantool2,2021.1.4,Win32,59.85156811,5d1dbd7cba5479001656ba2d,60d9d14f4a8a35a482e0d9bf,60edeec75e9fe3d329f03d55,j,1.5201,0,8,8,0,1,OOOOOOO,OOOOOOR,18.52739004,19.62521613,series_1
,,,,,,,,5d1dbd7cba5479001656ba2d,Kobieta,31,2021-07-13_21h52.08.461,rantool2,2021.1.4,Win32,59.85156811,5d1dbd7cba5479001656ba2d,60d9d14f4a8a35a482e0d9bf,60edeec75e9fe3d329f03d55,f,1.1685,0,9,9,12,1,OORROOO,OORROOR,21.30250474,22.02786418,series_1
,,,,,,,,5d1dbd7cba5479001656ba2d,Kobieta,31,2021-07-13_21h52.08.461,rantool2,2021.1.4,Win32,59.85156811,5d1dbd7cba5479001656ba2d,60d9d14f4a8a35a482e0d9bf,60edeec75e9fe3d329f03d55,j,2.3713,0,10,10,55,1,RRORRRO,RRORRRR,21.56657303,21.21223021,series_0
,,,,,,,,5d1dbd7cba5479001656ba2d,Kobieta,31,2021-07-13_21h52.08.461,rantool2,2021.1.4,Win32,59.85156811,5d1dbd7cba5479001656ba2d,60d9d14f4a8a35a482e0d9bf,60edeec75e9fe3d329f03d55,j,1.3001,0,11,11,6,1,OOORROO,OOORROR,21.12383932,21.38562617,series_1
,,,,,,,,5d1dbd7cba5479001656ba2d,Kobieta,31,2021-07-13_21h52.08.461,rantool2,2021.1.4,Win32,59.85156811,5d1dbd7cba5479001656ba2d,60d9d14f4a8a35a482e0d9bf,60edeec75e9fe3d329f03d55,j,1.7685,0,12,12,24,1,ORROOOO,ORROOOR,21.12383932,22.07102821,series_1
,,,,,,,,5d1dbd7cba5479001656ba2d,Kobieta,31,2021-07-13_21h52.08.461,rantool2,2021.1.4,Win32,59.85156811,5d1dbd7cba5479001656ba2d,60d9d14f4a8a35a482e0d9bf,60edeec75e9fe3d329f03d55,f,1.0999,0,13,13,33,1,ROOOORO,ROOOORR,20.83779602,22.03072203,series_1
,,,,,,,,5d1dbd7cba5479001656ba2d,Kobieta,31,2021-07-13_21h52.08.461,rantool2,2021.1.4,Win32,59.85156811,5d1dbd7cba5479001656ba2d,60d9d14f4a8a35a482e0d9bf,60edeec75e9fe3d329f03d55,j,1.4899,0,14,14,54,1,RRORROO,RRORROR,21.55250791,20.9984461,series_0
,,,,,,,,5d1dbd7cba5479001656ba2d,Kobieta,31,2021-07-13_21h52.08.461,rantool2,2021.1.4,Win32,59.85156811,5d1dbd7cba5479001656ba2d,60d9d14f4a8a35a482e0d9bf,60edeec75e9fe3d329f03d55,j,1.5069,0,15,15,62,1,RRRRROO,RRRRROR,22.16413392,21.27974287,series_0
,,,,,,,,5d1dbd7cba5479001656ba2d,Kobieta,31,2021-07-13_21h52.08.461,rantool2,2021.1.4,Win32,59.85156811,5d1dbd7cba5479001656ba2d,60d9d14f4a8a35a482e0d9bf,60edeec75e9fe3d329f03d55,f,1.1521,0,16,16,23,1,ORORRRO,ORORRRR,22.1285618,21.9921709,series_0
,,,,,,,,5d1dbd7cba5479001656ba2d,Kobieta,31,2021-07-13_21h52.08.461,rantool2,2021.1.4,Win32,59.85156811,5d1dbd7cba5479001656ba2d,60d9d14f4a8a35a482e0d9bf,60edeec75e9fe3d329f03d55,f,1.2052,0,17,17,44,1,RORROOO,RORROOR,21.66733484,22.02566557,series_1
,,,,,,,,5d1dbd7cba5479001656ba2d,Kobieta,31,2021-07-13_21h52.08.461,rantool2,2021.1.4,Win32,59.85156811,5d1dbd7cba5479001656ba2d,60d9d14f4a8a35a482e0d9bf,60edeec75e9fe3d329f03d55,j,1.1364,0,18,18,30,1,ORRRROO,ORRRROR,22.46748491,22.03072203,series_0
,,,,,,,,5d1dbd7cba5479001656ba2d,Kobieta,31,2021-07-13_21h52.08.461,rantool2,2021.1.4,Win32,59.85156811,5d1dbd7cba5479001656ba2d,60d9d14f4a8a35a482e0d9bf,60edeec75e9fe3d329f03d55,f,1.0693,0,19,19,45,1,RORRORO,RORRORR,20.78182524,21.22513037,series_1
,,,,,,,,5d1dbd7cba5479001656ba2d,Kobieta,31,2021-07-13_21h52.08.461,rantool2,2021.1.4,Win32,59.85156811,5d1dbd7cba5479001656ba2d,60d9d14f4a8a35a482e0d9bf,60edeec75e9fe3d329f03d55,j,1.9537,0,20,20,59,1,RRRORRO,RRRORRR,21.56657303,20.89823192,series_0
,,,,,,,,5d1dbd7cba5479001656ba2d,Kobieta,31,2021-07-13_21h52.08.461,rantool2,2021.1.4,Win32,59.85156811,5d1dbd7cba5479001656ba2d,60d9d14f4a8a35a482e0d9bf,60edeec75e9fe3d329f03d55,j,1.5397,0,21,21,51,1,RROORRO,RROORRR,21.89852628,22.02786418,series_1
,,,,,,,,5d1dbd7cba5479001656ba2d,Kobieta,31,2021-07-13_21h52.08.461,rantool2,2021.1.4,Win32,59.85156811,5d1dbd7cba5479001656ba2d,60d9d14f4a8a35a482e0d9bf,60edeec75e9fe3d329f03d55,j,1.419,0,22,22,15,1,OORRRRO,OORRRRR,22.10108823,21.74922619,series_0
,,,,,,,,5d1dbd7cba5479001656ba2d,Kobieta,31,2021-07-13_21h52.08.461,rantool2,2021.1.4,Win32,59.85156811,5d1dbd7cba5479001656ba2d,60d9d14f4a8a35a482e0d9bf,60edeec75e9fe3d329f03d55,f,1.5647,0,23,23,49,1,RROOORO,RROOORR,21.76276513,22.53364006,series_1
,,,,,,,,5d1dbd7cba5479001656ba2d,Kobieta,31,2021-07-13_21h52.08.461,rantool2,2021.1.4,Win32,59.85156811,5d1dbd7cba5479001656ba2d,60d9d14f4a8a35a482e0d9bf,60edeec75e9fe3d329f03d55,j,1.2855,0,24,24,7,1,OOORRRO,OOORRRR,21.6194508,21.899017,series_1
,,,,,,,,5d1dbd7cba5479001656ba2d,Kobieta,31,2021-07-13_21h52.08.461,rantool2,2021.1.4,Win32,59.85156811,5d1dbd7cba5479001656ba2d,60d9d14f4a8a35a482e0d9bf,60edeec75e9fe3d329f03d55,j,1.2672,0,25,25,17,1,OROOORO,OROOORR,21.03750787,22.12173012,series_1
,,,,,,,,5d1dbd7cba5479001656ba2d,Kobieta,31,2021-07-13_21h52.08.461,rantool2,2021.1.4,Win32,59.85156811,5d1dbd7cba5479001656ba2d,60d9d14f4a8a35a482e0d9bf,60edeec75e9fe3d329f03d55,f,1.4182,0,26,26,18,1,OROOROO,OROOROR,20.84860893,21.22513037,series_1
,,,,,,,,5d1dbd7cba5479001656ba2d,Kobieta,31,2021-07-13_21h52.08.461,rantool2,2021.1.4,Win32,59.85156811,5d1dbd7cba5479001656ba2d,60d9d14f4a8a35a482e0d9bf,60edeec75e9fe3d329f03d55,j,1.0301,0,27,27,35,1,ROOORRO,ROOORRR,21.76276513,22.16977179,series_1
,,,,,,,,5d1dbd7cba5479001656ba2d,Kobieta,31,2021-07-13_21h52.08.461,rantool2,2021.1.4,Win32,59.85156811,5d1dbd7cba5479001656ba2d,60d9d14f4a8a35a482e0d9bf,60edeec75e9fe3d329f03d55,j,1.6533,0,28,28,3,1,OOOORRO,OOOORRR,20.90986523,21.74922619,series_1
,,,,,,,,5d1dbd7cba5479001656ba2d,Kobieta,31,2021-07-13_21h52.08.461,rantool2,2021.1.4,Win32,59.85156811,5d1dbd7cba5479001656ba2d,60d9d14f4a8a35a482e0d9bf,60edeec75e9fe3d329f03d55,j,0.0513,0,29,29,27,1,ORRORRO,ORRORRR,21.55250791,22.2428857,series_1
,,,,,,,,5d1dbd7cba5479001656ba2d,Kobieta,31,2021-07-13_21h52.08.461,rantool2,2021.1.4,Win32,59.85156811,5d1dbd7cba5479001656ba2d,60d9d14f4a8a35a482e0d9bf,60edeec75e9fe3d329f03d55,f,1.691,0,30,30,53,1,RRORORO,RRORORR,20.71309134,21.90565814,series_1
,,,,,,,,5d1dbd7cba5479001656ba2d,Kobieta,31,2021-07-13_21h52.08.461,rantool2,2021.1.4,Win32,59.85156811,5d1dbd7cba5479001656ba2d,60d9d14f4a8a35a482e0d9bf,60edeec75e9fe3d329f03d55,j,1.7054,0,31,31,50,1,RROOROO,RROOROR,21.73568164,22.02566557,series_1
,,,,,,,,5d1dbd7cba5479001656ba2d,Kobieta,31,2021-07-13_21h52.08.461,rantool2,2021.1.4,Win32,59.85156811,5d1dbd7cba5479001656ba2d,60d9d14f4a8a35a482e0d9bf,60edeec75e9fe3d329f03d55,j,1.7101,0,32,32,39,1,ROORRRO,ROORRRR,21.82425538,21.38562617,series_0
,,,,,,,,5d1dbd7cba5479001656ba2d,Kobieta,31,2021-07-13_21h52.08.461,rantool2,2021.1.4,Win32,59.85156811,5d1dbd7cba5479001656ba2d,60d9d14f4a8a35a482e0d9bf,60edeec75e9fe3d329f03d55,f,1.6739,0,33,33,46,1,RORRROO,RORRROR,22.00300695,21.24781509,series_0
,,,,,,,,5d1dbd7cba5479001656ba2d,Kobieta,31,2021-07-13_21h52.08.461,rantool2,2021.1.4,Win32,59.85156811,5d1dbd7cba5479001656ba2d,60d9d14f4a8a35a482e0d9bf,60edeec75e9fe3d329f03d55,j,1.3957,0,34,34,21,1,ORORORO,ORORORR,20.39515459,22.06781359,series_1
,,,,,,,,5d1dbd7cba5479001656ba2d,Kobieta,31,2021-07-13_21h52.08.461,rantool2,2021.1.4,Win32,59.85156811,5d1dbd7cba5479001656ba2d,60d9d14f4a8a35a482e0d9bf,60edeec75e9fe3d329f03d55,f,1.8683,0,35,35,28,1,ORRROOO,ORRROOR,22.24142883,22.53364006,series_1
,,,,,,,,5d1dbd7cba5479001656ba2d,Kobieta,31,2021-07-13_21h52.08.461,rantool2,2021.1.4,Win32,59.85156811,5d1dbd7cba5479001656ba2d,60d9d14f4a8a35a482e0d9bf,60edeec75e9fe3d329f03d55,j,1.4691,0,36,36,34,1,ROOOROO,ROOOROR,21.03750787,21.24781509,series_1
,,,,,,,,5d1dbd7cba5479001656ba2d,Kobieta,31,2021-07-13_21h52.08.461,rantool2,2021.1.4,Win32,59.85156811,5d1dbd7cba5479001656ba2d,60d9d14f4a8a35a482e0d9bf,60edeec75e9fe3d329f03d55,f,1.5042,0,37,37,63,1,RRRRRRO,RRRRRRR,21.35278725,19.62521613,series_0
,,,,,,,,5d1dbd7cba5479001656ba2d,Kobieta,31,2021-07-13_21h52.08.461,rantool2,2021.1.4,Win32,59.85156811,5d1dbd7cba5479001656ba2d,60d9d14f4a8a35a482e0d9bf,60edeec75e9fe3d329f03d55,j,1.5865,0,38,38,60,1,RRRROOO,RRRROOR,22.10108823,22.15934078,series_1
,,,,,,,,5d1dbd7cba5479001656ba2d,Kobieta,31,2021-07-13_21h52.08.461,rantool2,2021.1.4,Win32,59.85156811,5d1dbd7cba5479001656ba2d,60d9d14f4a8a35a482e0d9bf,60edeec75e9fe3d329f03d55,f,2.2392,0,39,39,16,1,OROOOOO,OROOOOR,20.43051175,21.17347734,series_1
,,,,,,,,5d1dbd7cba5479001656ba2d,Kobieta,31,2021-07-13_21h52.08.461,rantool2,2021.1.4,Win32,59.85156811,5d1dbd7cba5479001656ba2d,60d9d14f4a8a35a482e0d9bf,60edeec75e9fe3d329f03d55,j,2.0444,0,40,40,2,1,OOOOROO,OOOOROR,20.43051175,21.02936224,series_1
,,,,,,,,5d1dbd7cba5479001656ba2d,Kobieta,31,2021-07-13_21h52.08.461,rantool2,2021.1.4,Win32,59.85156811,5d1dbd7cba5479001656ba2d,60d9d14f4a8a35a482e0d9bf,60edeec75e9fe3d329f03d55,f,1.4033,0,41,41,19,1,OROORRO,OROORRR,21.73568164,22.11181017,series_1
,,,,,,,,5d1dbd7cba5479001656ba2d,Kobieta,31,2021-07-13_21h52.08.461,rantool2,2021.1.4,Win32,59.85156811,5d1dbd7cba5479001656ba2d,60d9d14f4a8a35a482e0d9bf,60edeec75e9fe3d329f03d55,j,1.2968,0,42,42,8,1,OOROOOO,OOROOOR,19.91402015,20.89823192,series_1
,,,,,,,,5d1dbd7cba5479001656ba2d,Kobieta,31,2021-07-13_21h52.08.461,rantool2,2021.1.4,Win32,59.85156811,5d1dbd7cba5479001656ba2d,60d9d14f4a8a35a482e0d9bf,60edeec75e9fe3d329f03d55,f,1.8708,0,43,43,25,1,ORROORO,ORROORR,21.79500819,22.61624387,series_1
,,,,,,,,5d1dbd7cba5479001656ba2d,Kobieta,31,2021-07-13_21h52.08.461,rantool2,2021.1.4,Win32,59.85156811,5d1dbd7cba5479001656ba2d,60d9d14f4a8a35a482e0d9bf,60edeec75e9fe3d329f03d55,j,1.9712,0,44,44,58,1,RRROROO,RRROROR,22.1285618,21.37121559,series_0
,,,,,,,,5d1dbd7cba5479001656ba2d,Kobieta,31,2021-07-13_21h52.08.461,rantool2,2021.1.4,Win32,59.85156811,5d1dbd7cba5479001656ba2d,60d9d14f4a8a35a482e0d9bf,60edeec75e9fe3d329f03d55,f,1.3305,0,45,45,40,1,ROROOOO,ROROOOR,20.87963819,21.37121559,series_1
,,,,,,,,5d1dbd7cba5479001656ba2d,Kobieta,31,2021-07-13_21h52.08.461,rantool2,2021.1.4,Win32,59.85156811,5d1dbd7cba5479001656ba2d,60d9d14f4a8a35a482e0d9bf,60edeec75e9fe3d329f03d55,f,1.036,0,46,46,22,1,ORORROO,ORORROR,22.02732763,21.57657071,series_0
,,,,,,,,5d1dbd7cba5479001656ba2d,Kobieta,31,2021-07-13_21h52.08.461,rantool2,2021.1.4,Win32,59.85156811,5d1dbd7cba5479001656ba2d,60d9d14f4a8a35a482e0d9bf,60edeec75e9fe3d329f03d55,j,1.1573,0,47,47,41,1,ROROORO,ROROORR,20.42602454,21.71443381,series_1
,,,,,,,,5d1dbd7cba5479001656ba2d,Kobieta,31,2021-07-13_21h52.08.461,rantool2,2021.1.4,Win32,59.85156811,5d1dbd7cba5479001656ba2d,60d9d14f4a8a35a482e0d9bf,60edeec75e9fe3d329f03d55,f,1.6201,0,48,48,11,1,OORORRO,OORORRR,22.18365867,22.6797523,series_1
,,,,,,,,5d1dbd7cba5479001656ba2d,Kobieta,31,2021-07-13_21h52.08.461,rantool2,2021.1.4,Win32,59.85156811,5d1dbd7cba5479001656ba2d,60d9d14f4a8a35a482e0d9bf,60edeec75e9fe3d329f03d55,j,1.1296,0,49,49,57,1,RRROORO,RRROORR,21.82425538,22.07102821,series_1
,,,,,,,,5d1dbd7cba5479001656ba2d,Kobieta,31,2021-07-13_21h52.08.461,rantool2,2021.1.4,Win32,59.85156811,5d1dbd7cba5479001656ba2d,60d9d14f4a8a35a482e0d9bf,60edeec75e9fe3d329f03d55,f,1.0034,0,50,50,9,1,OOROORO,OOROORR,21.07991943,22.2428857,series_1
,,,,,,,,5d1dbd7cba5479001656ba2d,Kobieta,31,2021-07-13_21h52.08.461,rantool2,2021.1.4,Win32,59.85156811,5d1dbd7cba5479001656ba2d,60d9d14f4a8a35a482e0d9bf,60edeec75e9fe3d329f03d55,j,1.1691,0,51,51,29,1,ORRRORO,ORRRORR,22.00300695,22.12173012,series_1
,,,,,,,,5d1dbd7cba5479001656ba2d,Kobieta,31,2021-07-13_21h52.08.461,rantool2,2021.1.4,Win32,59.85156811,5d1dbd7cba5479001656ba2d,60d9d14f4a8a35a482e0d9bf,60edeec75e9fe3d329f03d55,f,1.941,0,52,52,32,1,ROOOOOO,ROOOOOR,19.92253567,21.27974287,series_1
,,,,,,,,5d1dbd7cba5479001656ba2d,Kobieta,31,2021-07-13_21h52.08.461,rantool2,2021.1.4,Win32,59.85156811,5d1dbd7cba5479001656ba2d,60d9d14f4a8a35a482e0d9bf,60edeec75e9fe3d329f03d55,f,0.6984,0,53,53,42,1,ROROROO,ROROROR,20.39515459,19.8361834,series_0
,,,,,,,,5d1dbd7cba5479001656ba2d,Kobieta,31,2021-07-13_21h52.08.461,rantool2,2021.1.4,Win32,59.85156811,5d1dbd7cba5479001656ba2d,60d9d14f4a8a35a482e0d9bf,60edeec75e9fe3d329f03d55,j,0.9198,0,54,54,10,1,OOROROO,OOROROR,21.31236711,21.07490964,series_0
,,,,,,,,5d1dbd7cba5479001656ba2d,Kobieta,31,2021-07-13_21h52.08.461,rantool2,2021.1.4,Win32,59.85156811,5d1dbd7cba5479001656ba2d,60d9d14f4a8a35a482e0d9bf,60edeec75e9fe3d329f03d55,f,1.3039,0,55,55,56,1,RRROOOO,RRROOOR,21.6194508,22.31681875,series_1
,,,,,,,,5d1dbd7cba5479001656ba2d,Kobieta,31,2021-07-13_21h52.08.461,rantool2,2021.1.4,Win32,59.85156811,5d1dbd7cba5479001656ba2d,60d9d14f4a8a35a482e0d9bf,60edeec75e9fe3d329f03d55,f,1.6815,0,56,56,52,1,RROROOO,RROROOR,22.18365867,22.11097995,series_0
,,,,,,,,5d1dbd7cba5479001656ba2d,Kobieta,31,2021-07-13_21h52.08.461,rantool2,2021.1.4,Win32,59.85156811,5d1dbd7cba5479001656ba2d,60d9d14f4a8a35a482e0d9bf,60edeec75e9fe3d329f03d55,f,1.0864,0,57,57,48,1,RROOOOO,RROOOOR,20.90986523,22.15934078,series_1
,,,,,,,,5d1dbd7cba5479001656ba2d,Kobieta,31,2021-07-13_21h52.08.461,rantool2,2021.1.4,Win32,59.85156811,5d1dbd7cba5479001656ba2d,60d9d14f4a8a35a482e0d9bf,60edeec75e9fe3d329f03d55,j,0.9664,0,58,58,38,1,ROORROO,ROORROR,21.79500819,21.36812781,series_0
,,,,,,,,5d1dbd7cba5479001656ba2d,Kobieta,31,2021-07-13_21h52.08.461,rantool2,2021.1.4,Win32,59.85156811,5d1dbd7cba5479001656ba2d,60d9d14f4a8a35a482e0d9bf,60edeec75e9fe3d329f03d55,f,1.2331,0,59,59,31,1,ORRRRRO,ORRRRRR,22.16413392,20.74050628,series_0
,,,,,,,,5d1dbd7cba5479001656ba2d,Kobieta,31,2021-07-13_21h52.08.461,rantool2,2021.1.4,Win32,59.85156811,5d1dbd7cba5479001656ba2d,60d9d14f4a8a35a482e0d9bf,60edeec75e9fe3d329f03d55,j,2.071,0,60,60,5,1,OOORORO,OOORORR,20.87963819,21.9921709,series_1
,,,,,,,,5d1dbd7cba5479001656ba2d,Kobieta,31,2021-07-13_21h52.08.461,rantool2,2021.1.4,Win32,59.85156811,5d1dbd7cba5479001656ba2d,60d9d14f4a8a35a482e0d9bf,60edeec75e9fe3d329f03d55,f,1.3515,0,61,61,20,1,OROROOO,OROROOR,21.31236711,21.90565814,series_1
,,,,,,,,5d1dbd7cba5479001656ba2d,Kobieta,31,2021-07-13_21h52.08.461,rantool2,2021.1.4,Win32,59.85156811,5d1dbd7cba5479001656ba2d,60d9d14f4a8a35a482e0d9bf,60edeec75e9fe3d329f03d55,f,1.203,0,62,62,14,1,OORRROO,OORRROR,22.24142883,22.16977179,series_0
,,,,,,,,5d1dbd7cba5479001656ba2d,Kobieta,31,2021-07-13_21h52.08.461,rantool2,2021.1.4,Win32,59.85156811,5d1dbd7cba5479001656ba2d,60d9d14f4a8a35a482e0d9bf,60edeec75e9fe3d329f03d55,j,1.4532,0,63,63,43,1,RORORRO,RORORRR,20.71309134,21.07490964,series_1
