key_resp_5.keys,key_resp_5.corr,key_resp_5.rt,trials.thisRepN,trials.thisTrialN,trials.thisN,trials.thisIndex,trials.ran,id*,Płeć*,Wiek*,date,expName,psychopyVersion,OS,frameRate,id,STUDY_ID,SESSION_ID,key_resp_7.keys,trials_2.thisRepN,trials_2.thisTrialN,trials_2.thisN,trials_2.thisIndex,trials_2.ran,series_0,series_1,acss_0,acss_1,comparison,key_resp_7.rt
0,,,0,0,0,0,1,6093ea19c93f4bb0470b32ec,Kobieta,18,2021-07-13_22h06.31.444,rantool2,2021.1.4,Win32,59.94125757,6093ea19c93f4bb0470b32ec,60d9d14f4a8a35a482e0d9bf,60edf159fb509899abc66964,,,,,,,,,,,,
0,,,1,0,1,0,1,6093ea19c93f4bb0470b32ec,Kobieta,18,2021-07-13_22h06.31.444,rantool2,2021.1.4,Win32,59.94125757,6093ea19c93f4bb0470b32ec,60d9d14f4a8a35a482e0d9bf,60edf159fb509899abc66964,,,,,,,,,,,,
"[""comma"",""comma""]",0,"[0.00260000038147723,0.8848999996185398]",2,0,2,0,1,6093ea19c93f4bb0470b32ec,Kobieta,18,2021-07-13_22h06.31.444,rantool2,2021.1.4,Win32,59.94125757,6093ea19c93f4bb0470b32ec,60d9d14f4a8a35a482e0d9bf,60edf159fb509899abc66964,,,,,,,,,,,,
"[""comma""]",0,[0.4342999992370693],3,0,3,0,1,6093ea19c93f4bb0470b32ec,Kobieta,18,2021-07-13_22h06.31.444,rantool2,2021.1.4,Win32,59.94125757,6093ea19c93f4bb0470b32ec,60d9d14f4a8a35a482e0d9bf,60edf159fb509899abc66964,,,,,,,,,,,,
"[""comma""]",0,[0.2898000001907377],4,0,4,0,1,6093ea19c93f4bb0470b32ec,Kobieta,18,2021-07-13_22h06.31.444,rantool2,2021.1.4,Win32,59.94125757,6093ea19c93f4bb0470b32ec,60d9d14f4a8a35a482e0d9bf,60edf159fb509899abc66964,,,,,,,,,,,,
"[""comma""]",0,[0.3016000003814696],5,0,5,0,1,6093ea19c93f4bb0470b32ec,Kobieta,18,2021-07-13_22h06.31.444,rantool2,2021.1.4,Win32,59.94125757,6093ea19c93f4bb0470b32ec,60d9d14f4a8a35a482e0d9bf,60edf159fb509899abc66964,,,,,,,,,,,,
"[""period""]",0,[0.26780000019073213],6,0,6,0,1,6093ea19c93f4bb0470b32ec,Kobieta,18,2021-07-13_22h06.31.444,rantool2,2021.1.4,Win32,59.94125757,6093ea19c93f4bb0470b32ec,60d9d14f4a8a35a482e0d9bf,60edf159fb509899abc66964,,,,,,,,,,,,
"[""comma""]",0,[0.3290999994277968],7,0,7,0,1,6093ea19c93f4bb0470b32ec,Kobieta,18,2021-07-13_22h06.31.444,rantool2,2021.1.4,Win32,59.94125757,6093ea19c93f4bb0470b32ec,60d9d14f4a8a35a482e0d9bf,60edf159fb509899abc66964,,,,,,,,,,,,
"[""comma""]",0,[0.756900000572216],8,0,8,0,1,6093ea19c93f4bb0470b32ec,Kobieta,18,2021-07-13_22h06.31.444,rantool2,2021.1.4,Win32,59.94125757,6093ea19c93f4bb0470b32ec,60d9d14f4a8a35a482e0d9bf,60edf159fb509899abc66964,,,,,,,,,,,,
"[""period""]",0,[0.689200000762952],9,0,9,0,1,6093ea19c93f4bb0470b32ec,Kobieta,18,2021-07-13_22h06.31.444,rantool2,2021.1.4,Win32,59.94125757,6093ea19c93f4bb0470b32ec,60d9d14f4a8a35a482e0d9bf,60edf159fb509899abc66964,,,,,,,,,,,,
"[""period""]",0,[0.5547000007629492],10,0,10,0,1,6093ea19c93f4bb0470b32ec,Kobieta,18,2021-07-13_22h06.31.444,rantool2,2021.1.4,Win32,59.94125757,6093ea19c93f4bb0470b32ec,60d9d14f4a8a35a482e0d9bf,60edf159fb509899abc66964,,,,,,,,,,,,
"[""comma""]",0,[0.36610000038146495],11,0,11,0,1,6093ea19c93f4bb0470b32ec,Kobieta,18,2021-07-13_22h06.31.444,rantool2,2021.1.4,Win32,59.94125757,6093ea19c93f4bb0470b32ec,60d9d14f4a8a35a482e0d9bf,60edf159fb509899abc66964,,,,,,,,,,,,
"[""comma""]",0,[0.2506999998092567],12,0,12,0,1,6093ea19c93f4bb0470b32ec,Kobieta,18,2021-07-13_22h06.31.444,rantool2,2021.1.4,Win32,59.94125757,6093ea19c93f4bb0470b32ec,60d9d14f4a8a35a482e0d9bf,60edf159fb509899abc66964,,,,,,,,,,,,
"[""comma""]",0,[0.39919999980926946],13,0,13,0,1,6093ea19c93f4bb0470b32ec,Kobieta,18,2021-07-13_22h06.31.444,rantool2,2021.1.4,Win32,59.94125757,6093ea19c93f4bb0470b32ec,60d9d14f4a8a35a482e0d9bf,60edf159fb509899abc66964,,,,,,,,,,,,
"[""comma""]",0,[0.5010000000000048],14,0,14,0,1,6093ea19c93f4bb0470b32ec,Kobieta,18,2021-07-13_22h06.31.444,rantool2,2021.1.4,Win32,59.94125757,6093ea19c93f4bb0470b32ec,60d9d14f4a8a35a482e0d9bf,60edf159fb509899abc66964,,,,,,,,,,,,
"[""comma""]",0,[0.7509000005722015],15,0,15,0,1,6093ea19c93f4bb0470b32ec,Kobieta,18,2021-07-13_22h06.31.444,rantool2,2021.1.4,Win32,59.94125757,6093ea19c93f4bb0470b32ec,60d9d14f4a8a35a482e0d9bf,60edf159fb509899abc66964,,,,,,,,,,,,
"[""comma""]",0,[0.9328999996185274],16,0,16,0,1,6093ea19c93f4bb0470b32ec,Kobieta,18,2021-07-13_22h06.31.444,rantool2,2021.1.4,Win32,59.94125757,6093ea19c93f4bb0470b32ec,60d9d14f4a8a35a482e0d9bf,60edf159fb509899abc66964,,,,,,,,,,,,
"[""period""]",0,[0.4171000003814669],17,0,17,0,1,6093ea19c93f4bb0470b32ec,Kobieta,18,2021-07-13_22h06.31.444,rantool2,2021.1.4,Win32,59.94125757,6093ea19c93f4bb0470b32ec,60d9d14f4a8a35a482e0d9bf,60edf159fb509899abc66964,,,,,,,,,,,,
"[""comma""]",0,[0.26730000019072975],18,0,18,0,1,6093ea19c93f4bb0470b32ec,Kobieta,18,2021-07-13_22h06.31.444,rantool2,2021.1.4,Win32,59.94125757,6093ea19c93f4bb0470b32ec,60d9d14f4a8a35a482e0d9bf,60edf159fb509899abc66964,,,,,,,,,,,,
"[""comma""]",0,[0.5533999996185344],19,0,19,0,1,6093ea19c93f4bb0470b32ec,Kobieta,18,2021-07-13_22h06.31.444,rantool2,2021.1.4,Win32,59.94125757,6093ea19c93f4bb0470b32ec,60d9d14f4a8a35a482e0d9bf,60edf159fb509899abc66964,,,,,,,,,,,,
"[""comma""]",0,[0.9680000000000035],20,0,20,0,1,6093ea19c93f4bb0470b32ec,Kobieta,18,2021-07-13_22h06.31.444,rantool2,2021.1.4,Win32,59.94125757,6093ea19c93f4bb0470b32ec,60d9d14f4a8a35a482e0d9bf,60edf159fb509899abc66964,,,,,,,,,,,,
"[""period""]",0,[0.3346999998092599],21,0,21,0,1,6093ea19c93f4bb0470b32ec,Kobieta,18,2021-07-13_22h06.31.444,rantool2,2021.1.4,Win32,59.94125757,6093ea19c93f4bb0470b32ec,60d9d14f4a8a35a482e0d9bf,60edf159fb509899abc66964,,,,,,,,,,,,
"[""comma""]",0,[0.305499999999995],22,0,22,0,1,6093ea19c93f4bb0470b32ec,Kobieta,18,2021-07-13_22h06.31.444,rantool2,2021.1.4,Win32,59.94125757,6093ea19c93f4bb0470b32ec,60d9d14f4a8a35a482e0d9bf,60edf159fb509899abc66964,,,,,,,,,,,,
"[""period""]",0,[0.2983000001907641],23,0,23,0,1,6093ea19c93f4bb0470b32ec,Kobieta,18,2021-07-13_22h06.31.444,rantool2,2021.1.4,Win32,59.94125757,6093ea19c93f4bb0470b32ec,60d9d14f4a8a35a482e0d9bf,60edf159fb509899abc66964,,,,,,,,,,,,
"[""period""]",0,[0.27519999980927423],24,0,24,0,1,6093ea19c93f4bb0470b32ec,Kobieta,18,2021-07-13_22h06.31.444,rantool2,2021.1.4,Win32,59.94125757,6093ea19c93f4bb0470b32ec,60d9d14f4a8a35a482e0d9bf,60edf159fb509899abc66964,,,,,,,,,,,,
"[""comma""]",0,[0.3863999996185328],25,0,25,0,1,6093ea19c93f4bb0470b32ec,Kobieta,18,2021-07-13_22h06.31.444,rantool2,2021.1.4,Win32,59.94125757,6093ea19c93f4bb0470b32ec,60d9d14f4a8a35a482e0d9bf,60edf159fb509899abc66964,,,,,,,,,,,,
"[""period""]",0,[0.5099000005722019],26,0,26,0,1,6093ea19c93f4bb0470b32ec,Kobieta,18,2021-07-13_22h06.31.444,rantool2,2021.1.4,Win32,59.94125757,6093ea19c93f4bb0470b32ec,60d9d14f4a8a35a482e0d9bf,60edf159fb509899abc66964,,,,,,,,,,,,
"[""comma""]",0,[0.2696999998092622],27,0,27,0,1,6093ea19c93f4bb0470b32ec,Kobieta,18,2021-07-13_22h06.31.444,rantool2,2021.1.4,Win32,59.94125757,6093ea19c93f4bb0470b32ec,60d9d14f4a8a35a482e0d9bf,60edf159fb509899abc66964,,,,,,,,,,,,
"[""comma""]",0,[0.2580000000000098],28,0,28,0,1,6093ea19c93f4bb0470b32ec,Kobieta,18,2021-07-13_22h06.31.444,rantool2,2021.1.4,Win32,59.94125757,6093ea19c93f4bb0470b32ec,60d9d14f4a8a35a482e0d9bf,60edf159fb509899abc66964,,,,,,,,,,,,
"[""period""]",0,[0.2919000005721841],29,0,29,0,1,6093ea19c93f4bb0470b32ec,Kobieta,18,2021-07-13_22h06.31.444,rantool2,2021.1.4,Win32,59.94125757,6093ea19c93f4bb0470b32ec,60d9d14f4a8a35a482e0d9bf,60edf159fb509899abc66964,,,,,,,,,,,,
"[""comma""]",0,[0.29339999961854346],30,0,30,0,1,6093ea19c93f4bb0470b32ec,Kobieta,18,2021-07-13_22h06.31.444,rantool2,2021.1.4,Win32,59.94125757,6093ea19c93f4bb0470b32ec,60d9d14f4a8a35a482e0d9bf,60edf159fb509899abc66964,,,,,,,,,,,,
"[""period""]",0,[0.34109999942779723],31,0,31,0,1,6093ea19c93f4bb0470b32ec,Kobieta,18,2021-07-13_22h06.31.444,rantool2,2021.1.4,Win32,59.94125757,6093ea19c93f4bb0470b32ec,60d9d14f4a8a35a482e0d9bf,60edf159fb509899abc66964,,,,,,,,,,,,
"[""comma""]",0,[0.2525999994278152],32,0,32,0,1,6093ea19c93f4bb0470b32ec,Kobieta,18,2021-07-13_22h06.31.444,rantool2,2021.1.4,Win32,59.94125757,6093ea19c93f4bb0470b32ec,60d9d14f4a8a35a482e0d9bf,60edf159fb509899abc66964,,,,,,,,,,,,
"[""comma""]",0,[0.21750000000000114],33,0,33,0,1,6093ea19c93f4bb0470b32ec,Kobieta,18,2021-07-13_22h06.31.444,rantool2,2021.1.4,Win32,59.94125757,6093ea19c93f4bb0470b32ec,60d9d14f4a8a35a482e0d9bf,60edf159fb509899abc66964,,,,,,,,,,,,
"[""period""]",0,[0.24369999980928014],34,0,34,0,1,6093ea19c93f4bb0470b32ec,Kobieta,18,2021-07-13_22h06.31.444,rantool2,2021.1.4,Win32,59.94125757,6093ea19c93f4bb0470b32ec,60d9d14f4a8a35a482e0d9bf,60edf159fb509899abc66964,,,,,,,,,,,,
"[""comma""]",0,[0.24160000038148155],35,0,35,0,1,6093ea19c93f4bb0470b32ec,Kobieta,18,2021-07-13_22h06.31.444,rantool2,2021.1.4,Win32,59.94125757,6093ea19c93f4bb0470b32ec,60d9d14f4a8a35a482e0d9bf,60edf159fb509899abc66964,,,,,,,,,,,,
"[""period""]",0,[0.23679999923706418],36,0,36,0,1,6093ea19c93f4bb0470b32ec,Kobieta,18,2021-07-13_22h06.31.444,rantool2,2021.1.4,Win32,59.94125757,6093ea19c93f4bb0470b32ec,60d9d14f4a8a35a482e0d9bf,60edf159fb509899abc66964,,,,,,,,,,,,
"[""comma""]",0,[0.2410999994277745],37,0,37,0,1,6093ea19c93f4bb0470b32ec,Kobieta,18,2021-07-13_22h06.31.444,rantool2,2021.1.4,Win32,59.94125757,6093ea19c93f4bb0470b32ec,60d9d14f4a8a35a482e0d9bf,60edf159fb509899abc66964,,,,,,,,,,,,
"[""period""]",0,[0.27600000000001046],38,0,38,0,1,6093ea19c93f4bb0470b32ec,Kobieta,18,2021-07-13_22h06.31.444,rantool2,2021.1.4,Win32,59.94125757,6093ea19c93f4bb0470b32ec,60d9d14f4a8a35a482e0d9bf,60edf159fb509899abc66964,,,,,,,,,,,,
"[""comma""]",0,[0.33730000019073714],39,0,39,0,1,6093ea19c93f4bb0470b32ec,Kobieta,18,2021-07-13_22h06.31.444,rantool2,2021.1.4,Win32,59.94125757,6093ea19c93f4bb0470b32ec,60d9d14f4a8a35a482e0d9bf,60edf159fb509899abc66964,,,,,,,,,,,,
"[""period""]",0,[0.3370000000000175],40,0,40,0,1,6093ea19c93f4bb0470b32ec,Kobieta,18,2021-07-13_22h06.31.444,rantool2,2021.1.4,Win32,59.94125757,6093ea19c93f4bb0470b32ec,60d9d14f4a8a35a482e0d9bf,60edf159fb509899abc66964,,,,,,,,,,,,
"[""comma""]",0,[0.24409999942781724],41,0,41,0,1,6093ea19c93f4bb0470b32ec,Kobieta,18,2021-07-13_22h06.31.444,rantool2,2021.1.4,Win32,59.94125757,6093ea19c93f4bb0470b32ec,60d9d14f4a8a35a482e0d9bf,60edf159fb509899abc66964,,,,,,,,,,,,
"[""period""]",0,[0.28950000000000387],42,0,42,0,1,6093ea19c93f4bb0470b32ec,Kobieta,18,2021-07-13_22h06.31.444,rantool2,2021.1.4,Win32,59.94125757,6093ea19c93f4bb0470b32ec,60d9d14f4a8a35a482e0d9bf,60edf159fb509899abc66964,,,,,,,,,,,,
"[""comma""]",0,[0.24380000019073123],43,0,43,0,1,6093ea19c93f4bb0470b32ec,Kobieta,18,2021-07-13_22h06.31.444,rantool2,2021.1.4,Win32,59.94125757,6093ea19c93f4bb0470b32ec,60d9d14f4a8a35a482e0d9bf,60edf159fb509899abc66964,,,,,,,,,,,,
"[""period""]",0,[0.27570000076295287],44,0,44,0,1,6093ea19c93f4bb0470b32ec,Kobieta,18,2021-07-13_22h06.31.444,rantool2,2021.1.4,Win32,59.94125757,6093ea19c93f4bb0470b32ec,60d9d14f4a8a35a482e0d9bf,60edf159fb509899abc66964,,,,,,,,,,,,
"[""comma""]",0,[0.3355999994278136],45,0,45,0,1,6093ea19c93f4bb0470b32ec,Kobieta,18,2021-07-13_22h06.31.444,rantool2,2021.1.4,Win32,59.94125757,6093ea19c93f4bb0470b32ec,60d9d14f4a8a35a482e0d9bf,60edf159fb509899abc66964,,,,,,,,,,,,
"[""period""]",0,[0.34970000076296515],46,0,46,0,1,6093ea19c93f4bb0470b32ec,Kobieta,18,2021-07-13_22h06.31.444,rantool2,2021.1.4,Win32,59.94125757,6093ea19c93f4bb0470b32ec,60d9d14f4a8a35a482e0d9bf,60edf159fb509899abc66964,,,,,,,,,,,,
"[""comma""]",0,[0.5223999996185285],47,0,47,0,1,6093ea19c93f4bb0470b32ec,Kobieta,18,2021-07-13_22h06.31.444,rantool2,2021.1.4,Win32,59.94125757,6093ea19c93f4bb0470b32ec,60d9d14f4a8a35a482e0d9bf,60edf159fb509899abc66964,,,,,,,,,,,,
"[""period""]",0,[0.5498999996185319],48,0,48,0,1,6093ea19c93f4bb0470b32ec,Kobieta,18,2021-07-13_22h06.31.444,rantool2,2021.1.4,Win32,59.94125757,6093ea19c93f4bb0470b32ec,60d9d14f4a8a35a482e0d9bf,60edf159fb509899abc66964,,,,,,,,,,,,
"[""comma""]",0,[0.45869999980928355],49,0,49,0,1,6093ea19c93f4bb0470b32ec,Kobieta,18,2021-07-13_22h06.31.444,rantool2,2021.1.4,Win32,59.94125757,6093ea19c93f4bb0470b32ec,60d9d14f4a8a35a482e0d9bf,60edf159fb509899abc66964,,,,,,,,,,,,
"[""period""]",0,[0.3009999999999877],50,0,50,0,1,6093ea19c93f4bb0470b32ec,Kobieta,18,2021-07-13_22h06.31.444,rantool2,2021.1.4,Win32,59.94125757,6093ea19c93f4bb0470b32ec,60d9d14f4a8a35a482e0d9bf,60edf159fb509899abc66964,,,,,,,,,,,,
"[""comma""]",0,[0.30209999942778154],51,0,51,0,1,6093ea19c93f4bb0470b32ec,Kobieta,18,2021-07-13_22h06.31.444,rantool2,2021.1.4,Win32,59.94125757,6093ea19c93f4bb0470b32ec,60d9d14f4a8a35a482e0d9bf,60edf159fb509899abc66964,,,,,,,,,,,,
"[""period""]",0,[0.27340000057219527],52,0,52,0,1,6093ea19c93f4bb0470b32ec,Kobieta,18,2021-07-13_22h06.31.444,rantool2,2021.1.4,Win32,59.94125757,6093ea19c93f4bb0470b32ec,60d9d14f4a8a35a482e0d9bf,60edf159fb509899abc66964,,,,,,,,,,,,
"[""comma""]",0,[0.3066999998092683],53,0,53,0,1,6093ea19c93f4bb0470b32ec,Kobieta,18,2021-07-13_22h06.31.444,rantool2,2021.1.4,Win32,59.94125757,6093ea19c93f4bb0470b32ec,60d9d14f4a8a35a482e0d9bf,60edf159fb509899abc66964,,,,,,,,,,,,
"[""period""]",0,[0.2568999996185255],54,0,54,0,1,6093ea19c93f4bb0470b32ec,Kobieta,18,2021-07-13_22h06.31.444,rantool2,2021.1.4,Win32,59.94125757,6093ea19c93f4bb0470b32ec,60d9d14f4a8a35a482e0d9bf,60edf159fb509899abc66964,,,,,,,,,,,,
"[""comma""]",0,[0.24250000000000682],55,0,55,0,1,6093ea19c93f4bb0470b32ec,Kobieta,18,2021-07-13_22h06.31.444,rantool2,2021.1.4,Win32,59.94125757,6093ea19c93f4bb0470b32ec,60d9d14f4a8a35a482e0d9bf,60edf159fb509899abc66964,,,,,,,,,,,,
"[""period""]",0,[0.27239999961852845],56,0,56,0,1,6093ea19c93f4bb0470b32ec,Kobieta,18,2021-07-13_22h06.31.444,rantool2,2021.1.4,Win32,59.94125757,6093ea19c93f4bb0470b32ec,60d9d14f4a8a35a482e0d9bf,60edf159fb509899abc66964,,,,,,,,,,,,
"[""comma""]",0,[0.5510000000000161],57,0,57,0,1,6093ea19c93f4bb0470b32ec,Kobieta,18,2021-07-13_22h06.31.444,rantool2,2021.1.4,Win32,59.94125757,6093ea19c93f4bb0470b32ec,60d9d14f4a8a35a482e0d9bf,60edf159fb509899abc66964,,,,,,,,,,,,
"[""comma""]",0,[0.3355999994277852],58,0,58,0,1,6093ea19c93f4bb0470b32ec,Kobieta,18,2021-07-13_22h06.31.444,rantool2,2021.1.4,Win32,59.94125757,6093ea19c93f4bb0470b32ec,60d9d14f4a8a35a482e0d9bf,60edf159fb509899abc66964,,,,,,,,,,,,
"[""comma""]",0,[0.20740000057219277],59,0,59,0,1,6093ea19c93f4bb0470b32ec,Kobieta,18,2021-07-13_22h06.31.444,rantool2,2021.1.4,Win32,59.94125757,6093ea19c93f4bb0470b32ec,60d9d14f4a8a35a482e0d9bf,60edf159fb509899abc66964,,,,,,,,,,,,
"[""period""]",0,[0.3176999998092924],60,0,60,0,1,6093ea19c93f4bb0470b32ec,Kobieta,18,2021-07-13_22h06.31.444,rantool2,2021.1.4,Win32,59.94125757,6093ea19c93f4bb0470b32ec,60d9d14f4a8a35a482e0d9bf,60edf159fb509899abc66964,,,,,,,,,,,,
"[""comma""]",0,[0.22689999961852436],61,0,61,0,1,6093ea19c93f4bb0470b32ec,Kobieta,18,2021-07-13_22h06.31.444,rantool2,2021.1.4,Win32,59.94125757,6093ea19c93f4bb0470b32ec,60d9d14f4a8a35a482e0d9bf,60edf159fb509899abc66964,,,,,,,,,,,,
"[""period""]",0,[0.12049999999999272],62,0,62,0,1,6093ea19c93f4bb0470b32ec,Kobieta,18,2021-07-13_22h06.31.444,rantool2,2021.1.4,Win32,59.94125757,6093ea19c93f4bb0470b32ec,60d9d14f4a8a35a482e0d9bf,60edf159fb509899abc66964,,,,,,,,,,,,
"[""comma""]",0,[1.0212000007629456],63,0,63,0,1,6093ea19c93f4bb0470b32ec,Kobieta,18,2021-07-13_22h06.31.444,rantool2,2021.1.4,Win32,59.94125757,6093ea19c93f4bb0470b32ec,60d9d14f4a8a35a482e0d9bf,60edf159fb509899abc66964,,,,,,,,,,,,
"[""period""]",0,[1.0348999996185455],64,0,64,0,1,6093ea19c93f4bb0470b32ec,Kobieta,18,2021-07-13_22h06.31.444,rantool2,2021.1.4,Win32,59.94125757,6093ea19c93f4bb0470b32ec,60d9d14f4a8a35a482e0d9bf,60edf159fb509899abc66964,,,,,,,,,,,,
"[""comma""]",0,[0.7110000000000127],65,0,65,0,1,6093ea19c93f4bb0470b32ec,Kobieta,18,2021-07-13_22h06.31.444,rantool2,2021.1.4,Win32,59.94125757,6093ea19c93f4bb0470b32ec,60d9d14f4a8a35a482e0d9bf,60edf159fb509899abc66964,,,,,,,,,,,,
"[""comma""]",0,[0.2248999996185148],66,0,66,0,1,6093ea19c93f4bb0470b32ec,Kobieta,18,2021-07-13_22h06.31.444,rantool2,2021.1.4,Win32,59.94125757,6093ea19c93f4bb0470b32ec,60d9d14f4a8a35a482e0d9bf,60edf159fb509899abc66964,,,,,,,,,,,,
"[""period""]",0,[0.2573999996185421],67,0,67,0,1,6093ea19c93f4bb0470b32ec,Kobieta,18,2021-07-13_22h06.31.444,rantool2,2021.1.4,Win32,59.94125757,6093ea19c93f4bb0470b32ec,60d9d14f4a8a35a482e0d9bf,60edf159fb509899abc66964,,,,,,,,,,,,
"[""comma""]",0,[0.2131999998092624],68,0,68,0,1,6093ea19c93f4bb0470b32ec,Kobieta,18,2021-07-13_22h06.31.444,rantool2,2021.1.4,Win32,59.94125757,6093ea19c93f4bb0470b32ec,60d9d14f4a8a35a482e0d9bf,60edf159fb509899abc66964,,,,,,,,,,,,
"[""comma""]",0,[0.07619999980929038],69,0,69,0,1,6093ea19c93f4bb0470b32ec,Kobieta,18,2021-07-13_22h06.31.444,rantool2,2021.1.4,Win32,59.94125757,6093ea19c93f4bb0470b32ec,60d9d14f4a8a35a482e0d9bf,60edf159fb509899abc66964,,,,,,,,,,,,
"[""period""]",0,[0.26769999980928105],70,0,70,0,1,6093ea19c93f4bb0470b32ec,Kobieta,18,2021-07-13_22h06.31.444,rantool2,2021.1.4,Win32,59.94125757,6093ea19c93f4bb0470b32ec,60d9d14f4a8a35a482e0d9bf,60edf159fb509899abc66964,,,,,,,,,,,,
"[""comma""]",0,[0.2113999996185214],71,0,71,0,1,6093ea19c93f4bb0470b32ec,Kobieta,18,2021-07-13_22h06.31.444,rantool2,2021.1.4,Win32,59.94125757,6093ea19c93f4bb0470b32ec,60d9d14f4a8a35a482e0d9bf,60edf159fb509899abc66964,,,,,,,,,,,,
"[""comma""]",0,[0.28300000000001546],72,0,72,0,1,6093ea19c93f4bb0470b32ec,Kobieta,18,2021-07-13_22h06.31.444,rantool2,2021.1.4,Win32,59.94125757,6093ea19c93f4bb0470b32ec,60d9d14f4a8a35a482e0d9bf,60edf159fb509899abc66964,,,,,,,,,,,,
"[""period""]",0,[0.16889999961853164],73,0,73,0,1,6093ea19c93f4bb0470b32ec,Kobieta,18,2021-07-13_22h06.31.444,rantool2,2021.1.4,Win32,59.94125757,6093ea19c93f4bb0470b32ec,60d9d14f4a8a35a482e0d9bf,60edf159fb509899abc66964,,,,,,,,,,,,
"[""comma""]",0,[0.25359999942779154],74,0,74,0,1,6093ea19c93f4bb0470b32ec,Kobieta,18,2021-07-13_22h06.31.444,rantool2,2021.1.4,Win32,59.94125757,6093ea19c93f4bb0470b32ec,60d9d14f4a8a35a482e0d9bf,60edf159fb509899abc66964,,,,,,,,,,,,
"[""period""]",0,[0.25090000057221573],75,0,75,0,1,6093ea19c93f4bb0470b32ec,Kobieta,18,2021-07-13_22h06.31.444,rantool2,2021.1.4,Win32,59.94125757,6093ea19c93f4bb0470b32ec,60d9d14f4a8a35a482e0d9bf,60edf159fb509899abc66964,,,,,,,,,,,,
"[""comma""]",0,[0.23470000076292763],76,0,76,0,1,6093ea19c93f4bb0470b32ec,Kobieta,18,2021-07-13_22h06.31.444,rantool2,2021.1.4,Win32,59.94125757,6093ea19c93f4bb0470b32ec,60d9d14f4a8a35a482e0d9bf,60edf159fb509899abc66964,,,,,,,,,,,,
"[""period""]",0,[0.3540000000000134],77,0,77,0,1,6093ea19c93f4bb0470b32ec,Kobieta,18,2021-07-13_22h06.31.444,rantool2,2021.1.4,Win32,59.94125757,6093ea19c93f4bb0470b32ec,60d9d14f4a8a35a482e0d9bf,60edf159fb509899abc66964,,,,,,,,,,,,
"[""comma""]",0,[0.23590000057220095],78,0,78,0,1,6093ea19c93f4bb0470b32ec,Kobieta,18,2021-07-13_22h06.31.444,rantool2,2021.1.4,Win32,59.94125757,6093ea19c93f4bb0470b32ec,60d9d14f4a8a35a482e0d9bf,60edf159fb509899abc66964,,,,,,,,,,,,
"[""comma""]",0,[0.234400000572208],79,0,79,0,1,6093ea19c93f4bb0470b32ec,Kobieta,18,2021-07-13_22h06.31.444,rantool2,2021.1.4,Win32,59.94125757,6093ea19c93f4bb0470b32ec,60d9d14f4a8a35a482e0d9bf,60edf159fb509899abc66964,,,,,,,,,,,,
"[""comma""]",0,[0.33499999999997954],80,0,80,0,1,6093ea19c93f4bb0470b32ec,Kobieta,18,2021-07-13_22h06.31.444,rantool2,2021.1.4,Win32,59.94125757,6093ea19c93f4bb0470b32ec,60d9d14f4a8a35a482e0d9bf,60edf159fb509899abc66964,,,,,,,,,,,,
"[""period""]",0,[0.2063000001907369],81,0,81,0,1,6093ea19c93f4bb0470b32ec,Kobieta,18,2021-07-13_22h06.31.444,rantool2,2021.1.4,Win32,59.94125757,6093ea19c93f4bb0470b32ec,60d9d14f4a8a35a482e0d9bf,60edf159fb509899abc66964,,,,,,,,,,,,
"[""comma""]",0,[0.26780000019073213],82,0,82,0,1,6093ea19c93f4bb0470b32ec,Kobieta,18,2021-07-13_22h06.31.444,rantool2,2021.1.4,Win32,59.94125757,6093ea19c93f4bb0470b32ec,60d9d14f4a8a35a482e0d9bf,60edf159fb509899abc66964,,,,,,,,,,,,
"[""period""]",0,[0.30450000000001864],83,0,83,0,1,6093ea19c93f4bb0470b32ec,Kobieta,18,2021-07-13_22h06.31.444,rantool2,2021.1.4,Win32,59.94125757,6093ea19c93f4bb0470b32ec,60d9d14f4a8a35a482e0d9bf,60edf159fb509899abc66964,,,,,,,,,,,,
"[""comma""]",0,[0.34369999980927446],84,0,84,0,1,6093ea19c93f4bb0470b32ec,Kobieta,18,2021-07-13_22h06.31.444,rantool2,2021.1.4,Win32,59.94125757,6093ea19c93f4bb0470b32ec,60d9d14f4a8a35a482e0d9bf,60edf159fb509899abc66964,,,,,,,,,,,,
"[""comma""]",0,[0.6508000001907419],85,0,85,0,1,6093ea19c93f4bb0470b32ec,Kobieta,18,2021-07-13_22h06.31.444,rantool2,2021.1.4,Win32,59.94125757,6093ea19c93f4bb0470b32ec,60d9d14f4a8a35a482e0d9bf,60edf159fb509899abc66964,,,,,,,,,,,,
"[""period""]",0,[0.4428000001907435],86,0,86,0,1,6093ea19c93f4bb0470b32ec,Kobieta,18,2021-07-13_22h06.31.444,rantool2,2021.1.4,Win32,59.94125757,6093ea19c93f4bb0470b32ec,60d9d14f4a8a35a482e0d9bf,60edf159fb509899abc66964,,,,,,,,,,,,
"[""comma""]",0,[0.6343999996185516],87,0,87,0,1,6093ea19c93f4bb0470b32ec,Kobieta,18,2021-07-13_22h06.31.444,rantool2,2021.1.4,Win32,59.94125757,6093ea19c93f4bb0470b32ec,60d9d14f4a8a35a482e0d9bf,60edf159fb509899abc66964,,,,,,,,,,,,
"[""comma""]",0,[0.28430000019073987],88,0,88,0,1,6093ea19c93f4bb0470b32ec,Kobieta,18,2021-07-13_22h06.31.444,rantool2,2021.1.4,Win32,59.94125757,6093ea19c93f4bb0470b32ec,60d9d14f4a8a35a482e0d9bf,60edf159fb509899abc66964,,,,,,,,,,,,
"[""period""]",0,[0.2855000000000132],89,0,89,0,1,6093ea19c93f4bb0470b32ec,Kobieta,18,2021-07-13_22h06.31.444,rantool2,2021.1.4,Win32,59.94125757,6093ea19c93f4bb0470b32ec,60d9d14f4a8a35a482e0d9bf,60edf159fb509899abc66964,,,,,,,,,,,,
"[""comma""]",0,[0.24439999961850845],90,0,90,0,1,6093ea19c93f4bb0470b32ec,Kobieta,18,2021-07-13_22h06.31.444,rantool2,2021.1.4,Win32,59.94125757,6093ea19c93f4bb0470b32ec,60d9d14f4a8a35a482e0d9bf,60edf159fb509899abc66964,,,,,,,,,,,,
"[""period""]",0,[0.27690000057219777],91,0,91,0,1,6093ea19c93f4bb0470b32ec,Kobieta,18,2021-07-13_22h06.31.444,rantool2,2021.1.4,Win32,59.94125757,6093ea19c93f4bb0470b32ec,60d9d14f4a8a35a482e0d9bf,60edf159fb509899abc66964,,,,,,,,,,,,
"[""comma""]",0,[0.28430000019073987],92,0,92,0,1,6093ea19c93f4bb0470b32ec,Kobieta,18,2021-07-13_22h06.31.444,rantool2,2021.1.4,Win32,59.94125757,6093ea19c93f4bb0470b32ec,60d9d14f4a8a35a482e0d9bf,60edf159fb509899abc66964,,,,,,,,,,,,
"[""period""]",0,[0.28890000057225507],93,0,93,0,1,6093ea19c93f4bb0470b32ec,Kobieta,18,2021-07-13_22h06.31.444,rantool2,2021.1.4,Win32,59.94125757,6093ea19c93f4bb0470b32ec,60d9d14f4a8a35a482e0d9bf,60edf159fb509899abc66964,,,,,,,,,,,,
"[""comma""]",0,[0.5023999996185466],94,0,94,0,1,6093ea19c93f4bb0470b32ec,Kobieta,18,2021-07-13_22h06.31.444,rantool2,2021.1.4,Win32,59.94125757,6093ea19c93f4bb0470b32ec,60d9d14f4a8a35a482e0d9bf,60edf159fb509899abc66964,,,,,,,,,,,,
"[""period""]",0,[0.2861999998092415],95,0,95,0,1,6093ea19c93f4bb0470b32ec,Kobieta,18,2021-07-13_22h06.31.444,rantool2,2021.1.4,Win32,59.94125757,6093ea19c93f4bb0470b32ec,60d9d14f4a8a35a482e0d9bf,60edf159fb509899abc66964,,,,,,,,,,,,
"[""period""]",0,[0.28480000019072804],96,0,96,0,1,6093ea19c93f4bb0470b32ec,Kobieta,18,2021-07-13_22h06.31.444,rantool2,2021.1.4,Win32,59.94125757,6093ea19c93f4bb0470b32ec,60d9d14f4a8a35a482e0d9bf,60edf159fb509899abc66964,,,,,,,,,,,,
"[""comma""]",0,[0.3175999994277845],97,0,97,0,1,6093ea19c93f4bb0470b32ec,Kobieta,18,2021-07-13_22h06.31.444,rantool2,2021.1.4,Win32,59.94125757,6093ea19c93f4bb0470b32ec,60d9d14f4a8a35a482e0d9bf,60edf159fb509899abc66964,,,,,,,,,,,,
"[""comma""]",0,[0.3343999996185403],98,0,98,0,1,6093ea19c93f4bb0470b32ec,Kobieta,18,2021-07-13_22h06.31.444,rantool2,2021.1.4,Win32,59.94125757,6093ea19c93f4bb0470b32ec,60d9d14f4a8a35a482e0d9bf,60edf159fb509899abc66964,,,,,,,,,,,,
"[""period""]",0,[0.24580000019074077],99,0,99,0,1,6093ea19c93f4bb0470b32ec,Kobieta,18,2021-07-13_22h06.31.444,rantool2,2021.1.4,Win32,59.94125757,6093ea19c93f4bb0470b32ec,60d9d14f4a8a35a482e0d9bf,60edf159fb509899abc66964,,,,,,,,,,,,
"[""comma""]",0,[0.055400000572205954],100,0,100,0,1,6093ea19c93f4bb0470b32ec,Kobieta,18,2021-07-13_22h06.31.444,rantool2,2021.1.4,Win32,59.94125757,6093ea19c93f4bb0470b32ec,60d9d14f4a8a35a482e0d9bf,60edf159fb509899abc66964,,,,,,,,,,,,
"[""period""]",0,[0.2696000003814447],101,0,101,0,1,6093ea19c93f4bb0470b32ec,Kobieta,18,2021-07-13_22h06.31.444,rantool2,2021.1.4,Win32,59.94125757,6093ea19c93f4bb0470b32ec,60d9d14f4a8a35a482e0d9bf,60edf159fb509899abc66964,,,,,,,,,,,,
"[""comma""]",0,[0.49279999923709283],102,0,102,0,1,6093ea19c93f4bb0470b32ec,Kobieta,18,2021-07-13_22h06.31.444,rantool2,2021.1.4,Win32,59.94125757,6093ea19c93f4bb0470b32ec,60d9d14f4a8a35a482e0d9bf,60edf159fb509899abc66964,,,,,,,,,,,,
"[""period""]",0,[0.4402000007628999],103,0,103,0,1,6093ea19c93f4bb0470b32ec,Kobieta,18,2021-07-13_22h06.31.444,rantool2,2021.1.4,Win32,59.94125757,6093ea19c93f4bb0470b32ec,60d9d14f4a8a35a482e0d9bf,60edf159fb509899abc66964,,,,,,,,,,,,
"[""comma""]",0,[0.3348000001907394],104,0,104,0,1,6093ea19c93f4bb0470b32ec,Kobieta,18,2021-07-13_22h06.31.444,rantool2,2021.1.4,Win32,59.94125757,6093ea19c93f4bb0470b32ec,60d9d14f4a8a35a482e0d9bf,60edf159fb509899abc66964,,,,,,,,,,,,
"[""period""]",0,[0.26400000000001],105,0,105,0,1,6093ea19c93f4bb0470b32ec,Kobieta,18,2021-07-13_22h06.31.444,rantool2,2021.1.4,Win32,59.94125757,6093ea19c93f4bb0470b32ec,60d9d14f4a8a35a482e0d9bf,60edf159fb509899abc66964,,,,,,,,,,,,
"[""period""]",0,[0.2724000005721905],106,0,106,0,1,6093ea19c93f4bb0470b32ec,Kobieta,18,2021-07-13_22h06.31.444,rantool2,2021.1.4,Win32,59.94125757,6093ea19c93f4bb0470b32ec,60d9d14f4a8a35a482e0d9bf,60edf159fb509899abc66964,,,,,,,,,,,,
"[""period""]",0,[0.323100000381487],107,0,107,0,1,6093ea19c93f4bb0470b32ec,Kobieta,18,2021-07-13_22h06.31.444,rantool2,2021.1.4,Win32,59.94125757,6093ea19c93f4bb0470b32ec,60d9d14f4a8a35a482e0d9bf,60edf159fb509899abc66964,,,,,,,,,,,,
"[""period""]",0,[0.6020999994277645],108,0,108,0,1,6093ea19c93f4bb0470b32ec,Kobieta,18,2021-07-13_22h06.31.444,rantool2,2021.1.4,Win32,59.94125757,6093ea19c93f4bb0470b32ec,60d9d14f4a8a35a482e0d9bf,60edf159fb509899abc66964,,,,,,,,,,,,
"[""comma""]",0,[0.32030000019074123],109,0,109,0,1,6093ea19c93f4bb0470b32ec,Kobieta,18,2021-07-13_22h06.31.444,rantool2,2021.1.4,Win32,59.94125757,6093ea19c93f4bb0470b32ec,60d9d14f4a8a35a482e0d9bf,60edf159fb509899abc66964,,,,,,,,,,,,
"[""period""]",0,[0.25140000057223233],110,0,110,0,1,6093ea19c93f4bb0470b32ec,Kobieta,18,2021-07-13_22h06.31.444,rantool2,2021.1.4,Win32,59.94125757,6093ea19c93f4bb0470b32ec,60d9d14f4a8a35a482e0d9bf,60edf159fb509899abc66964,,,,,,,,,,,,
"[""comma""]",0,[0.1444000005722046],111,0,111,0,1,6093ea19c93f4bb0470b32ec,Kobieta,18,2021-07-13_22h06.31.444,rantool2,2021.1.4,Win32,59.94125757,6093ea19c93f4bb0470b32ec,60d9d14f4a8a35a482e0d9bf,60edf159fb509899abc66964,,,,,,,,,,,,
"[""period""]",0,[0.1904999999999859],112,0,112,0,1,6093ea19c93f4bb0470b32ec,Kobieta,18,2021-07-13_22h06.31.444,rantool2,2021.1.4,Win32,59.94125757,6093ea19c93f4bb0470b32ec,60d9d14f4a8a35a482e0d9bf,60edf159fb509899abc66964,,,,,,,,,,,,
"[""period""]",0,[0.24619999980922103],113,0,113,0,1,6093ea19c93f4bb0470b32ec,Kobieta,18,2021-07-13_22h06.31.444,rantool2,2021.1.4,Win32,59.94125757,6093ea19c93f4bb0470b32ec,60d9d14f4a8a35a482e0d9bf,60edf159fb509899abc66964,,,,,,,,,,,,
"[""comma""]",0,[0.23500000000001364],114,0,114,0,1,6093ea19c93f4bb0470b32ec,Kobieta,18,2021-07-13_22h06.31.444,rantool2,2021.1.4,Win32,59.94125757,6093ea19c93f4bb0470b32ec,60d9d14f4a8a35a482e0d9bf,60edf159fb509899abc66964,,,,,,,,,,,,
"[""period""]",0,[0.4513999996185021],115,0,115,0,1,6093ea19c93f4bb0470b32ec,Kobieta,18,2021-07-13_22h06.31.444,rantool2,2021.1.4,Win32,59.94125757,6093ea19c93f4bb0470b32ec,60d9d14f4a8a35a482e0d9bf,60edf159fb509899abc66964,,,,,,,,,,,,
"[""comma""]",0,[0.4036999998092483],116,0,116,0,1,6093ea19c93f4bb0470b32ec,Kobieta,18,2021-07-13_22h06.31.444,rantool2,2021.1.4,Win32,59.94125757,6093ea19c93f4bb0470b32ec,60d9d14f4a8a35a482e0d9bf,60edf159fb509899abc66964,,,,,,,,,,,,
"[""period""]",0,[0.26650000000000773],117,0,117,0,1,6093ea19c93f4bb0470b32ec,Kobieta,18,2021-07-13_22h06.31.444,rantool2,2021.1.4,Win32,59.94125757,6093ea19c93f4bb0470b32ec,60d9d14f4a8a35a482e0d9bf,60edf159fb509899abc66964,,,,,,,,,,,,
"[""comma""]",0,[0.11890000057218231],118,0,118,0,1,6093ea19c93f4bb0470b32ec,Kobieta,18,2021-07-13_22h06.31.444,rantool2,2021.1.4,Win32,59.94125757,6093ea19c93f4bb0470b32ec,60d9d14f4a8a35a482e0d9bf,60edf159fb509899abc66964,,,,,,,,,,,,
"[""period""]",0,[0.19009999942778677],119,0,119,0,1,6093ea19c93f4bb0470b32ec,Kobieta,18,2021-07-13_22h06.31.444,rantool2,2021.1.4,Win32,59.94125757,6093ea19c93f4bb0470b32ec,60d9d14f4a8a35a482e0d9bf,60edf159fb509899abc66964,,,,,,,,,,,,
,,,,,,,,6093ea19c93f4bb0470b32ec,Kobieta,18,2021-07-13_22h06.31.444,rantool2,2021.1.4,Win32,59.94125757,6093ea19c93f4bb0470b32ec,60d9d14f4a8a35a482e0d9bf,60edf159fb509899abc66964,,0,0,0,41,1,ROROORO,ROROORR,20.42602454,21.71443381,series_1,
,,,,,,,,6093ea19c93f4bb0470b32ec,Kobieta,18,2021-07-13_22h06.31.444,rantool2,2021.1.4,Win32,59.94125757,6093ea19c93f4bb0470b32ec,60d9d14f4a8a35a482e0d9bf,60edf159fb509899abc66964,j,0,1,1,17,1,OROOORO,OROOORR,21.03750787,22.12173012,series_1,0.3013
,,,,,,,,6093ea19c93f4bb0470b32ec,Kobieta,18,2021-07-13_22h06.31.444,rantool2,2021.1.4,Win32,59.94125757,6093ea19c93f4bb0470b32ec,60d9d14f4a8a35a482e0d9bf,60edf159fb509899abc66964,f,0,2,2,22,1,ORORROO,ORORROR,22.02732763,21.57657071,series_0,4.0851
,,,,,,,,6093ea19c93f4bb0470b32ec,Kobieta,18,2021-07-13_22h06.31.444,rantool2,2021.1.4,Win32,59.94125757,6093ea19c93f4bb0470b32ec,60d9d14f4a8a35a482e0d9bf,60edf159fb509899abc66964,j,0,3,3,57,1,RRROORO,RRROORR,21.82425538,22.07102821,series_1,4.352
,,,,,,,,6093ea19c93f4bb0470b32ec,Kobieta,18,2021-07-13_22h06.31.444,rantool2,2021.1.4,Win32,59.94125757,6093ea19c93f4bb0470b32ec,60d9d14f4a8a35a482e0d9bf,60edf159fb509899abc66964,f,0,4,4,48,1,RROOOOO,RROOOOR,20.90986523,22.15934078,series_1,1.9182
,,,,,,,,6093ea19c93f4bb0470b32ec,Kobieta,18,2021-07-13_22h06.31.444,rantool2,2021.1.4,Win32,59.94125757,6093ea19c93f4bb0470b32ec,60d9d14f4a8a35a482e0d9bf,60edf159fb509899abc66964,f,0,5,5,1,1,OOOOORO,OOOOORR,19.92253567,20.74050628,series_1,3.0348
,,,,,,,,6093ea19c93f4bb0470b32ec,Kobieta,18,2021-07-13_22h06.31.444,rantool2,2021.1.4,Win32,59.94125757,6093ea19c93f4bb0470b32ec,60d9d14f4a8a35a482e0d9bf,60edf159fb509899abc66964,f,0,6,6,40,1,ROROOOO,ROROOOR,20.87963819,21.37121559,series_1,3.2518
,,,,,,,,6093ea19c93f4bb0470b32ec,Kobieta,18,2021-07-13_22h06.31.444,rantool2,2021.1.4,Win32,59.94125757,6093ea19c93f4bb0470b32ec,60d9d14f4a8a35a482e0d9bf,60edf159fb509899abc66964,f,0,7,7,25,1,ORROORO,ORROORR,21.79500819,22.61624387,series_1,3.9518
,,,,,,,,6093ea19c93f4bb0470b32ec,Kobieta,18,2021-07-13_22h06.31.444,rantool2,2021.1.4,Win32,59.94125757,6093ea19c93f4bb0470b32ec,60d9d14f4a8a35a482e0d9bf,60edf159fb509899abc66964,f,0,8,8,18,1,OROOROO,OROOROR,20.84860893,21.22513037,series_1,2.4682
,,,,,,,,6093ea19c93f4bb0470b32ec,Kobieta,18,2021-07-13_22h06.31.444,rantool2,2021.1.4,Win32,59.94125757,6093ea19c93f4bb0470b32ec,60d9d14f4a8a35a482e0d9bf,60edf159fb509899abc66964,j,0,9,9,24,1,ORROOOO,ORROOOR,21.12383932,22.07102821,series_1,1.553599999
,,,,,,,,6093ea19c93f4bb0470b32ec,Kobieta,18,2021-07-13_22h06.31.444,rantool2,2021.1.4,Win32,59.94125757,6093ea19c93f4bb0470b32ec,60d9d14f4a8a35a482e0d9bf,60edf159fb509899abc66964,f,0,10,10,26,1,ORROROO,ORROROR,22.02732763,21.71443381,series_0,2.1849
,,,,,,,,6093ea19c93f4bb0470b32ec,Kobieta,18,2021-07-13_22h06.31.444,rantool2,2021.1.4,Win32,59.94125757,6093ea19c93f4bb0470b32ec,60d9d14f4a8a35a482e0d9bf,60edf159fb509899abc66964,f,0,11,11,43,1,RORORRO,RORORRR,20.71309134,21.07490964,series_1,3.701700001
,,,,,,,,6093ea19c93f4bb0470b32ec,Kobieta,18,2021-07-13_22h06.31.444,rantool2,2021.1.4,Win32,59.94125757,6093ea19c93f4bb0470b32ec,60d9d14f4a8a35a482e0d9bf,60edf159fb509899abc66964,j,0,12,12,16,1,OROOOOO,OROOOOR,20.43051175,21.17347734,series_1,2.8015
,,,,,,,,6093ea19c93f4bb0470b32ec,Kobieta,18,2021-07-13_22h06.31.444,rantool2,2021.1.4,Win32,59.94125757,6093ea19c93f4bb0470b32ec,60d9d14f4a8a35a482e0d9bf,60edf159fb509899abc66964,j,0,13,13,46,1,RORRROO,RORRROR,22.00300695,21.24781509,series_0,3.2852
,,,,,,,,6093ea19c93f4bb0470b32ec,Kobieta,18,2021-07-13_22h06.31.444,rantool2,2021.1.4,Win32,59.94125757,6093ea19c93f4bb0470b32ec,60d9d14f4a8a35a482e0d9bf,60edf159fb509899abc66964,j,0,14,14,29,1,ORRRORO,ORRRORR,22.00300695,22.12173012,series_1,1.501900001
,,,,,,,,6093ea19c93f4bb0470b32ec,Kobieta,18,2021-07-13_22h06.31.444,rantool2,2021.1.4,Win32,59.94125757,6093ea19c93f4bb0470b32ec,60d9d14f4a8a35a482e0d9bf,60edf159fb509899abc66964,j,0,15,15,42,1,ROROROO,ROROROR,20.39515459,19.8361834,series_0,1.3846
,,,,,,,,6093ea19c93f4bb0470b32ec,Kobieta,18,2021-07-13_22h06.31.444,rantool2,2021.1.4,Win32,59.94125757,6093ea19c93f4bb0470b32ec,60d9d14f4a8a35a482e0d9bf,60edf159fb509899abc66964,j,0,16,16,51,1,RROORRO,RROORRR,21.89852628,22.02786418,series_1,1.3183
,,,,,,,,6093ea19c93f4bb0470b32ec,Kobieta,18,2021-07-13_22h06.31.444,rantool2,2021.1.4,Win32,59.94125757,6093ea19c93f4bb0470b32ec,60d9d14f4a8a35a482e0d9bf,60edf159fb509899abc66964,f,0,17,17,4,1,OOOROOO,OOOROOR,19.91402015,21.21223021,series_1,1.6348
,,,,,,,,6093ea19c93f4bb0470b32ec,Kobieta,18,2021-07-13_22h06.31.444,rantool2,2021.1.4,Win32,59.94125757,6093ea19c93f4bb0470b32ec,60d9d14f4a8a35a482e0d9bf,60edf159fb509899abc66964,j,0,18,18,15,1,OORRRRO,OORRRRR,22.10108823,21.74922619,series_0,3.3185
,,,,,,,,6093ea19c93f4bb0470b32ec,Kobieta,18,2021-07-13_22h06.31.444,rantool2,2021.1.4,Win32,59.94125757,6093ea19c93f4bb0470b32ec,60d9d14f4a8a35a482e0d9bf,60edf159fb509899abc66964,f,0,19,19,19,1,OROORRO,OROORRR,21.73568164,22.11181017,series_1,2.3012
,,,,,,,,6093ea19c93f4bb0470b32ec,Kobieta,18,2021-07-13_22h06.31.444,rantool2,2021.1.4,Win32,59.94125757,6093ea19c93f4bb0470b32ec,60d9d14f4a8a35a482e0d9bf,60edf159fb509899abc66964,j,0,20,20,8,1,OOROOOO,OOROOOR,19.91402015,20.89823192,series_1,1.777400001
,,,,,,,,6093ea19c93f4bb0470b32ec,Kobieta,18,2021-07-13_22h06.31.444,rantool2,2021.1.4,Win32,59.94125757,6093ea19c93f4bb0470b32ec,60d9d14f4a8a35a482e0d9bf,60edf159fb509899abc66964,j,0,21,21,30,1,ORRRROO,ORRRROR,22.46748491,22.03072203,series_0,1.692
,,,,,,,,6093ea19c93f4bb0470b32ec,Kobieta,18,2021-07-13_22h06.31.444,rantool2,2021.1.4,Win32,59.94125757,6093ea19c93f4bb0470b32ec,60d9d14f4a8a35a482e0d9bf,60edf159fb509899abc66964,f,0,22,22,54,1,RRORROO,RRORROR,21.55250791,20.9984461,series_0,3.5679
,,,,,,,,6093ea19c93f4bb0470b32ec,Kobieta,18,2021-07-13_22h06.31.444,rantool2,2021.1.4,Win32,59.94125757,6093ea19c93f4bb0470b32ec,60d9d14f4a8a35a482e0d9bf,60edf159fb509899abc66964,f,0,23,23,59,1,RRRORRO,RRRORRR,21.56657303,20.89823192,series_0,1.4344
,,,,,,,,6093ea19c93f4bb0470b32ec,Kobieta,18,2021-07-13_22h06.31.444,rantool2,2021.1.4,Win32,59.94125757,6093ea19c93f4bb0470b32ec,60d9d14f4a8a35a482e0d9bf,60edf159fb509899abc66964,j,0,24,24,23,1,ORORRRO,ORORRRR,22.1285618,21.9921709,series_0,1.441599999
,,,,,,,,6093ea19c93f4bb0470b32ec,Kobieta,18,2021-07-13_22h06.31.444,rantool2,2021.1.4,Win32,59.94125757,6093ea19c93f4bb0470b32ec,60d9d14f4a8a35a482e0d9bf,60edf159fb509899abc66964,f,0,25,25,3,1,OOOORRO,OOOORRR,20.90986523,21.74922619,series_1,2.4805
,,,,,,,,6093ea19c93f4bb0470b32ec,Kobieta,18,2021-07-13_22h06.31.444,rantool2,2021.1.4,Win32,59.94125757,6093ea19c93f4bb0470b32ec,60d9d14f4a8a35a482e0d9bf,60edf159fb509899abc66964,j,0,26,26,7,1,OOORRRO,OOORRRR,21.6194508,21.899017,series_1,1.022099999
,,,,,,,,6093ea19c93f4bb0470b32ec,Kobieta,18,2021-07-13_22h06.31.444,rantool2,2021.1.4,Win32,59.94125757,6093ea19c93f4bb0470b32ec,60d9d14f4a8a35a482e0d9bf,60edf159fb509899abc66964,f,0,27,27,61,1,RRRRORO,RRRRORR,21.81333602,21.17347734,series_0,1.652400001
,,,,,,,,6093ea19c93f4bb0470b32ec,Kobieta,18,2021-07-13_22h06.31.444,rantool2,2021.1.4,Win32,59.94125757,6093ea19c93f4bb0470b32ec,60d9d14f4a8a35a482e0d9bf,60edf159fb509899abc66964,f,0,28,28,10,1,OOROROO,OOROROR,21.31236711,21.07490964,series_0,2.8668
,,,,,,,,6093ea19c93f4bb0470b32ec,Kobieta,18,2021-07-13_22h06.31.444,rantool2,2021.1.4,Win32,59.94125757,6093ea19c93f4bb0470b32ec,60d9d14f4a8a35a482e0d9bf,60edf159fb509899abc66964,f,0,29,29,50,1,RROOROO,RROOROR,21.73568164,22.02566557,series_1,2.9346
,,,,,,,,6093ea19c93f4bb0470b32ec,Kobieta,18,2021-07-13_22h06.31.444,rantool2,2021.1.4,Win32,59.94125757,6093ea19c93f4bb0470b32ec,60d9d14f4a8a35a482e0d9bf,60edf159fb509899abc66964,j,0,30,30,20,1,OROROOO,OROROOR,21.31236711,21.90565814,series_1,1.668799999
,,,,,,,,6093ea19c93f4bb0470b32ec,Kobieta,18,2021-07-13_22h06.31.444,rantool2,2021.1.4,Win32,59.94125757,6093ea19c93f4bb0470b32ec,60d9d14f4a8a35a482e0d9bf,60edf159fb509899abc66964,f,0,31,31,55,1,RRORRRO,RRORRRR,21.56657303,21.21223021,series_0,1.634400001
,,,,,,,,6093ea19c93f4bb0470b32ec,Kobieta,18,2021-07-13_22h06.31.444,rantool2,2021.1.4,Win32,59.94125757,6093ea19c93f4bb0470b32ec,60d9d14f4a8a35a482e0d9bf,60edf159fb509899abc66964,j,0,32,32,37,1,ROORORO,ROORORR,20.42602454,21.57657071,series_1,1.484400001
,,,,,,,,6093ea19c93f4bb0470b32ec,Kobieta,18,2021-07-13_22h06.31.444,rantool2,2021.1.4,Win32,59.94125757,6093ea19c93f4bb0470b32ec,60d9d14f4a8a35a482e0d9bf,60edf159fb509899abc66964,j,0,33,33,14,1,OORRROO,OORRROR,22.24142883,22.16977179,series_0,1.2511
,,,,,,,,6093ea19c93f4bb0470b32ec,Kobieta,18,2021-07-13_22h06.31.444,rantool2,2021.1.4,Win32,59.94125757,6093ea19c93f4bb0470b32ec,60d9d14f4a8a35a482e0d9bf,60edf159fb509899abc66964,j,0,34,34,21,1,ORORORO,ORORORR,20.39515459,22.06781359,series_1,1.6278
,,,,,,,,6093ea19c93f4bb0470b32ec,Kobieta,18,2021-07-13_22h06.31.444,rantool2,2021.1.4,Win32,59.94125757,6093ea19c93f4bb0470b32ec,60d9d14f4a8a35a482e0d9bf,60edf159fb509899abc66964,j,0,35,35,34,1,ROOOROO,ROOOROR,21.03750787,21.24781509,series_1,1.652
,,,,,,,,6093ea19c93f4bb0470b32ec,Kobieta,18,2021-07-13_22h06.31.444,rantool2,2021.1.4,Win32,59.94125757,6093ea19c93f4bb0470b32ec,60d9d14f4a8a35a482e0d9bf,60edf159fb509899abc66964,f,0,36,36,52,1,RROROOO,RROROOR,22.18365867,22.11097995,series_0,1.118799999
,,,,,,,,6093ea19c93f4bb0470b32ec,Kobieta,18,2021-07-13_22h06.31.444,rantool2,2021.1.4,Win32,59.94125757,6093ea19c93f4bb0470b32ec,60d9d14f4a8a35a482e0d9bf,60edf159fb509899abc66964,f,0,37,37,49,1,RROOORO,RROOORR,21.76276513,22.53364006,series_1,2.7183
,,,,,,,,6093ea19c93f4bb0470b32ec,Kobieta,18,2021-07-13_22h06.31.444,rantool2,2021.1.4,Win32,59.94125757,6093ea19c93f4bb0470b32ec,60d9d14f4a8a35a482e0d9bf,60edf159fb509899abc66964,j,0,38,38,6,1,OOORROO,OOORROR,21.12383932,21.38562617,series_1,1.5359
,,,,,,,,6093ea19c93f4bb0470b32ec,Kobieta,18,2021-07-13_22h06.31.444,rantool2,2021.1.4,Win32,59.94125757,6093ea19c93f4bb0470b32ec,60d9d14f4a8a35a482e0d9bf,60edf159fb509899abc66964,f,0,39,39,44,1,RORROOO,RORROOR,21.66733484,22.02566557,series_1,1.8681
,,,,,,,,6093ea19c93f4bb0470b32ec,Kobieta,18,2021-07-13_22h06.31.444,rantool2,2021.1.4,Win32,59.94125757,6093ea19c93f4bb0470b32ec,60d9d14f4a8a35a482e0d9bf,60edf159fb509899abc66964,f,0,40,40,38,1,ROORROO,ROORROR,21.79500819,21.36812781,series_0,2.4048
,,,,,,,,6093ea19c93f4bb0470b32ec,Kobieta,18,2021-07-13_22h06.31.444,rantool2,2021.1.4,Win32,59.94125757,6093ea19c93f4bb0470b32ec,60d9d14f4a8a35a482e0d9bf,60edf159fb509899abc66964,f,0,41,41,9,1,OOROORO,OOROORR,21.07991943,22.2428857,series_1,1.354599999
,,,,,,,,6093ea19c93f4bb0470b32ec,Kobieta,18,2021-07-13_22h06.31.444,rantool2,2021.1.4,Win32,59.94125757,6093ea19c93f4bb0470b32ec,60d9d14f4a8a35a482e0d9bf,60edf159fb509899abc66964,j,0,42,42,45,1,RORRORO,RORRORR,20.78182524,21.22513037,series_1,2.9764
,,,,,,,,6093ea19c93f4bb0470b32ec,Kobieta,18,2021-07-13_22h06.31.444,rantool2,2021.1.4,Win32,59.94125757,6093ea19c93f4bb0470b32ec,60d9d14f4a8a35a482e0d9bf,60edf159fb509899abc66964,f,0,43,43,32,1,ROOOOOO,ROOOOOR,19.92253567,21.27974287,series_1,1.976099999
,,,,,,,,6093ea19c93f4bb0470b32ec,Kobieta,18,2021-07-13_22h06.31.444,rantool2,2021.1.4,Win32,59.94125757,6093ea19c93f4bb0470b32ec,60d9d14f4a8a35a482e0d9bf,60edf159fb509899abc66964,f,0,44,44,28,1,ORRROOO,ORRROOR,22.24142883,22.53364006,series_1,2.191299999
,,,,,,,,6093ea19c93f4bb0470b32ec,Kobieta,18,2021-07-13_22h06.31.444,rantool2,2021.1.4,Win32,59.94125757,6093ea19c93f4bb0470b32ec,60d9d14f4a8a35a482e0d9bf,60edf159fb509899abc66964,f,0,45,45,36,1,ROOROOO,ROOROOR,21.07991943,20.9984461,series_0,2.536
,,,,,,,,6093ea19c93f4bb0470b32ec,Kobieta,18,2021-07-13_22h06.31.444,rantool2,2021.1.4,Win32,59.94125757,6093ea19c93f4bb0470b32ec,60d9d14f4a8a35a482e0d9bf,60edf159fb509899abc66964,j,0,46,46,31,1,ORRRRRO,ORRRRRR,22.16413392,20.74050628,series_0,2.3211
,,,,,,,,6093ea19c93f4bb0470b32ec,Kobieta,18,2021-07-13_22h06.31.444,rantool2,2021.1.4,Win32,59.94125757,6093ea19c93f4bb0470b32ec,60d9d14f4a8a35a482e0d9bf,60edf159fb509899abc66964,f,0,47,47,27,1,ORRORRO,ORRORRR,21.55250791,22.2428857,series_1,2.1013
,,,,,,,,6093ea19c93f4bb0470b32ec,Kobieta,18,2021-07-13_22h06.31.444,rantool2,2021.1.4,Win32,59.94125757,6093ea19c93f4bb0470b32ec,60d9d14f4a8a35a482e0d9bf,60edf159fb509899abc66964,j,0,48,48,13,1,OORRORO,OORRORR,21.66733484,22.11181017,series_1,1.3222
,,,,,,,,6093ea19c93f4bb0470b32ec,Kobieta,18,2021-07-13_22h06.31.444,rantool2,2021.1.4,Win32,59.94125757,6093ea19c93f4bb0470b32ec,60d9d14f4a8a35a482e0d9bf,60edf159fb509899abc66964,f,0,49,49,11,1,OORORRO,OORORRR,22.18365867,22.6797523,series_1,1.227799999
,,,,,,,,6093ea19c93f4bb0470b32ec,Kobieta,18,2021-07-13_22h06.31.444,rantool2,2021.1.4,Win32,59.94125757,6093ea19c93f4bb0470b32ec,60d9d14f4a8a35a482e0d9bf,60edf159fb509899abc66964,j,0,50,50,39,1,ROORRRO,ROORRRR,21.82425538,21.38562617,series_0,3.487700001
,,,,,,,,6093ea19c93f4bb0470b32ec,Kobieta,18,2021-07-13_22h06.31.444,rantool2,2021.1.4,Win32,59.94125757,6093ea19c93f4bb0470b32ec,60d9d14f4a8a35a482e0d9bf,60edf159fb509899abc66964,f,0,51,51,56,1,RRROOOO,RRROOOR,21.6194508,22.31681875,series_1,2.224
,,,,,,,,6093ea19c93f4bb0470b32ec,Kobieta,18,2021-07-13_22h06.31.444,rantool2,2021.1.4,Win32,59.94125757,6093ea19c93f4bb0470b32ec,60d9d14f4a8a35a482e0d9bf,60edf159fb509899abc66964,j,0,52,52,2,1,OOOOROO,OOOOROR,20.43051175,21.02936224,series_1,1.372599999
,,,,,,,,6093ea19c93f4bb0470b32ec,Kobieta,18,2021-07-13_22h06.31.444,rantool2,2021.1.4,Win32,59.94125757,6093ea19c93f4bb0470b32ec,60d9d14f4a8a35a482e0d9bf,60edf159fb509899abc66964,j,0,53,53,12,1,OORROOO,OORROOR,21.30250474,22.02786418,series_1,1.4904
,,,,,,,,6093ea19c93f4bb0470b32ec,Kobieta,18,2021-07-13_22h06.31.444,rantool2,2021.1.4,Win32,59.94125757,6093ea19c93f4bb0470b32ec,60d9d14f4a8a35a482e0d9bf,60edf159fb509899abc66964,j,0,54,54,0,1,OOOOOOO,OOOOOOR,18.52739004,19.62521613,series_1,1.4071
,,,,,,,,6093ea19c93f4bb0470b32ec,Kobieta,18,2021-07-13_22h06.31.444,rantool2,2021.1.4,Win32,59.94125757,6093ea19c93f4bb0470b32ec,60d9d14f4a8a35a482e0d9bf,60edf159fb509899abc66964,j,0,55,55,60,1,RRRROOO,RRRROOR,22.10108823,22.15934078,series_1,1.9176
,,,,,,,,6093ea19c93f4bb0470b32ec,Kobieta,18,2021-07-13_22h06.31.444,rantool2,2021.1.4,Win32,59.94125757,6093ea19c93f4bb0470b32ec,60d9d14f4a8a35a482e0d9bf,60edf159fb509899abc66964,j,0,56,56,33,1,ROOOORO,ROOOORR,20.83779602,22.03072203,series_1,1.5011
,,,,,,,,6093ea19c93f4bb0470b32ec,Kobieta,18,2021-07-13_22h06.31.444,rantool2,2021.1.4,Win32,59.94125757,6093ea19c93f4bb0470b32ec,60d9d14f4a8a35a482e0d9bf,60edf159fb509899abc66964,f,0,57,57,63,1,RRRRRRO,RRRRRRR,21.35278725,19.62521613,series_0,2.0183
,,,,,,,,6093ea19c93f4bb0470b32ec,Kobieta,18,2021-07-13_22h06.31.444,rantool2,2021.1.4,Win32,59.94125757,6093ea19c93f4bb0470b32ec,60d9d14f4a8a35a482e0d9bf,60edf159fb509899abc66964,j,0,58,58,35,1,ROOORRO,ROOORRR,21.76276513,22.16977179,series_1,1.1138
,,,,,,,,6093ea19c93f4bb0470b32ec,Kobieta,18,2021-07-13_22h06.31.444,rantool2,2021.1.4,Win32,59.94125757,6093ea19c93f4bb0470b32ec,60d9d14f4a8a35a482e0d9bf,60edf159fb509899abc66964,j,0,59,59,58,1,RRROROO,RRROROR,22.1285618,21.37121559,series_0,1.735
,,,,,,,,6093ea19c93f4bb0470b32ec,Kobieta,18,2021-07-13_22h06.31.444,rantool2,2021.1.4,Win32,59.94125757,6093ea19c93f4bb0470b32ec,60d9d14f4a8a35a482e0d9bf,60edf159fb509899abc66964,j,0,60,60,53,1,RRORORO,RRORORR,20.71309134,21.90565814,series_1,1.250900001
,,,,,,,,6093ea19c93f4bb0470b32ec,Kobieta,18,2021-07-13_22h06.31.444,rantool2,2021.1.4,Win32,59.94125757,6093ea19c93f4bb0470b32ec,60d9d14f4a8a35a482e0d9bf,60edf159fb509899abc66964,f,0,61,61,5,1,OOORORO,OOORORR,20.87963819,21.9921709,series_1,1.2023
,,,,,,,,6093ea19c93f4bb0470b32ec,Kobieta,18,2021-07-13_22h06.31.444,rantool2,2021.1.4,Win32,59.94125757,6093ea19c93f4bb0470b32ec,60d9d14f4a8a35a482e0d9bf,60edf159fb509899abc66964,j,0,62,62,62,1,RRRRROO,RRRRROR,22.16413392,21.27974287,series_0,1.553900001
,,,,,,,,6093ea19c93f4bb0470b32ec,Kobieta,18,2021-07-13_22h06.31.444,rantool2,2021.1.4,Win32,59.94125757,6093ea19c93f4bb0470b32ec,60d9d14f4a8a35a482e0d9bf,60edf159fb509899abc66964,f,0,63,63,47,1,RORRRRO,RORRRRR,21.81333602,21.02936224,series_0,1.3772
