key_resp_7.keys,key_resp_7.rt,trials_2.thisRepN,trials_2.thisTrialN,trials_2.thisN,trials_2.thisIndex,trials_2.ran,id,series_0,series_1,acss_0,acss_1,comparison,id*,Płeć*,Wiek*,date,expName,psychopyVersion,OS,frameRate,STUDY_ID,SESSION_ID,key_resp_5.keys,key_resp_5.corr,key_resp_5.rt,trials.thisRepN,trials.thisTrialN,trials.thisN,trials.thisIndex,trials.ran
f,3.1103,0,0,0,57,1,6135d819f5555fe9776deb7e,RRROORO,RRROORR,21.82425538,22.07102821,series_1,6135d819f5555fe9776deb7e,Kobieta,24,2021-09-06_19h11.24.558,rantool2,2021.1.4,Win32,59.93048064,6135e006383e6ea6c3d06a28,61364b3f78a35b3263f1e381,,,,,,,,
j,1.6037,0,1,1,47,1,6135d819f5555fe9776deb7e,RORRRRO,RORRRRR,21.81333602,21.02936224,series_0,6135d819f5555fe9776deb7e,Kobieta,24,2021-09-06_19h11.24.558,rantool2,2021.1.4,Win32,59.93048064,6135e006383e6ea6c3d06a28,61364b3f78a35b3263f1e381,,,,,,,,
j,3.8441,0,2,2,19,1,6135d819f5555fe9776deb7e,OROORRO,OROORRR,21.73568164,22.11181017,series_1,6135d819f5555fe9776deb7e,Kobieta,24,2021-09-06_19h11.24.558,rantool2,2021.1.4,Win32,59.93048064,6135e006383e6ea6c3d06a28,61364b3f78a35b3263f1e381,,,,,,,,
f,1.3808,0,3,3,29,1,6135d819f5555fe9776deb7e,ORRRORO,ORRRORR,22.00300695,22.12173012,series_1,6135d819f5555fe9776deb7e,Kobieta,24,2021-09-06_19h11.24.558,rantool2,2021.1.4,Win32,59.93048064,6135e006383e6ea6c3d06a28,61364b3f78a35b3263f1e381,,,,,,,,
f,3.753,0,4,4,4,1,6135d819f5555fe9776deb7e,OOOROOO,OOOROOR,19.91402015,21.21223021,series_1,6135d819f5555fe9776deb7e,Kobieta,24,2021-09-06_19h11.24.558,rantool2,2021.1.4,Win32,59.93048064,6135e006383e6ea6c3d06a28,61364b3f78a35b3263f1e381,,,,,,,,
j,2.2232,0,5,5,52,1,6135d819f5555fe9776deb7e,RROROOO,RROROOR,22.18365867,22.11097995,series_0,6135d819f5555fe9776deb7e,Kobieta,24,2021-09-06_19h11.24.558,rantool2,2021.1.4,Win32,59.93048064,6135e006383e6ea6c3d06a28,61364b3f78a35b3263f1e381,,,,,,,,
f,1.6279,0,6,6,45,1,6135d819f5555fe9776deb7e,RORRORO,RORRORR,20.78182524,21.22513037,series_1,6135d819f5555fe9776deb7e,Kobieta,24,2021-09-06_19h11.24.558,rantool2,2021.1.4,Win32,59.93048064,6135e006383e6ea6c3d06a28,61364b3f78a35b3263f1e381,,,,,,,,
f,1.6289,0,7,7,61,1,6135d819f5555fe9776deb7e,RRRRORO,RRRRORR,21.81333602,21.17347734,series_0,6135d819f5555fe9776deb7e,Kobieta,24,2021-09-06_19h11.24.558,rantool2,2021.1.4,Win32,59.93048064,6135e006383e6ea6c3d06a28,61364b3f78a35b3263f1e381,,,,,,,,
f,2.304,0,8,8,32,1,6135d819f5555fe9776deb7e,ROOOOOO,ROOOOOR,19.92253567,21.27974287,series_1,6135d819f5555fe9776deb7e,Kobieta,24,2021-09-06_19h11.24.558,rantool2,2021.1.4,Win32,59.93048064,6135e006383e6ea6c3d06a28,61364b3f78a35b3263f1e381,,,,,,,,
j,4.2287,0,9,9,18,1,6135d819f5555fe9776deb7e,OROOROO,OROOROR,20.84860893,21.22513037,series_1,6135d819f5555fe9776deb7e,Kobieta,24,2021-09-06_19h11.24.558,rantool2,2021.1.4,Win32,59.93048064,6135e006383e6ea6c3d06a28,61364b3f78a35b3263f1e381,,,,,,,,
f,1.6255,0,10,10,26,1,6135d819f5555fe9776deb7e,ORROROO,ORROROR,22.02732763,21.71443381,series_0,6135d819f5555fe9776deb7e,Kobieta,24,2021-09-06_19h11.24.558,rantool2,2021.1.4,Win32,59.93048064,6135e006383e6ea6c3d06a28,61364b3f78a35b3263f1e381,,,,,,,,
f,1.7979,0,11,11,60,1,6135d819f5555fe9776deb7e,RRRROOO,RRRROOR,22.10108823,22.15934078,series_1,6135d819f5555fe9776deb7e,Kobieta,24,2021-09-06_19h11.24.558,rantool2,2021.1.4,Win32,59.93048064,6135e006383e6ea6c3d06a28,61364b3f78a35b3263f1e381,,,,,,,,
j,1.4859,0,12,12,34,1,6135d819f5555fe9776deb7e,ROOOROO,ROOOROR,21.03750787,21.24781509,series_1,6135d819f5555fe9776deb7e,Kobieta,24,2021-09-06_19h11.24.558,rantool2,2021.1.4,Win32,59.93048064,6135e006383e6ea6c3d06a28,61364b3f78a35b3263f1e381,,,,,,,,
f,1.174,0,13,13,49,1,6135d819f5555fe9776deb7e,RROOORO,RROOORR,21.76276513,22.53364006,series_1,6135d819f5555fe9776deb7e,Kobieta,24,2021-09-06_19h11.24.558,rantool2,2021.1.4,Win32,59.93048064,6135e006383e6ea6c3d06a28,61364b3f78a35b3263f1e381,,,,,,,,
j,1.1032,0,14,14,58,1,6135d819f5555fe9776deb7e,RRROROO,RRROROR,22.1285618,21.37121559,series_0,6135d819f5555fe9776deb7e,Kobieta,24,2021-09-06_19h11.24.558,rantool2,2021.1.4,Win32,59.93048064,6135e006383e6ea6c3d06a28,61364b3f78a35b3263f1e381,,,,,,,,
f,1.4581,0,15,15,21,1,6135d819f5555fe9776deb7e,ORORORO,ORORORR,20.39515459,22.06781359,series_1,6135d819f5555fe9776deb7e,Kobieta,24,2021-09-06_19h11.24.558,rantool2,2021.1.4,Win32,59.93048064,6135e006383e6ea6c3d06a28,61364b3f78a35b3263f1e381,,,,,,,,
f,2.1053,0,16,16,56,1,6135d819f5555fe9776deb7e,RRROOOO,RRROOOR,21.6194508,22.31681875,series_1,6135d819f5555fe9776deb7e,Kobieta,24,2021-09-06_19h11.24.558,rantool2,2021.1.4,Win32,59.93048064,6135e006383e6ea6c3d06a28,61364b3f78a35b3263f1e381,,,,,,,,
j,2.2692,0,17,17,2,1,6135d819f5555fe9776deb7e,OOOOROO,OOOOROR,20.43051175,21.02936224,series_1,6135d819f5555fe9776deb7e,Kobieta,24,2021-09-06_19h11.24.558,rantool2,2021.1.4,Win32,59.93048064,6135e006383e6ea6c3d06a28,61364b3f78a35b3263f1e381,,,,,,,,
f,2.2928,0,18,18,12,1,6135d819f5555fe9776deb7e,OORROOO,OORROOR,21.30250474,22.02786418,series_1,6135d819f5555fe9776deb7e,Kobieta,24,2021-09-06_19h11.24.558,rantool2,2021.1.4,Win32,59.93048064,6135e006383e6ea6c3d06a28,61364b3f78a35b3263f1e381,,,,,,,,
j,3.5256,0,19,19,7,1,6135d819f5555fe9776deb7e,OOORRRO,OOORRRR,21.6194508,21.899017,series_1,6135d819f5555fe9776deb7e,Kobieta,24,2021-09-06_19h11.24.558,rantool2,2021.1.4,Win32,59.93048064,6135e006383e6ea6c3d06a28,61364b3f78a35b3263f1e381,,,,,,,,
j,3.0525,0,20,20,63,1,6135d819f5555fe9776deb7e,RRRRRRO,RRRRRRR,21.35278725,19.62521613,series_0,6135d819f5555fe9776deb7e,Kobieta,24,2021-09-06_19h11.24.558,rantool2,2021.1.4,Win32,59.93048064,6135e006383e6ea6c3d06a28,61364b3f78a35b3263f1e381,,,,,,,,
f,3.5717,0,21,21,11,1,6135d819f5555fe9776deb7e,OORORRO,OORORRR,22.18365867,22.6797523,series_1,6135d819f5555fe9776deb7e,Kobieta,24,2021-09-06_19h11.24.558,rantool2,2021.1.4,Win32,59.93048064,6135e006383e6ea6c3d06a28,61364b3f78a35b3263f1e381,,,,,,,,
j,1.3295,0,22,22,62,1,6135d819f5555fe9776deb7e,RRRRROO,RRRRROR,22.16413392,21.27974287,series_0,6135d819f5555fe9776deb7e,Kobieta,24,2021-09-06_19h11.24.558,rantool2,2021.1.4,Win32,59.93048064,6135e006383e6ea6c3d06a28,61364b3f78a35b3263f1e381,,,,,,,,
f,1.1081,0,23,23,23,1,6135d819f5555fe9776deb7e,ORORRRO,ORORRRR,22.1285618,21.9921709,series_0,6135d819f5555fe9776deb7e,Kobieta,24,2021-09-06_19h11.24.558,rantool2,2021.1.4,Win32,59.93048064,6135e006383e6ea6c3d06a28,61364b3f78a35b3263f1e381,,,,,,,,
f,1.156,0,24,24,16,1,6135d819f5555fe9776deb7e,OROOOOO,OROOOOR,20.43051175,21.17347734,series_1,6135d819f5555fe9776deb7e,Kobieta,24,2021-09-06_19h11.24.558,rantool2,2021.1.4,Win32,59.93048064,6135e006383e6ea6c3d06a28,61364b3f78a35b3263f1e381,,,,,,,,
j,0.9183,0,25,25,36,1,6135d819f5555fe9776deb7e,ROOROOO,ROOROOR,21.07991943,20.9984461,series_0,6135d819f5555fe9776deb7e,Kobieta,24,2021-09-06_19h11.24.558,rantool2,2021.1.4,Win32,59.93048064,6135e006383e6ea6c3d06a28,61364b3f78a35b3263f1e381,,,,,,,,
f,1.2803,0,26,26,31,1,6135d819f5555fe9776deb7e,ORRRRRO,ORRRRRR,22.16413392,20.74050628,series_0,6135d819f5555fe9776deb7e,Kobieta,24,2021-09-06_19h11.24.558,rantool2,2021.1.4,Win32,59.93048064,6135e006383e6ea6c3d06a28,61364b3f78a35b3263f1e381,,,,,,,,
f,2.6684,0,27,27,6,1,6135d819f5555fe9776deb7e,OOORROO,OOORROR,21.12383932,21.38562617,series_1,6135d819f5555fe9776deb7e,Kobieta,24,2021-09-06_19h11.24.558,rantool2,2021.1.4,Win32,59.93048064,6135e006383e6ea6c3d06a28,61364b3f78a35b3263f1e381,,,,,,,,
j,2.1252,0,28,28,27,1,6135d819f5555fe9776deb7e,ORRORRO,ORRORRR,21.55250791,22.2428857,series_1,6135d819f5555fe9776deb7e,Kobieta,24,2021-09-06_19h11.24.558,rantool2,2021.1.4,Win32,59.93048064,6135e006383e6ea6c3d06a28,61364b3f78a35b3263f1e381,,,,,,,,
f,1.8813,0,29,29,51,1,6135d819f5555fe9776deb7e,RROORRO,RROORRR,21.89852628,22.02786418,series_1,6135d819f5555fe9776deb7e,Kobieta,24,2021-09-06_19h11.24.558,rantool2,2021.1.4,Win32,59.93048064,6135e006383e6ea6c3d06a28,61364b3f78a35b3263f1e381,,,,,,,,
j,2.1768,0,30,30,28,1,6135d819f5555fe9776deb7e,ORRROOO,ORRROOR,22.24142883,22.53364006,series_1,6135d819f5555fe9776deb7e,Kobieta,24,2021-09-06_19h11.24.558,rantool2,2021.1.4,Win32,59.93048064,6135e006383e6ea6c3d06a28,61364b3f78a35b3263f1e381,,,,,,,,
f,1.4975,0,31,31,17,1,6135d819f5555fe9776deb7e,OROOORO,OROOORR,21.03750787,22.12173012,series_1,6135d819f5555fe9776deb7e,Kobieta,24,2021-09-06_19h11.24.558,rantool2,2021.1.4,Win32,59.93048064,6135e006383e6ea6c3d06a28,61364b3f78a35b3263f1e381,,,,,,,,
j,2.3699,0,32,32,39,1,6135d819f5555fe9776deb7e,ROORRRO,ROORRRR,21.82425538,21.38562617,series_0,6135d819f5555fe9776deb7e,Kobieta,24,2021-09-06_19h11.24.558,rantool2,2021.1.4,Win32,59.93048064,6135e006383e6ea6c3d06a28,61364b3f78a35b3263f1e381,,,,,,,,
j,1.6947,0,33,33,10,1,6135d819f5555fe9776deb7e,OOROROO,OOROROR,21.31236711,21.07490964,series_0,6135d819f5555fe9776deb7e,Kobieta,24,2021-09-06_19h11.24.558,rantool2,2021.1.4,Win32,59.93048064,6135e006383e6ea6c3d06a28,61364b3f78a35b3263f1e381,,,,,,,,
f,1.2374,0,34,34,44,1,6135d819f5555fe9776deb7e,RORROOO,RORROOR,21.66733484,22.02566557,series_1,6135d819f5555fe9776deb7e,Kobieta,24,2021-09-06_19h11.24.558,rantool2,2021.1.4,Win32,59.93048064,6135e006383e6ea6c3d06a28,61364b3f78a35b3263f1e381,,,,,,,,
j,1.2384,0,35,35,37,1,6135d819f5555fe9776deb7e,ROORORO,ROORORR,20.42602454,21.57657071,series_1,6135d819f5555fe9776deb7e,Kobieta,24,2021-09-06_19h11.24.558,rantool2,2021.1.4,Win32,59.93048064,6135e006383e6ea6c3d06a28,61364b3f78a35b3263f1e381,,,,,,,,
f,1.163,0,36,36,54,1,6135d819f5555fe9776deb7e,RRORROO,RRORROR,21.55250791,20.9984461,series_0,6135d819f5555fe9776deb7e,Kobieta,24,2021-09-06_19h11.24.558,rantool2,2021.1.4,Win32,59.93048064,6135e006383e6ea6c3d06a28,61364b3f78a35b3263f1e381,,,,,,,,
j,1.2368,0,37,37,22,1,6135d819f5555fe9776deb7e,ORORROO,ORORROR,22.02732763,21.57657071,series_0,6135d819f5555fe9776deb7e,Kobieta,24,2021-09-06_19h11.24.558,rantool2,2021.1.4,Win32,59.93048064,6135e006383e6ea6c3d06a28,61364b3f78a35b3263f1e381,,,,,,,,
f,1.1556,0,38,38,20,1,6135d819f5555fe9776deb7e,OROROOO,OROROOR,21.31236711,21.90565814,series_1,6135d819f5555fe9776deb7e,Kobieta,24,2021-09-06_19h11.24.558,rantool2,2021.1.4,Win32,59.93048064,6135e006383e6ea6c3d06a28,61364b3f78a35b3263f1e381,,,,,,,,
j,1.1537,0,39,39,35,1,6135d819f5555fe9776deb7e,ROOORRO,ROOORRR,21.76276513,22.16977179,series_1,6135d819f5555fe9776deb7e,Kobieta,24,2021-09-06_19h11.24.558,rantool2,2021.1.4,Win32,59.93048064,6135e006383e6ea6c3d06a28,61364b3f78a35b3263f1e381,,,,,,,,
j,2.6124,0,40,40,13,1,6135d819f5555fe9776deb7e,OORRORO,OORRORR,21.66733484,22.11181017,series_1,6135d819f5555fe9776deb7e,Kobieta,24,2021-09-06_19h11.24.558,rantool2,2021.1.4,Win32,59.93048064,6135e006383e6ea6c3d06a28,61364b3f78a35b3263f1e381,,,,,,,,
f,2.441,0,41,41,53,1,6135d819f5555fe9776deb7e,RRORORO,RRORORR,20.71309134,21.90565814,series_1,6135d819f5555fe9776deb7e,Kobieta,24,2021-09-06_19h11.24.558,rantool2,2021.1.4,Win32,59.93048064,6135e006383e6ea6c3d06a28,61364b3f78a35b3263f1e381,,,,,,,,
f,2.5048,0,42,42,3,1,6135d819f5555fe9776deb7e,OOOORRO,OOOORRR,20.90986523,21.74922619,series_1,6135d819f5555fe9776deb7e,Kobieta,24,2021-09-06_19h11.24.558,rantool2,2021.1.4,Win32,59.93048064,6135e006383e6ea6c3d06a28,61364b3f78a35b3263f1e381,,,,,,,,
j,3.7675,0,43,43,41,1,6135d819f5555fe9776deb7e,ROROORO,ROROORR,20.42602454,21.71443381,series_1,6135d819f5555fe9776deb7e,Kobieta,24,2021-09-06_19h11.24.558,rantool2,2021.1.4,Win32,59.93048064,6135e006383e6ea6c3d06a28,61364b3f78a35b3263f1e381,,,,,,,,
j,3.4919,0,44,44,33,1,6135d819f5555fe9776deb7e,ROOOORO,ROOOORR,20.83779602,22.03072203,series_1,6135d819f5555fe9776deb7e,Kobieta,24,2021-09-06_19h11.24.558,rantool2,2021.1.4,Win32,59.93048064,6135e006383e6ea6c3d06a28,61364b3f78a35b3263f1e381,,,,,,,,
f,2.4116,0,45,45,43,1,6135d819f5555fe9776deb7e,RORORRO,RORORRR,20.71309134,21.07490964,series_1,6135d819f5555fe9776deb7e,Kobieta,24,2021-09-06_19h11.24.558,rantool2,2021.1.4,Win32,59.93048064,6135e006383e6ea6c3d06a28,61364b3f78a35b3263f1e381,,,,,,,,
j,1.2385,0,46,46,48,1,6135d819f5555fe9776deb7e,RROOOOO,RROOOOR,20.90986523,22.15934078,series_1,6135d819f5555fe9776deb7e,Kobieta,24,2021-09-06_19h11.24.558,rantool2,2021.1.4,Win32,59.93048064,6135e006383e6ea6c3d06a28,61364b3f78a35b3263f1e381,,,,,,,,
f,1.1047,0,47,47,25,1,6135d819f5555fe9776deb7e,ORROORO,ORROORR,21.79500819,22.61624387,series_1,6135d819f5555fe9776deb7e,Kobieta,24,2021-09-06_19h11.24.558,rantool2,2021.1.4,Win32,59.93048064,6135e006383e6ea6c3d06a28,61364b3f78a35b3263f1e381,,,,,,,,
j,1.0919,0,48,48,59,1,6135d819f5555fe9776deb7e,RRRORRO,RRRORRR,21.56657303,20.89823192,series_0,6135d819f5555fe9776deb7e,Kobieta,24,2021-09-06_19h11.24.558,rantool2,2021.1.4,Win32,59.93048064,6135e006383e6ea6c3d06a28,61364b3f78a35b3263f1e381,,,,,,,,
f,1.487,0,49,49,5,1,6135d819f5555fe9776deb7e,OOORORO,OOORORR,20.87963819,21.9921709,series_1,6135d819f5555fe9776deb7e,Kobieta,24,2021-09-06_19h11.24.558,rantool2,2021.1.4,Win32,59.93048064,6135e006383e6ea6c3d06a28,61364b3f78a35b3263f1e381,,,,,,,,
j,1.0938,0,50,50,9,1,6135d819f5555fe9776deb7e,OOROORO,OOROORR,21.07991943,22.2428857,series_1,6135d819f5555fe9776deb7e,Kobieta,24,2021-09-06_19h11.24.558,rantool2,2021.1.4,Win32,59.93048064,6135e006383e6ea6c3d06a28,61364b3f78a35b3263f1e381,,,,,,,,
j,1.3613,0,51,51,14,1,6135d819f5555fe9776deb7e,OORRROO,OORRROR,22.24142883,22.16977179,series_0,6135d819f5555fe9776deb7e,Kobieta,24,2021-09-06_19h11.24.558,rantool2,2021.1.4,Win32,59.93048064,6135e006383e6ea6c3d06a28,61364b3f78a35b3263f1e381,,,,,,,,
j,1.6364,0,52,52,8,1,6135d819f5555fe9776deb7e,OOROOOO,OOROOOR,19.91402015,20.89823192,series_1,6135d819f5555fe9776deb7e,Kobieta,24,2021-09-06_19h11.24.558,rantool2,2021.1.4,Win32,59.93048064,6135e006383e6ea6c3d06a28,61364b3f78a35b3263f1e381,,,,,,,,
f,1.3814,0,53,53,15,1,6135d819f5555fe9776deb7e,OORRRRO,OORRRRR,22.10108823,21.74922619,series_0,6135d819f5555fe9776deb7e,Kobieta,24,2021-09-06_19h11.24.558,rantool2,2021.1.4,Win32,59.93048064,6135e006383e6ea6c3d06a28,61364b3f78a35b3263f1e381,,,,,,,,
j,2.326,0,54,54,40,1,6135d819f5555fe9776deb7e,ROROOOO,ROROOOR,20.87963819,21.37121559,series_1,6135d819f5555fe9776deb7e,Kobieta,24,2021-09-06_19h11.24.558,rantool2,2021.1.4,Win32,59.93048064,6135e006383e6ea6c3d06a28,61364b3f78a35b3263f1e381,,,,,,,,
f,1.3733,0,55,55,1,1,6135d819f5555fe9776deb7e,OOOOORO,OOOOORR,19.92253567,20.74050628,series_1,6135d819f5555fe9776deb7e,Kobieta,24,2021-09-06_19h11.24.558,rantool2,2021.1.4,Win32,59.93048064,6135e006383e6ea6c3d06a28,61364b3f78a35b3263f1e381,,,,,,,,
j,1.257,0,56,56,24,1,6135d819f5555fe9776deb7e,ORROOOO,ORROOOR,21.12383932,22.07102821,series_1,6135d819f5555fe9776deb7e,Kobieta,24,2021-09-06_19h11.24.558,rantool2,2021.1.4,Win32,59.93048064,6135e006383e6ea6c3d06a28,61364b3f78a35b3263f1e381,,,,,,,,
j,2.1226,0,57,57,42,1,6135d819f5555fe9776deb7e,ROROROO,ROROROR,20.39515459,19.8361834,series_0,6135d819f5555fe9776deb7e,Kobieta,24,2021-09-06_19h11.24.558,rantool2,2021.1.4,Win32,59.93048064,6135e006383e6ea6c3d06a28,61364b3f78a35b3263f1e381,,,,,,,,
f,2.2458,0,58,58,46,1,6135d819f5555fe9776deb7e,RORRROO,RORRROR,22.00300695,21.24781509,series_0,6135d819f5555fe9776deb7e,Kobieta,24,2021-09-06_19h11.24.558,rantool2,2021.1.4,Win32,59.93048064,6135e006383e6ea6c3d06a28,61364b3f78a35b3263f1e381,,,,,,,,
j,1.1862,0,59,59,50,1,6135d819f5555fe9776deb7e,RROOROO,RROOROR,21.73568164,22.02566557,series_1,6135d819f5555fe9776deb7e,Kobieta,24,2021-09-06_19h11.24.558,rantool2,2021.1.4,Win32,59.93048064,6135e006383e6ea6c3d06a28,61364b3f78a35b3263f1e381,,,,,,,,
f,1.5387,0,60,60,30,1,6135d819f5555fe9776deb7e,ORRRROO,ORRRROR,22.46748491,22.03072203,series_0,6135d819f5555fe9776deb7e,Kobieta,24,2021-09-06_19h11.24.558,rantool2,2021.1.4,Win32,59.93048064,6135e006383e6ea6c3d06a28,61364b3f78a35b3263f1e381,,,,,,,,
j,1.123,0,61,61,0,1,6135d819f5555fe9776deb7e,OOOOOOO,OOOOOOR,18.52739004,19.62521613,series_1,6135d819f5555fe9776deb7e,Kobieta,24,2021-09-06_19h11.24.558,rantool2,2021.1.4,Win32,59.93048064,6135e006383e6ea6c3d06a28,61364b3f78a35b3263f1e381,,,,,,,,
j,1.5066,0,62,62,55,1,6135d819f5555fe9776deb7e,RRORRRO,RRORRRR,21.56657303,21.21223021,series_0,6135d819f5555fe9776deb7e,Kobieta,24,2021-09-06_19h11.24.558,rantool2,2021.1.4,Win32,59.93048064,6135e006383e6ea6c3d06a28,61364b3f78a35b3263f1e381,,,,,,,,
f,1.2465,0,63,63,38,1,6135d819f5555fe9776deb7e,ROORROO,ROORROR,21.79500819,21.36812781,series_0,6135d819f5555fe9776deb7e,Kobieta,24,2021-09-06_19h11.24.558,rantool2,2021.1.4,Win32,59.93048064,6135e006383e6ea6c3d06a28,61364b3f78a35b3263f1e381,,,,,,,,
,,,,,,,6135d819f5555fe9776deb7e,,,,,,6135d819f5555fe9776deb7e,Kobieta,24,2021-09-06_19h11.24.558,rantool2,2021.1.4,Win32,59.93048064,6135e006383e6ea6c3d06a28,61364b3f78a35b3263f1e381,"[""comma""]",0,[0.9745000000000061],0,0,0,0,1
,,,,,,,6135d819f5555fe9776deb7e,,,,,,6135d819f5555fe9776deb7e,Kobieta,24,2021-09-06_19h11.24.558,rantool2,2021.1.4,Win32,59.93048064,6135e006383e6ea6c3d06a28,61364b3f78a35b3263f1e381,"[""comma""]",0,[0.442100000023828],1,0,1,0,1
,,,,,,,6135d819f5555fe9776deb7e,,,,,,6135d819f5555fe9776deb7e,Kobieta,24,2021-09-06_19h11.24.558,rantool2,2021.1.4,Win32,59.93048064,6135e006383e6ea6c3d06a28,61364b3f78a35b3263f1e381,"[""period""]",0,[0.27310000002381685],2,0,2,0,1
,,,,,,,6135d819f5555fe9776deb7e,,,,,,6135d819f5555fe9776deb7e,Kobieta,24,2021-09-06_19h11.24.558,rantool2,2021.1.4,Win32,59.93048064,6135e006383e6ea6c3d06a28,61364b3f78a35b3263f1e381,"[""period""]",0,[0.27159999990465167],3,0,3,0,1
,,,,,,,6135d819f5555fe9776deb7e,,,,,,6135d819f5555fe9776deb7e,Kobieta,24,2021-09-06_19h11.24.558,rantool2,2021.1.4,Win32,59.93048064,6135e006383e6ea6c3d06a28,61364b3f78a35b3263f1e381,"[""comma""]",0,[0.27260000002382867],4,0,4,0,1
,,,,,,,6135d819f5555fe9776deb7e,,,,,,6135d819f5555fe9776deb7e,Kobieta,24,2021-09-06_19h11.24.558,rantool2,2021.1.4,Win32,59.93048064,6135e006383e6ea6c3d06a28,61364b3f78a35b3263f1e381,"[""period""]",0,[0.274099999904621],5,0,5,0,1
,,,,,,,6135d819f5555fe9776deb7e,,,,,,6135d819f5555fe9776deb7e,Kobieta,24,2021-09-06_19h11.24.558,rantool2,2021.1.4,Win32,59.93048064,6135e006383e6ea6c3d06a28,61364b3f78a35b3263f1e381,"[""comma""]",0,[0.22560000002383163],6,0,6,0,1
,,,,,,,6135d819f5555fe9776deb7e,,,,,,6135d819f5555fe9776deb7e,Kobieta,24,2021-09-06_19h11.24.558,rantool2,2021.1.4,Win32,59.93048064,6135e006383e6ea6c3d06a28,61364b3f78a35b3263f1e381,"[""period""]",0,[0.30810000002384186],7,0,7,0,1
,,,,,,,6135d819f5555fe9776deb7e,,,,,,6135d819f5555fe9776deb7e,Kobieta,24,2021-09-06_19h11.24.558,rantool2,2021.1.4,Win32,59.93048064,6135e006383e6ea6c3d06a28,61364b3f78a35b3263f1e381,"[""period""]",0,[0.22989999997616906],8,0,8,0,1
,,,,,,,6135d819f5555fe9776deb7e,,,,,,6135d819f5555fe9776deb7e,Kobieta,24,2021-09-06_19h11.24.558,rantool2,2021.1.4,Win32,59.93048064,6135e006383e6ea6c3d06a28,61364b3f78a35b3263f1e381,"[""comma""]",0,[0.23020000004768804],9,0,9,0,1
,,,,,,,6135d819f5555fe9776deb7e,,,,,,6135d819f5555fe9776deb7e,Kobieta,24,2021-09-06_19h11.24.558,rantool2,2021.1.4,Win32,59.93048064,6135e006383e6ea6c3d06a28,61364b3f78a35b3263f1e381,"[""period""]",0,[0.22480000007152512],10,0,10,0,1
,,,,,,,6135d819f5555fe9776deb7e,,,,,,6135d819f5555fe9776deb7e,Kobieta,24,2021-09-06_19h11.24.558,rantool2,2021.1.4,Win32,59.93048064,6135e006383e6ea6c3d06a28,61364b3f78a35b3263f1e381,"[""period""]",0,[0.21349999999998204],11,0,11,0,1
,,,,,,,6135d819f5555fe9776deb7e,,,,,,6135d819f5555fe9776deb7e,Kobieta,24,2021-09-06_19h11.24.558,rantool2,2021.1.4,Win32,59.93048064,6135e006383e6ea6c3d06a28,61364b3f78a35b3263f1e381,"[""period""]",0,[0.02460000002383822],12,0,12,0,1
,,,,,,,6135d819f5555fe9776deb7e,,,,,,6135d819f5555fe9776deb7e,Kobieta,24,2021-09-06_19h11.24.558,rantool2,2021.1.4,Win32,59.93048064,6135e006383e6ea6c3d06a28,61364b3f78a35b3263f1e381,"[""comma""]",0,[0.2564999999999884],13,0,13,0,1
,,,,,,,6135d819f5555fe9776deb7e,,,,,,6135d819f5555fe9776deb7e,Kobieta,24,2021-09-06_19h11.24.558,rantool2,2021.1.4,Win32,59.93048064,6135e006383e6ea6c3d06a28,61364b3f78a35b3263f1e381,"[""period""]",0,[0.23799999999999955],14,0,14,0,1
,,,,,,,6135d819f5555fe9776deb7e,,,,,,6135d819f5555fe9776deb7e,Kobieta,24,2021-09-06_19h11.24.558,rantool2,2021.1.4,Win32,59.93048064,6135e006383e6ea6c3d06a28,61364b3f78a35b3263f1e381,"[""period""]",0,[0.3410000000000082],15,0,15,0,1
,,,,,,,6135d819f5555fe9776deb7e,,,,,,6135d819f5555fe9776deb7e,Kobieta,24,2021-09-06_19h11.24.558,rantool2,2021.1.4,Win32,59.93048064,6135e006383e6ea6c3d06a28,61364b3f78a35b3263f1e381,"[""comma""]",0,[0.2831000000238362],16,0,16,0,1
,,,,,,,6135d819f5555fe9776deb7e,,,,,,6135d819f5555fe9776deb7e,Kobieta,24,2021-09-06_19h11.24.558,rantool2,2021.1.4,Win32,59.93048064,6135e006383e6ea6c3d06a28,61364b3f78a35b3263f1e381,"[""comma""]",0,[0.2737000000476826],17,0,17,0,1
,,,,,,,6135d819f5555fe9776deb7e,,,,,,6135d819f5555fe9776deb7e,Kobieta,24,2021-09-06_19h11.24.558,rantool2,2021.1.4,Win32,59.93048064,6135e006383e6ea6c3d06a28,61364b3f78a35b3263f1e381,"[""comma""]",0,[0.32830000007152194],18,0,18,0,1
,,,,,,,6135d819f5555fe9776deb7e,,,,,,6135d819f5555fe9776deb7e,Kobieta,24,2021-09-06_19h11.24.558,rantool2,2021.1.4,Win32,59.93048064,6135e006383e6ea6c3d06a28,61364b3f78a35b3263f1e381,"[""period""]",0,[0.24020000004767894],19,0,19,0,1
,,,,,,,6135d819f5555fe9776deb7e,,,,,,6135d819f5555fe9776deb7e,Kobieta,24,2021-09-06_19h11.24.558,rantool2,2021.1.4,Win32,59.93048064,6135e006383e6ea6c3d06a28,61364b3f78a35b3263f1e381,"[""period""]",0,[0.2574000000953731],20,0,20,0,1
,,,,,,,6135d819f5555fe9776deb7e,,,,,,6135d819f5555fe9776deb7e,Kobieta,24,2021-09-06_19h11.24.558,rantool2,2021.1.4,Win32,59.93048064,6135e006383e6ea6c3d06a28,61364b3f78a35b3263f1e381,"[""comma""]",0,[0.7636999999284626],21,0,21,0,1
,,,,,,,6135d819f5555fe9776deb7e,,,,,,6135d819f5555fe9776deb7e,Kobieta,24,2021-09-06_19h11.24.558,rantool2,2021.1.4,Win32,59.93048064,6135e006383e6ea6c3d06a28,61364b3f78a35b3263f1e381,"[""period""]",0,[0.2436000000238323],22,0,22,0,1
,,,,,,,6135d819f5555fe9776deb7e,,,,,,6135d819f5555fe9776deb7e,Kobieta,24,2021-09-06_19h11.24.558,rantool2,2021.1.4,Win32,59.93048064,6135e006383e6ea6c3d06a28,61364b3f78a35b3263f1e381,"[""comma"",""comma""]",0,"[0.22610000002384822,1.937100000023861]",23,0,23,0,1
,,,,,,,6135d819f5555fe9776deb7e,,,,,,6135d819f5555fe9776deb7e,Kobieta,24,2021-09-06_19h11.24.558,rantool2,2021.1.4,Win32,59.93048064,6135e006383e6ea6c3d06a28,61364b3f78a35b3263f1e381,"[""comma""]",0,[0.545399999976155],24,0,24,0,1
,,,,,,,6135d819f5555fe9776deb7e,,,,,,6135d819f5555fe9776deb7e,Kobieta,24,2021-09-06_19h11.24.558,rantool2,2021.1.4,Win32,59.93048064,6135e006383e6ea6c3d06a28,61364b3f78a35b3263f1e381,"[""period""]",0,[0.32320000004767735],25,0,25,0,1
,,,,,,,6135d819f5555fe9776deb7e,,,,,,6135d819f5555fe9776deb7e,Kobieta,24,2021-09-06_19h11.24.558,rantool2,2021.1.4,Win32,59.93048064,6135e006383e6ea6c3d06a28,61364b3f78a35b3263f1e381,"[""period""]",0,[0.28129999995235266],26,0,26,0,1
,,,,,,,6135d819f5555fe9776deb7e,,,,,,6135d819f5555fe9776deb7e,Kobieta,24,2021-09-06_19h11.24.558,rantool2,2021.1.4,Win32,59.93048064,6135e006383e6ea6c3d06a28,61364b3f78a35b3263f1e381,"[""comma""]",0,[0.2768999999761945],27,0,27,0,1
,,,,,,,6135d819f5555fe9776deb7e,,,,,,6135d819f5555fe9776deb7e,Kobieta,24,2021-09-06_19h11.24.558,rantool2,2021.1.4,Win32,59.93048064,6135e006383e6ea6c3d06a28,61364b3f78a35b3263f1e381,"[""period""]",0,[0.2786000000238573],28,0,28,0,1
,,,,,,,6135d819f5555fe9776deb7e,,,,,,6135d819f5555fe9776deb7e,Kobieta,24,2021-09-06_19h11.24.558,rantool2,2021.1.4,Win32,59.93048064,6135e006383e6ea6c3d06a28,61364b3f78a35b3263f1e381,"[""comma""]",0,[0.2801000000238787],29,0,29,0,1
,,,,,,,6135d819f5555fe9776deb7e,,,,,,6135d819f5555fe9776deb7e,Kobieta,24,2021-09-06_19h11.24.558,rantool2,2021.1.4,Win32,59.93048064,6135e006383e6ea6c3d06a28,61364b3f78a35b3263f1e381,"[""comma""]",0,[0.29000000000002046],30,0,30,0,1
,,,,,,,6135d819f5555fe9776deb7e,,,,,,6135d819f5555fe9776deb7e,Kobieta,24,2021-09-06_19h11.24.558,rantool2,2021.1.4,Win32,59.93048064,6135e006383e6ea6c3d06a28,61364b3f78a35b3263f1e381,"[""period""]",0,[0.2400000000000091],31,0,31,0,1
,,,,,,,6135d819f5555fe9776deb7e,,,,,,6135d819f5555fe9776deb7e,Kobieta,24,2021-09-06_19h11.24.558,rantool2,2021.1.4,Win32,59.93048064,6135e006383e6ea6c3d06a28,61364b3f78a35b3263f1e381,"[""comma""]",0,[0.27429999995234766],32,0,32,0,1
,,,,,,,6135d819f5555fe9776deb7e,,,,,,6135d819f5555fe9776deb7e,Kobieta,24,2021-09-06_19h11.24.558,rantool2,2021.1.4,Win32,59.93048064,6135e006383e6ea6c3d06a28,61364b3f78a35b3263f1e381,"[""period""]",0,[0.26420000004765143],33,0,33,0,1
,,,,,,,6135d819f5555fe9776deb7e,,,,,,6135d819f5555fe9776deb7e,Kobieta,24,2021-09-06_19h11.24.558,rantool2,2021.1.4,Win32,59.93048064,6135e006383e6ea6c3d06a28,61364b3f78a35b3263f1e381,"[""comma""]",0,[0.6257000000476864],34,0,34,0,1
,,,,,,,6135d819f5555fe9776deb7e,,,,,,6135d819f5555fe9776deb7e,Kobieta,24,2021-09-06_19h11.24.558,rantool2,2021.1.4,Win32,59.93048064,6135e006383e6ea6c3d06a28,61364b3f78a35b3263f1e381,"[""period""]",0,[0.2971999999285231],35,0,35,0,1
,,,,,,,6135d819f5555fe9776deb7e,,,,,,6135d819f5555fe9776deb7e,Kobieta,24,2021-09-06_19h11.24.558,rantool2,2021.1.4,Win32,59.93048064,6135e006383e6ea6c3d06a28,61364b3f78a35b3263f1e381,"[""period""]",0,[0.27880000007149874],36,0,36,0,1
,,,,,,,6135d819f5555fe9776deb7e,,,,,,6135d819f5555fe9776deb7e,Kobieta,24,2021-09-06_19h11.24.558,rantool2,2021.1.4,Win32,59.93048064,6135e006383e6ea6c3d06a28,61364b3f78a35b3263f1e381,"[""comma""]",0,[0.5821000000238428],37,0,37,0,1
,,,,,,,6135d819f5555fe9776deb7e,,,,,,6135d819f5555fe9776deb7e,Kobieta,24,2021-09-06_19h11.24.558,rantool2,2021.1.4,Win32,59.93048064,6135e006383e6ea6c3d06a28,61364b3f78a35b3263f1e381,"[""comma""]",0,[0.5068000000715074],38,0,38,0,1
,,,,,,,6135d819f5555fe9776deb7e,,,,,,6135d819f5555fe9776deb7e,Kobieta,24,2021-09-06_19h11.24.558,rantool2,2021.1.4,Win32,59.93048064,6135e006383e6ea6c3d06a28,61364b3f78a35b3263f1e381,"[""period""]",0,[0.27300000000002456],39,0,39,0,1
,,,,,,,6135d819f5555fe9776deb7e,,,,,,6135d819f5555fe9776deb7e,Kobieta,24,2021-09-06_19h11.24.558,rantool2,2021.1.4,Win32,59.93048064,6135e006383e6ea6c3d06a28,61364b3f78a35b3263f1e381,"[""comma""]",0,[0.31139999997611767],40,0,40,0,1
,,,,,,,6135d819f5555fe9776deb7e,,,,,,6135d819f5555fe9776deb7e,Kobieta,24,2021-09-06_19h11.24.558,rantool2,2021.1.4,Win32,59.93048064,6135e006383e6ea6c3d06a28,61364b3f78a35b3263f1e381,"[""comma""]",0,[0.32389999997616314],41,0,41,0,1
,,,,,,,6135d819f5555fe9776deb7e,,,,,,6135d819f5555fe9776deb7e,Kobieta,24,2021-09-06_19h11.24.558,rantool2,2021.1.4,Win32,59.93048064,6135e006383e6ea6c3d06a28,61364b3f78a35b3263f1e381,"[""period""]",0,[0.3412999999522981],42,0,42,0,1
,,,,,,,6135d819f5555fe9776deb7e,,,,,,6135d819f5555fe9776deb7e,Kobieta,24,2021-09-06_19h11.24.558,rantool2,2021.1.4,Win32,59.93048064,6135e006383e6ea6c3d06a28,61364b3f78a35b3263f1e381,"[""comma""]",0,[0.47430000007153694],43,0,43,0,1
,,,,,,,6135d819f5555fe9776deb7e,,,,,,6135d819f5555fe9776deb7e,Kobieta,24,2021-09-06_19h11.24.558,rantool2,2021.1.4,Win32,59.93048064,6135e006383e6ea6c3d06a28,61364b3f78a35b3263f1e381,"[""comma""]",0,[0.2722000000476896],44,0,44,0,1
,,,,,,,6135d819f5555fe9776deb7e,,,,,,6135d819f5555fe9776deb7e,Kobieta,24,2021-09-06_19h11.24.558,rantool2,2021.1.4,Win32,59.93048064,6135e006383e6ea6c3d06a28,61364b3f78a35b3263f1e381,"[""comma""]",0,[0.3051000000237991],45,0,45,0,1
,,,,,,,6135d819f5555fe9776deb7e,,,,,,6135d819f5555fe9776deb7e,Kobieta,24,2021-09-06_19h11.24.558,rantool2,2021.1.4,Win32,59.93048064,6135e006383e6ea6c3d06a28,61364b3f78a35b3263f1e381,"[""comma""]",0,[0.3771000000238587],46,0,46,0,1
,,,,,,,6135d819f5555fe9776deb7e,,,,,,6135d819f5555fe9776deb7e,Kobieta,24,2021-09-06_19h11.24.558,rantool2,2021.1.4,Win32,59.93048064,6135e006383e6ea6c3d06a28,61364b3f78a35b3263f1e381,"[""period""]",0,[0.2587000000476678],47,0,47,0,1
,,,,,,,6135d819f5555fe9776deb7e,,,,,,6135d819f5555fe9776deb7e,Kobieta,24,2021-09-06_19h11.24.558,rantool2,2021.1.4,Win32,59.93048064,6135e006383e6ea6c3d06a28,61364b3f78a35b3263f1e381,"[""period""]",0,[0.27710000002383595],48,0,48,0,1
,,,,,,,6135d819f5555fe9776deb7e,,,,,,6135d819f5555fe9776deb7e,Kobieta,24,2021-09-06_19h11.24.558,rantool2,2021.1.4,Win32,59.93048064,6135e006383e6ea6c3d06a28,61364b3f78a35b3263f1e381,"[""comma""]",0,[0.27489999997612813],49,0,49,0,1
,,,,,,,6135d819f5555fe9776deb7e,,,,,,6135d819f5555fe9776deb7e,Kobieta,24,2021-09-06_19h11.24.558,rantool2,2021.1.4,Win32,59.93048064,6135e006383e6ea6c3d06a28,61364b3f78a35b3263f1e381,"[""period""]",0,[0.2785999999045998],50,0,50,0,1
,,,,,,,6135d819f5555fe9776deb7e,,,,,,6135d819f5555fe9776deb7e,Kobieta,24,2021-09-06_19h11.24.558,rantool2,2021.1.4,Win32,59.93048064,6135e006383e6ea6c3d06a28,61364b3f78a35b3263f1e381,"[""comma""]",0,[0.246200000047736],51,0,51,0,1
,,,,,,,6135d819f5555fe9776deb7e,,,,,,6135d819f5555fe9776deb7e,Kobieta,24,2021-09-06_19h11.24.558,rantool2,2021.1.4,Win32,59.93048064,6135e006383e6ea6c3d06a28,61364b3f78a35b3263f1e381,"[""period""]",0,[0.27319999992846533],52,0,52,0,1
,,,,,,,6135d819f5555fe9776deb7e,,,,,,6135d819f5555fe9776deb7e,Kobieta,24,2021-09-06_19h11.24.558,rantool2,2021.1.4,Win32,59.93048064,6135e006383e6ea6c3d06a28,61364b3f78a35b3263f1e381,"[""period""]",0,[0.27509999990462575],53,0,53,0,1
,,,,,,,6135d819f5555fe9776deb7e,,,,,,6135d819f5555fe9776deb7e,Kobieta,24,2021-09-06_19h11.24.558,rantool2,2021.1.4,Win32,59.93048064,6135e006383e6ea6c3d06a28,61364b3f78a35b3263f1e381,"[""period""]",0,[0.3229000000953306],54,0,54,0,1
,,,,,,,6135d819f5555fe9776deb7e,,,,,,6135d819f5555fe9776deb7e,Kobieta,24,2021-09-06_19h11.24.558,rantool2,2021.1.4,Win32,59.93048064,6135e006383e6ea6c3d06a28,61364b3f78a35b3263f1e381,"[""comma""]",0,[0.2903999999761595],55,0,55,0,1
,,,,,,,6135d819f5555fe9776deb7e,,,,,,6135d819f5555fe9776deb7e,Kobieta,24,2021-09-06_19h11.24.558,rantool2,2021.1.4,Win32,59.93048064,6135e006383e6ea6c3d06a28,61364b3f78a35b3263f1e381,"[""period""]",0,[0.3078999999761436],56,0,56,0,1
,,,,,,,6135d819f5555fe9776deb7e,,,,,,6135d819f5555fe9776deb7e,Kobieta,24,2021-09-06_19h11.24.558,rantool2,2021.1.4,Win32,59.93048064,6135e006383e6ea6c3d06a28,61364b3f78a35b3263f1e381,"[""comma""]",0,[0.3107999999523372],57,0,57,0,1
,,,,,,,6135d819f5555fe9776deb7e,,,,,,6135d819f5555fe9776deb7e,Kobieta,24,2021-09-06_19h11.24.558,rantool2,2021.1.4,Win32,59.93048064,6135e006383e6ea6c3d06a28,61364b3f78a35b3263f1e381,"[""comma""]",0,[0.3078999999761436],58,0,58,0,1
,,,,,,,6135d819f5555fe9776deb7e,,,,,,6135d819f5555fe9776deb7e,Kobieta,24,2021-09-06_19h11.24.558,rantool2,2021.1.4,Win32,59.93048064,6135e006383e6ea6c3d06a28,61364b3f78a35b3263f1e381,"[""period""]",0,[0.23829999995228945],59,0,59,0,1
,,,,,,,6135d819f5555fe9776deb7e,,,,,,6135d819f5555fe9776deb7e,Kobieta,24,2021-09-06_19h11.24.558,rantool2,2021.1.4,Win32,59.93048064,6135e006383e6ea6c3d06a28,61364b3f78a35b3263f1e381,"[""period""]",0,[0.3086000000238869],60,0,60,0,1
,,,,,,,6135d819f5555fe9776deb7e,,,,,,6135d819f5555fe9776deb7e,Kobieta,24,2021-09-06_19h11.24.558,rantool2,2021.1.4,Win32,59.93048064,6135e006383e6ea6c3d06a28,61364b3f78a35b3263f1e381,"[""comma""]",0,[0.30649999999997135],61,0,61,0,1
,,,,,,,6135d819f5555fe9776deb7e,,,,,,6135d819f5555fe9776deb7e,Kobieta,24,2021-09-06_19h11.24.558,rantool2,2021.1.4,Win32,59.93048064,6135e006383e6ea6c3d06a28,61364b3f78a35b3263f1e381,"[""period""]",0,[0.30839999997613177],62,0,62,0,1
,,,,,,,6135d819f5555fe9776deb7e,,,,,,6135d819f5555fe9776deb7e,Kobieta,24,2021-09-06_19h11.24.558,rantool2,2021.1.4,Win32,59.93048064,6135e006383e6ea6c3d06a28,61364b3f78a35b3263f1e381,"[""comma""]",0,[0.34089999997615905],63,0,63,0,1
,,,,,,,6135d819f5555fe9776deb7e,,,,,,6135d819f5555fe9776deb7e,Kobieta,24,2021-09-06_19h11.24.558,rantool2,2021.1.4,Win32,59.93048064,6135e006383e6ea6c3d06a28,61364b3f78a35b3263f1e381,"[""period""]",0,[0.3323000000714842],64,0,64,0,1
,,,,,,,6135d819f5555fe9776deb7e,,,,,,6135d819f5555fe9776deb7e,Kobieta,24,2021-09-06_19h11.24.558,rantool2,2021.1.4,Win32,59.93048064,6135e006383e6ea6c3d06a28,61364b3f78a35b3263f1e381,"[""comma""]",0,[0.29849999999999],65,0,65,0,1
,,,,,,,6135d819f5555fe9776deb7e,,,,,,6135d819f5555fe9776deb7e,Kobieta,24,2021-09-06_19h11.24.558,rantool2,2021.1.4,Win32,59.93048064,6135e006383e6ea6c3d06a28,61364b3f78a35b3263f1e381,"[""period""]",0,[0.35420000004768326],66,0,66,0,1
,,,,,,,6135d819f5555fe9776deb7e,,,,,,6135d819f5555fe9776deb7e,Kobieta,24,2021-09-06_19h11.24.558,rantool2,2021.1.4,Win32,59.93048064,6135e006383e6ea6c3d06a28,61364b3f78a35b3263f1e381,"[""period""]",0,[0.29300000000000637],67,0,67,0,1
,,,,,,,6135d819f5555fe9776deb7e,,,,,,6135d819f5555fe9776deb7e,Kobieta,24,2021-09-06_19h11.24.558,rantool2,2021.1.4,Win32,59.93048064,6135e006383e6ea6c3d06a28,61364b3f78a35b3263f1e381,"[""period""]",0,[0.3398999999761827],68,0,68,0,1
,,,,,,,6135d819f5555fe9776deb7e,,,,,,6135d819f5555fe9776deb7e,Kobieta,24,2021-09-06_19h11.24.558,rantool2,2021.1.4,Win32,59.93048064,6135e006383e6ea6c3d06a28,61364b3f78a35b3263f1e381,"[""comma""]",0,[0.2573999999762009],69,0,69,0,1
,,,,,,,6135d819f5555fe9776deb7e,,,,,,6135d819f5555fe9776deb7e,Kobieta,24,2021-09-06_19h11.24.558,rantool2,2021.1.4,Win32,59.93048064,6135e006383e6ea6c3d06a28,61364b3f78a35b3263f1e381,"[""comma""]",0,[0.27319999992846533],70,0,70,0,1
,,,,,,,6135d819f5555fe9776deb7e,,,,,,6135d819f5555fe9776deb7e,Kobieta,24,2021-09-06_19h11.24.558,rantool2,2021.1.4,Win32,59.93048064,6135e006383e6ea6c3d06a28,61364b3f78a35b3263f1e381,"[""period""]",0,[0.25629999995231856],71,0,71,0,1
,,,,,,,6135d819f5555fe9776deb7e,,,,,,6135d819f5555fe9776deb7e,Kobieta,24,2021-09-06_19h11.24.558,rantool2,2021.1.4,Win32,59.93048064,6135e006383e6ea6c3d06a28,61364b3f78a35b3263f1e381,"[""comma""]",0,[0.2636000000238141],72,0,72,0,1
,,,,,,,6135d819f5555fe9776deb7e,,,,,,6135d819f5555fe9776deb7e,Kobieta,24,2021-09-06_19h11.24.558,rantool2,2021.1.4,Win32,59.93048064,6135e006383e6ea6c3d06a28,61364b3f78a35b3263f1e381,"[""comma""]",0,[0.2733999999761636],73,0,73,0,1
,,,,,,,6135d819f5555fe9776deb7e,,,,,,6135d819f5555fe9776deb7e,Kobieta,24,2021-09-06_19h11.24.558,rantool2,2021.1.4,Win32,59.93048064,6135e006383e6ea6c3d06a28,61364b3f78a35b3263f1e381,"[""comma""]",0,[0.34320000004765916],74,0,74,0,1
,,,,,,,6135d819f5555fe9776deb7e,,,,,,6135d819f5555fe9776deb7e,Kobieta,24,2021-09-06_19h11.24.558,rantool2,2021.1.4,Win32,59.93048064,6135e006383e6ea6c3d06a28,61364b3f78a35b3263f1e381,"[""period""]",0,[0.2943999999761786],75,0,75,0,1
,,,,,,,6135d819f5555fe9776deb7e,,,,,,6135d819f5555fe9776deb7e,Kobieta,24,2021-09-06_19h11.24.558,rantool2,2021.1.4,Win32,59.93048064,6135e006383e6ea6c3d06a28,61364b3f78a35b3263f1e381,"[""period""]",0,[0.261299999952314],76,0,76,0,1
,,,,,,,6135d819f5555fe9776deb7e,,,,,,6135d819f5555fe9776deb7e,Kobieta,24,2021-09-06_19h11.24.558,rantool2,2021.1.4,Win32,59.93048064,6135e006383e6ea6c3d06a28,61364b3f78a35b3263f1e381,"[""comma""]",0,[0.32510000002383777],77,0,77,0,1
,,,,,,,6135d819f5555fe9776deb7e,,,,,,6135d819f5555fe9776deb7e,Kobieta,24,2021-09-06_19h11.24.558,rantool2,2021.1.4,Win32,59.93048064,6135e006383e6ea6c3d06a28,61364b3f78a35b3263f1e381,"[""period""]",0,[0.007000000000005002],78,0,78,0,1
,,,,,,,6135d819f5555fe9776deb7e,,,,,,6135d819f5555fe9776deb7e,Kobieta,24,2021-09-06_19h11.24.558,rantool2,2021.1.4,Win32,59.93048064,6135e006383e6ea6c3d06a28,61364b3f78a35b3263f1e381,"[""period""]",0,[0.23929999995232265],79,0,79,0,1
,,,,,,,6135d819f5555fe9776deb7e,,,,,,6135d819f5555fe9776deb7e,Kobieta,24,2021-09-06_19h11.24.558,rantool2,2021.1.4,Win32,59.93048064,6135e006383e6ea6c3d06a28,61364b3f78a35b3263f1e381,"[""comma""]",0,[0.31170000004766507],80,0,80,0,1
,,,,,,,6135d819f5555fe9776deb7e,,,,,,6135d819f5555fe9776deb7e,Kobieta,24,2021-09-06_19h11.24.558,rantool2,2021.1.4,Win32,59.93048064,6135e006383e6ea6c3d06a28,61364b3f78a35b3263f1e381,"[""period""]",0,[0.34260000002382185],81,0,81,0,1
,,,,,,,6135d819f5555fe9776deb7e,,,,,,6135d819f5555fe9776deb7e,Kobieta,24,2021-09-06_19h11.24.558,rantool2,2021.1.4,Win32,59.93048064,6135e006383e6ea6c3d06a28,61364b3f78a35b3263f1e381,"[""period""]",0,[0.329200000047706],82,0,82,0,1
,,,,,,,6135d819f5555fe9776deb7e,,,,,,6135d819f5555fe9776deb7e,Kobieta,24,2021-09-06_19h11.24.558,rantool2,2021.1.4,Win32,59.93048064,6135e006383e6ea6c3d06a28,61364b3f78a35b3263f1e381,"[""comma""]",0,[0.42980000007156605],83,0,83,0,1
,,,,,,,6135d819f5555fe9776deb7e,,,,,,6135d819f5555fe9776deb7e,Kobieta,24,2021-09-06_19h11.24.558,rantool2,2021.1.4,Win32,59.93048064,6135e006383e6ea6c3d06a28,61364b3f78a35b3263f1e381,"[""period""]",0,[0.29849999999999],84,0,84,0,1
,,,,,,,6135d819f5555fe9776deb7e,,,,,,6135d819f5555fe9776deb7e,Kobieta,24,2021-09-06_19h11.24.558,rantool2,2021.1.4,Win32,59.93048064,6135e006383e6ea6c3d06a28,61364b3f78a35b3263f1e381,"[""comma""]",0,[0.322200000047701],85,0,85,0,1
,,,,,,,6135d819f5555fe9776deb7e,,,,,,6135d819f5555fe9776deb7e,Kobieta,24,2021-09-06_19h11.24.558,rantool2,2021.1.4,Win32,59.93048064,6135e006383e6ea6c3d06a28,61364b3f78a35b3263f1e381,"[""period""]",0,[0.31220000004765325],86,0,86,0,1
,,,,,,,6135d819f5555fe9776deb7e,,,,,,6135d819f5555fe9776deb7e,Kobieta,24,2021-09-06_19h11.24.558,rantool2,2021.1.4,Win32,59.93048064,6135e006383e6ea6c3d06a28,61364b3f78a35b3263f1e381,"[""period""]",0,[0.2808999999761568],87,0,87,0,1
,,,,,,,6135d819f5555fe9776deb7e,,,,,,6135d819f5555fe9776deb7e,Kobieta,24,2021-09-06_19h11.24.558,rantool2,2021.1.4,Win32,59.93048064,6135e006383e6ea6c3d06a28,61364b3f78a35b3263f1e381,"[""comma""]",0,[0.3382999999523122],88,0,88,0,1
,,,,,,,6135d819f5555fe9776deb7e,,,,,,6135d819f5555fe9776deb7e,Kobieta,24,2021-09-06_19h11.24.558,rantool2,2021.1.4,Win32,59.93048064,6135e006383e6ea6c3d06a28,61364b3f78a35b3263f1e381,"[""period""]",0,[0.3230000000000359],89,0,89,0,1
,,,,,,,6135d819f5555fe9776deb7e,,,,,,6135d819f5555fe9776deb7e,Kobieta,24,2021-09-06_19h11.24.558,rantool2,2021.1.4,Win32,59.93048064,6135e006383e6ea6c3d06a28,61364b3f78a35b3263f1e381,"[""period""]",0,[0.3227000000476892],90,0,90,0,1
,,,,,,,6135d819f5555fe9776deb7e,,,,,,6135d819f5555fe9776deb7e,Kobieta,24,2021-09-06_19h11.24.558,rantool2,2021.1.4,Win32,59.93048064,6135e006383e6ea6c3d06a28,61364b3f78a35b3263f1e381,"[""comma""]",0,[0.3241000000238614],91,0,91,0,1
,,,,,,,6135d819f5555fe9776deb7e,,,,,,6135d819f5555fe9776deb7e,Kobieta,24,2021-09-06_19h11.24.558,rantool2,2021.1.4,Win32,59.93048064,6135e006383e6ea6c3d06a28,61364b3f78a35b3263f1e381,"[""period""]",0,[0.30810000002384186],92,0,92,0,1
,,,,,,,6135d819f5555fe9776deb7e,,,,,,6135d819f5555fe9776deb7e,Kobieta,24,2021-09-06_19h11.24.558,rantool2,2021.1.4,Win32,59.93048064,6135e006383e6ea6c3d06a28,61364b3f78a35b3263f1e381,"[""period""]",0,[0.2918999999761809],93,0,93,0,1
,,,,,,,6135d819f5555fe9776deb7e,,,,,,6135d819f5555fe9776deb7e,Kobieta,24,2021-09-06_19h11.24.558,rantool2,2021.1.4,Win32,59.93048064,6135e006383e6ea6c3d06a28,61364b3f78a35b3263f1e381,"[""comma""]",0,[0.27940000009533605],94,0,94,0,1
,,,,,,,6135d819f5555fe9776deb7e,,,,,,6135d819f5555fe9776deb7e,Kobieta,24,2021-09-06_19h11.24.558,rantool2,2021.1.4,Win32,59.93048064,6135e006383e6ea6c3d06a28,61364b3f78a35b3263f1e381,"[""comma""]",0,[0.2565000000000168],95,0,95,0,1
,,,,,,,6135d819f5555fe9776deb7e,,,,,,6135d819f5555fe9776deb7e,Kobieta,24,2021-09-06_19h11.24.558,rantool2,2021.1.4,Win32,59.93048064,6135e006383e6ea6c3d06a28,61364b3f78a35b3263f1e381,"[""period""]",0,[0.2728999999761186],96,0,96,0,1
,,,,,,,6135d819f5555fe9776deb7e,,,,,,6135d819f5555fe9776deb7e,Kobieta,24,2021-09-06_19h11.24.558,rantool2,2021.1.4,Win32,59.93048064,6135e006383e6ea6c3d06a28,61364b3f78a35b3263f1e381,"[""comma""]",0,[0.25730000007149556],97,0,97,0,1
,,,,,,,6135d819f5555fe9776deb7e,,,,,,6135d819f5555fe9776deb7e,Kobieta,24,2021-09-06_19h11.24.558,rantool2,2021.1.4,Win32,59.93048064,6135e006383e6ea6c3d06a28,61364b3f78a35b3263f1e381,"[""period""]",0,[0.30860000002383003],98,0,98,0,1
,,,,,,,6135d819f5555fe9776deb7e,,,,,,6135d819f5555fe9776deb7e,Kobieta,24,2021-09-06_19h11.24.558,rantool2,2021.1.4,Win32,59.93048064,6135e006383e6ea6c3d06a28,61364b3f78a35b3263f1e381,"[""period""]",0,[0.3072000000476578],99,0,99,0,1
,,,,,,,6135d819f5555fe9776deb7e,,,,,,6135d819f5555fe9776deb7e,Kobieta,24,2021-09-06_19h11.24.558,rantool2,2021.1.4,Win32,59.93048064,6135e006383e6ea6c3d06a28,61364b3f78a35b3263f1e381,"[""period""]",0,[0.2891000000238364],100,0,100,0,1
,,,,,,,6135d819f5555fe9776deb7e,,,,,,6135d819f5555fe9776deb7e,Kobieta,24,2021-09-06_19h11.24.558,rantool2,2021.1.4,Win32,59.93048064,6135e006383e6ea6c3d06a28,61364b3f78a35b3263f1e381,"[""comma""]",0,[0.27539999997617315],101,0,101,0,1
,,,,,,,6135d819f5555fe9776deb7e,,,,,,6135d819f5555fe9776deb7e,Kobieta,24,2021-09-06_19h11.24.558,rantool2,2021.1.4,Win32,59.93048064,6135e006383e6ea6c3d06a28,61364b3f78a35b3263f1e381,"[""comma""]",0,[0.2401999999285067],102,0,102,0,1
,,,,,,,6135d819f5555fe9776deb7e,,,,,,6135d819f5555fe9776deb7e,Kobieta,24,2021-09-06_19h11.24.558,rantool2,2021.1.4,Win32,59.93048064,6135e006383e6ea6c3d06a28,61364b3f78a35b3263f1e381,"[""comma""]",0,[0.2912000000476951],103,0,103,0,1
,,,,,,,6135d819f5555fe9776deb7e,,,,,,6135d819f5555fe9776deb7e,Kobieta,24,2021-09-06_19h11.24.558,rantool2,2021.1.4,Win32,59.93048064,6135e006383e6ea6c3d06a28,61364b3f78a35b3263f1e381,"[""period""]",0,[0.2740000000000009],104,0,104,0,1
,,,,,,,6135d819f5555fe9776deb7e,,,,,,6135d819f5555fe9776deb7e,Kobieta,24,2021-09-06_19h11.24.558,rantool2,2021.1.4,Win32,59.93048064,6135e006383e6ea6c3d06a28,61364b3f78a35b3263f1e381,"[""period""]",0,[0.2897999999523222],105,0,105,0,1
,,,,,,,6135d819f5555fe9776deb7e,,,,,,6135d819f5555fe9776deb7e,Kobieta,24,2021-09-06_19h11.24.558,rantool2,2021.1.4,Win32,59.93048064,6135e006383e6ea6c3d06a28,61364b3f78a35b3263f1e381,"[""period""]",0,[0.31049999999999045],106,0,106,0,1
,,,,,,,6135d819f5555fe9776deb7e,,,,,,6135d819f5555fe9776deb7e,Kobieta,24,2021-09-06_19h11.24.558,rantool2,2021.1.4,Win32,59.93048064,6135e006383e6ea6c3d06a28,61364b3f78a35b3263f1e381,"[""period""]",0,[0.27319999992846533],107,0,107,0,1
,,,,,,,6135d819f5555fe9776deb7e,,,,,,6135d819f5555fe9776deb7e,Kobieta,24,2021-09-06_19h11.24.558,rantool2,2021.1.4,Win32,59.93048064,6135e006383e6ea6c3d06a28,61364b3f78a35b3263f1e381,"[""comma""]",0,[0.29060000002380093],108,0,108,0,1
,,,,,,,6135d819f5555fe9776deb7e,,,,,,6135d819f5555fe9776deb7e,Kobieta,24,2021-09-06_19h11.24.558,rantool2,2021.1.4,Win32,59.93048064,6135e006383e6ea6c3d06a28,61364b3f78a35b3263f1e381,"[""comma""]",0,[0.25590000009538016],109,0,109,0,1
,,,,,,,6135d819f5555fe9776deb7e,,,,,,6135d819f5555fe9776deb7e,Kobieta,24,2021-09-06_19h11.24.558,rantool2,2021.1.4,Win32,59.93048064,6135e006383e6ea6c3d06a28,61364b3f78a35b3263f1e381,"[""period""]",0,[0.3464999999999918],110,0,110,0,1
,,,,,,,6135d819f5555fe9776deb7e,,,,,,6135d819f5555fe9776deb7e,Kobieta,24,2021-09-06_19h11.24.558,rantool2,2021.1.4,Win32,59.93048064,6135e006383e6ea6c3d06a28,61364b3f78a35b3263f1e381,"[""comma""]",0,[0.32919999992850535],111,0,111,0,1
,,,,,,,6135d819f5555fe9776deb7e,,,,,,6135d819f5555fe9776deb7e,Kobieta,24,2021-09-06_19h11.24.558,rantool2,2021.1.4,Win32,59.93048064,6135e006383e6ea6c3d06a28,61364b3f78a35b3263f1e381,"[""period""]",0,[0.27680000007154604],112,0,112,0,1
,,,,,,,6135d819f5555fe9776deb7e,,,,,,6135d819f5555fe9776deb7e,Kobieta,24,2021-09-06_19h11.24.558,rantool2,2021.1.4,Win32,59.93048064,6135e006383e6ea6c3d06a28,61364b3f78a35b3263f1e381,"[""period""]",0,[0.2733999999761636],113,0,113,0,1
,,,,,,,6135d819f5555fe9776deb7e,,,,,,6135d819f5555fe9776deb7e,Kobieta,24,2021-09-06_19h11.24.558,rantool2,2021.1.4,Win32,59.93048064,6135e006383e6ea6c3d06a28,61364b3f78a35b3263f1e381,"[""comma""]",0,[0.28220000004768053],114,0,114,0,1
,,,,,,,6135d819f5555fe9776deb7e,,,,,,6135d819f5555fe9776deb7e,Kobieta,24,2021-09-06_19h11.24.558,rantool2,2021.1.4,Win32,59.93048064,6135e006383e6ea6c3d06a28,61364b3f78a35b3263f1e381,"[""comma""]",0,[0.38970000004769645],115,0,115,0,1
,,,,,,,6135d819f5555fe9776deb7e,,,,,,6135d819f5555fe9776deb7e,Kobieta,24,2021-09-06_19h11.24.558,rantool2,2021.1.4,Win32,59.93048064,6135e006383e6ea6c3d06a28,61364b3f78a35b3263f1e381,"[""period""]",0,[0.32320000004767735],116,0,116,0,1
,,,,,,,6135d819f5555fe9776deb7e,,,,,,6135d819f5555fe9776deb7e,Kobieta,24,2021-09-06_19h11.24.558,rantool2,2021.1.4,Win32,59.93048064,6135e006383e6ea6c3d06a28,61364b3f78a35b3263f1e381,"[""period""]",0,[0.3406999999284608],117,0,117,0,1
,,,,,,,6135d819f5555fe9776deb7e,,,,,,6135d819f5555fe9776deb7e,Kobieta,24,2021-09-06_19h11.24.558,rantool2,2021.1.4,Win32,59.93048064,6135e006383e6ea6c3d06a28,61364b3f78a35b3263f1e381,"[""comma""]",0,[0.34180000007154376],118,0,118,0,1
,,,,,,,6135d819f5555fe9776deb7e,,,,,,6135d819f5555fe9776deb7e,Kobieta,24,2021-09-06_19h11.24.558,rantool2,2021.1.4,Win32,59.93048064,6135e006383e6ea6c3d06a28,61364b3f78a35b3263f1e381,"[""period""]",0,[0.29750000000001364],119,0,119,0,1
