key_resp_5.keys,key_resp_5.corr,key_resp_5.rt,trials.thisRepN,trials.thisTrialN,trials.thisN,trials.thisIndex,trials.ran,id*,Płeć*,Wiek*,date,expName,psychopyVersion,OS,frameRate,id,STUDY_ID,SESSION_ID,key_resp_7.keys,key_resp_7.rt,trials_2.thisRepN,trials_2.thisTrialN,trials_2.thisN,trials_2.thisIndex,trials_2.ran,series_0,series_1,acss_0,acss_1,comparison
"[""comma""]",0,[1.4410000000000025],0,0,0,0,1,6059c26c31a2519a4d3e82c0,Kobieta,23,2021-07-13_21h45.17.793,rantool2,2021.1.4,Win32,60.0240096,6059c26c31a2519a4d3e82c0,60d9d14f4a8a35a482e0d9bf,60eded6fca40cb57266f00c7,,,,,,,,,,,,
"[""period""]",0,[1.1799999999999926],1,0,1,0,1,6059c26c31a2519a4d3e82c0,Kobieta,23,2021-07-13_21h45.17.793,rantool2,2021.1.4,Win32,60.0240096,6059c26c31a2519a4d3e82c0,60d9d14f4a8a35a482e0d9bf,60eded6fca40cb57266f00c7,,,,,,,,,,,,
"[""comma""]",0,[0.7079999999999984],2,0,2,0,1,6059c26c31a2519a4d3e82c0,Kobieta,23,2021-07-13_21h45.17.793,rantool2,2021.1.4,Win32,60.0240096,6059c26c31a2519a4d3e82c0,60d9d14f4a8a35a482e0d9bf,60eded6fca40cb57266f00c7,,,,,,,,,,,,
"[""comma""]",0,[0.5049999999999955],3,0,3,0,1,6059c26c31a2519a4d3e82c0,Kobieta,23,2021-07-13_21h45.17.793,rantool2,2021.1.4,Win32,60.0240096,6059c26c31a2519a4d3e82c0,60d9d14f4a8a35a482e0d9bf,60eded6fca40cb57266f00c7,,,,,,,,,,,,
"[""period""]",0,[0.33600000000001273],4,0,4,0,1,6059c26c31a2519a4d3e82c0,Kobieta,23,2021-07-13_21h45.17.793,rantool2,2021.1.4,Win32,60.0240096,6059c26c31a2519a4d3e82c0,60d9d14f4a8a35a482e0d9bf,60eded6fca40cb57266f00c7,,,,,,,,,,,,
"[""period""]",0,[0.6919999999999931],5,0,5,0,1,6059c26c31a2519a4d3e82c0,Kobieta,23,2021-07-13_21h45.17.793,rantool2,2021.1.4,Win32,60.0240096,6059c26c31a2519a4d3e82c0,60d9d14f4a8a35a482e0d9bf,60eded6fca40cb57266f00c7,,,,,,,,,,,,
"[""comma""]",0,[1.3179999999999978],6,0,6,0,1,6059c26c31a2519a4d3e82c0,Kobieta,23,2021-07-13_21h45.17.793,rantool2,2021.1.4,Win32,60.0240096,6059c26c31a2519a4d3e82c0,60d9d14f4a8a35a482e0d9bf,60eded6fca40cb57266f00c7,,,,,,,,,,,,
"[""period""]",0,[0.7449999999999903],7,0,7,0,1,6059c26c31a2519a4d3e82c0,Kobieta,23,2021-07-13_21h45.17.793,rantool2,2021.1.4,Win32,60.0240096,6059c26c31a2519a4d3e82c0,60d9d14f4a8a35a482e0d9bf,60eded6fca40cb57266f00c7,,,,,,,,,,,,
"[""comma""]",0,[0.7349999999999994],8,0,8,0,1,6059c26c31a2519a4d3e82c0,Kobieta,23,2021-07-13_21h45.17.793,rantool2,2021.1.4,Win32,60.0240096,6059c26c31a2519a4d3e82c0,60d9d14f4a8a35a482e0d9bf,60eded6fca40cb57266f00c7,,,,,,,,,,,,
"[""period""]",0,[0.6079999999999899],9,0,9,0,1,6059c26c31a2519a4d3e82c0,Kobieta,23,2021-07-13_21h45.17.793,rantool2,2021.1.4,Win32,60.0240096,6059c26c31a2519a4d3e82c0,60d9d14f4a8a35a482e0d9bf,60eded6fca40cb57266f00c7,,,,,,,,,,,,
"[""comma""]",0,[1.5200000000000102],10,0,10,0,1,6059c26c31a2519a4d3e82c0,Kobieta,23,2021-07-13_21h45.17.793,rantool2,2021.1.4,Win32,60.0240096,6059c26c31a2519a4d3e82c0,60d9d14f4a8a35a482e0d9bf,60eded6fca40cb57266f00c7,,,,,,,,,,,,
"[""period""]",0,[0.6129999999999995],11,0,11,0,1,6059c26c31a2519a4d3e82c0,Kobieta,23,2021-07-13_21h45.17.793,rantool2,2021.1.4,Win32,60.0240096,6059c26c31a2519a4d3e82c0,60d9d14f4a8a35a482e0d9bf,60eded6fca40cb57266f00c7,,,,,,,,,,,,
"[""comma""]",0,[0.37000000000000455],12,0,12,0,1,6059c26c31a2519a4d3e82c0,Kobieta,23,2021-07-13_21h45.17.793,rantool2,2021.1.4,Win32,60.0240096,6059c26c31a2519a4d3e82c0,60d9d14f4a8a35a482e0d9bf,60eded6fca40cb57266f00c7,,,,,,,,,,,,
"[""period""]",0,[0.30800000000000693],13,0,13,0,1,6059c26c31a2519a4d3e82c0,Kobieta,23,2021-07-13_21h45.17.793,rantool2,2021.1.4,Win32,60.0240096,6059c26c31a2519a4d3e82c0,60d9d14f4a8a35a482e0d9bf,60eded6fca40cb57266f00c7,,,,,,,,,,,,
"[""comma""]",0,[0.519999999999996],14,0,14,0,1,6059c26c31a2519a4d3e82c0,Kobieta,23,2021-07-13_21h45.17.793,rantool2,2021.1.4,Win32,60.0240096,6059c26c31a2519a4d3e82c0,60d9d14f4a8a35a482e0d9bf,60eded6fca40cb57266f00c7,,,,,,,,,,,,
"[""period""]",0,[0.39000000000000057],15,0,15,0,1,6059c26c31a2519a4d3e82c0,Kobieta,23,2021-07-13_21h45.17.793,rantool2,2021.1.4,Win32,60.0240096,6059c26c31a2519a4d3e82c0,60d9d14f4a8a35a482e0d9bf,60eded6fca40cb57266f00c7,,,,,,,,,,,,
"[""comma""]",0,[0.34600000000000364],16,0,16,0,1,6059c26c31a2519a4d3e82c0,Kobieta,23,2021-07-13_21h45.17.793,rantool2,2021.1.4,Win32,60.0240096,6059c26c31a2519a4d3e82c0,60d9d14f4a8a35a482e0d9bf,60eded6fca40cb57266f00c7,,,,,,,,,,,,
"[""period""]",0,[0.5719999999999885],17,0,17,0,1,6059c26c31a2519a4d3e82c0,Kobieta,23,2021-07-13_21h45.17.793,rantool2,2021.1.4,Win32,60.0240096,6059c26c31a2519a4d3e82c0,60d9d14f4a8a35a482e0d9bf,60eded6fca40cb57266f00c7,,,,,,,,,,,,
"[""comma""]",0,[0.4649999999999892],18,0,18,0,1,6059c26c31a2519a4d3e82c0,Kobieta,23,2021-07-13_21h45.17.793,rantool2,2021.1.4,Win32,60.0240096,6059c26c31a2519a4d3e82c0,60d9d14f4a8a35a482e0d9bf,60eded6fca40cb57266f00c7,,,,,,,,,,,,
"[""period""]",0,[0.5900000000000034],19,0,19,0,1,6059c26c31a2519a4d3e82c0,Kobieta,23,2021-07-13_21h45.17.793,rantool2,2021.1.4,Win32,60.0240096,6059c26c31a2519a4d3e82c0,60d9d14f4a8a35a482e0d9bf,60eded6fca40cb57266f00c7,,,,,,,,,,,,
"[""comma""]",0,[0.5990000000000038],20,0,20,0,1,6059c26c31a2519a4d3e82c0,Kobieta,23,2021-07-13_21h45.17.793,rantool2,2021.1.4,Win32,60.0240096,6059c26c31a2519a4d3e82c0,60d9d14f4a8a35a482e0d9bf,60eded6fca40cb57266f00c7,,,,,,,,,,,,
"[""period""]",0,[0.7339999999999947],21,0,21,0,1,6059c26c31a2519a4d3e82c0,Kobieta,23,2021-07-13_21h45.17.793,rantool2,2021.1.4,Win32,60.0240096,6059c26c31a2519a4d3e82c0,60d9d14f4a8a35a482e0d9bf,60eded6fca40cb57266f00c7,,,,,,,,,,,,
"[""comma""]",0,[0.3269999999999982],22,0,22,0,1,6059c26c31a2519a4d3e82c0,Kobieta,23,2021-07-13_21h45.17.793,rantool2,2021.1.4,Win32,60.0240096,6059c26c31a2519a4d3e82c0,60d9d14f4a8a35a482e0d9bf,60eded6fca40cb57266f00c7,,,,,,,,,,,,
"[""period""]",0,[0.4399999999999977],23,0,23,0,1,6059c26c31a2519a4d3e82c0,Kobieta,23,2021-07-13_21h45.17.793,rantool2,2021.1.4,Win32,60.0240096,6059c26c31a2519a4d3e82c0,60d9d14f4a8a35a482e0d9bf,60eded6fca40cb57266f00c7,,,,,,,,,,,,
"[""comma""]",0,[0.7039999999999793],24,0,24,0,1,6059c26c31a2519a4d3e82c0,Kobieta,23,2021-07-13_21h45.17.793,rantool2,2021.1.4,Win32,60.0240096,6059c26c31a2519a4d3e82c0,60d9d14f4a8a35a482e0d9bf,60eded6fca40cb57266f00c7,,,,,,,,,,,,
"[""period""]",0,[0.813999999999993],25,0,25,0,1,6059c26c31a2519a4d3e82c0,Kobieta,23,2021-07-13_21h45.17.793,rantool2,2021.1.4,Win32,60.0240096,6059c26c31a2519a4d3e82c0,60d9d14f4a8a35a482e0d9bf,60eded6fca40cb57266f00c7,,,,,,,,,,,,
"[""comma""]",0,[0.6939999999999884],26,0,26,0,1,6059c26c31a2519a4d3e82c0,Kobieta,23,2021-07-13_21h45.17.793,rantool2,2021.1.4,Win32,60.0240096,6059c26c31a2519a4d3e82c0,60d9d14f4a8a35a482e0d9bf,60eded6fca40cb57266f00c7,,,,,,,,,,,,
"[""period""]",0,[0.5860000000000127],27,0,27,0,1,6059c26c31a2519a4d3e82c0,Kobieta,23,2021-07-13_21h45.17.793,rantool2,2021.1.4,Win32,60.0240096,6059c26c31a2519a4d3e82c0,60d9d14f4a8a35a482e0d9bf,60eded6fca40cb57266f00c7,,,,,,,,,,,,
"[""comma""]",0,[0.6670000000000016],28,0,28,0,1,6059c26c31a2519a4d3e82c0,Kobieta,23,2021-07-13_21h45.17.793,rantool2,2021.1.4,Win32,60.0240096,6059c26c31a2519a4d3e82c0,60d9d14f4a8a35a482e0d9bf,60eded6fca40cb57266f00c7,,,,,,,,,,,,
"[""period""]",0,[0.9529999999999745],29,0,29,0,1,6059c26c31a2519a4d3e82c0,Kobieta,23,2021-07-13_21h45.17.793,rantool2,2021.1.4,Win32,60.0240096,6059c26c31a2519a4d3e82c0,60d9d14f4a8a35a482e0d9bf,60eded6fca40cb57266f00c7,,,,,,,,,,,,
"[""comma""]",0,[0.6850000000000023],30,0,30,0,1,6059c26c31a2519a4d3e82c0,Kobieta,23,2021-07-13_21h45.17.793,rantool2,2021.1.4,Win32,60.0240096,6059c26c31a2519a4d3e82c0,60d9d14f4a8a35a482e0d9bf,60eded6fca40cb57266f00c7,,,,,,,,,,,,
"[""period""]",0,[0.3550000000000182],31,0,31,0,1,6059c26c31a2519a4d3e82c0,Kobieta,23,2021-07-13_21h45.17.793,rantool2,2021.1.4,Win32,60.0240096,6059c26c31a2519a4d3e82c0,60d9d14f4a8a35a482e0d9bf,60eded6fca40cb57266f00c7,,,,,,,,,,,,
"[""comma""]",0,[0.3340000000000032],32,0,32,0,1,6059c26c31a2519a4d3e82c0,Kobieta,23,2021-07-13_21h45.17.793,rantool2,2021.1.4,Win32,60.0240096,6059c26c31a2519a4d3e82c0,60d9d14f4a8a35a482e0d9bf,60eded6fca40cb57266f00c7,,,,,,,,,,,,
"[""period""]",0,[0.3259999999999934],33,0,33,0,1,6059c26c31a2519a4d3e82c0,Kobieta,23,2021-07-13_21h45.17.793,rantool2,2021.1.4,Win32,60.0240096,6059c26c31a2519a4d3e82c0,60d9d14f4a8a35a482e0d9bf,60eded6fca40cb57266f00c7,,,,,,,,,,,,
"[""comma""]",0,[0.30000000000001137],34,0,34,0,1,6059c26c31a2519a4d3e82c0,Kobieta,23,2021-07-13_21h45.17.793,rantool2,2021.1.4,Win32,60.0240096,6059c26c31a2519a4d3e82c0,60d9d14f4a8a35a482e0d9bf,60eded6fca40cb57266f00c7,,,,,,,,,,,,
"[""period""]",0,[0.4129999999999825],35,0,35,0,1,6059c26c31a2519a4d3e82c0,Kobieta,23,2021-07-13_21h45.17.793,rantool2,2021.1.4,Win32,60.0240096,6059c26c31a2519a4d3e82c0,60d9d14f4a8a35a482e0d9bf,60eded6fca40cb57266f00c7,,,,,,,,,,,,
"[""comma""]",0,[0.6829999999999927],36,0,36,0,1,6059c26c31a2519a4d3e82c0,Kobieta,23,2021-07-13_21h45.17.793,rantool2,2021.1.4,Win32,60.0240096,6059c26c31a2519a4d3e82c0,60d9d14f4a8a35a482e0d9bf,60eded6fca40cb57266f00c7,,,,,,,,,,,,
"[""period""]",0,[0.914999999999992],37,0,37,0,1,6059c26c31a2519a4d3e82c0,Kobieta,23,2021-07-13_21h45.17.793,rantool2,2021.1.4,Win32,60.0240096,6059c26c31a2519a4d3e82c0,60d9d14f4a8a35a482e0d9bf,60eded6fca40cb57266f00c7,,,,,,,,,,,,
"[""comma""]",0,[0.31100000000000705],38,0,38,0,1,6059c26c31a2519a4d3e82c0,Kobieta,23,2021-07-13_21h45.17.793,rantool2,2021.1.4,Win32,60.0240096,6059c26c31a2519a4d3e82c0,60d9d14f4a8a35a482e0d9bf,60eded6fca40cb57266f00c7,,,,,,,,,,,,
"[""period""]",0,[0.3100000000000023],39,0,39,0,1,6059c26c31a2519a4d3e82c0,Kobieta,23,2021-07-13_21h45.17.793,rantool2,2021.1.4,Win32,60.0240096,6059c26c31a2519a4d3e82c0,60d9d14f4a8a35a482e0d9bf,60eded6fca40cb57266f00c7,,,,,,,,,,,,
"[""comma""]",0,[0.3109999999999786],40,0,40,0,1,6059c26c31a2519a4d3e82c0,Kobieta,23,2021-07-13_21h45.17.793,rantool2,2021.1.4,Win32,60.0240096,6059c26c31a2519a4d3e82c0,60d9d14f4a8a35a482e0d9bf,60eded6fca40cb57266f00c7,,,,,,,,,,,,
"[""period""]",0,[0.26599999999999113],41,0,41,0,1,6059c26c31a2519a4d3e82c0,Kobieta,23,2021-07-13_21h45.17.793,rantool2,2021.1.4,Win32,60.0240096,6059c26c31a2519a4d3e82c0,60d9d14f4a8a35a482e0d9bf,60eded6fca40cb57266f00c7,,,,,,,,,,,,
"[""comma""]",0,[0.6909999999999741],42,0,42,0,1,6059c26c31a2519a4d3e82c0,Kobieta,23,2021-07-13_21h45.17.793,rantool2,2021.1.4,Win32,60.0240096,6059c26c31a2519a4d3e82c0,60d9d14f4a8a35a482e0d9bf,60eded6fca40cb57266f00c7,,,,,,,,,,,,
"[""period""]",0,[0.5919999999999845],43,0,43,0,1,6059c26c31a2519a4d3e82c0,Kobieta,23,2021-07-13_21h45.17.793,rantool2,2021.1.4,Win32,60.0240096,6059c26c31a2519a4d3e82c0,60d9d14f4a8a35a482e0d9bf,60eded6fca40cb57266f00c7,,,,,,,,,,,,
"[""comma""]",0,[0.4059999999999775],44,0,44,0,1,6059c26c31a2519a4d3e82c0,Kobieta,23,2021-07-13_21h45.17.793,rantool2,2021.1.4,Win32,60.0240096,6059c26c31a2519a4d3e82c0,60d9d14f4a8a35a482e0d9bf,60eded6fca40cb57266f00c7,,,,,,,,,,,,
"[""period""]",0,[0.664999999999992],45,0,45,0,1,6059c26c31a2519a4d3e82c0,Kobieta,23,2021-07-13_21h45.17.793,rantool2,2021.1.4,Win32,60.0240096,6059c26c31a2519a4d3e82c0,60d9d14f4a8a35a482e0d9bf,60eded6fca40cb57266f00c7,,,,,,,,,,,,
"[""comma""]",0,[0.5289999999999964],46,0,46,0,1,6059c26c31a2519a4d3e82c0,Kobieta,23,2021-07-13_21h45.17.793,rantool2,2021.1.4,Win32,60.0240096,6059c26c31a2519a4d3e82c0,60d9d14f4a8a35a482e0d9bf,60eded6fca40cb57266f00c7,,,,,,,,,,,,
"[""period""]",0,[0.8509999999999991],47,0,47,0,1,6059c26c31a2519a4d3e82c0,Kobieta,23,2021-07-13_21h45.17.793,rantool2,2021.1.4,Win32,60.0240096,6059c26c31a2519a4d3e82c0,60d9d14f4a8a35a482e0d9bf,60eded6fca40cb57266f00c7,,,,,,,,,,,,
"[""comma""]",0,[0.3689999999999998],48,0,48,0,1,6059c26c31a2519a4d3e82c0,Kobieta,23,2021-07-13_21h45.17.793,rantool2,2021.1.4,Win32,60.0240096,6059c26c31a2519a4d3e82c0,60d9d14f4a8a35a482e0d9bf,60eded6fca40cb57266f00c7,,,,,,,,,,,,
"[""period""]",0,[0.5110000000000241],49,0,49,0,1,6059c26c31a2519a4d3e82c0,Kobieta,23,2021-07-13_21h45.17.793,rantool2,2021.1.4,Win32,60.0240096,6059c26c31a2519a4d3e82c0,60d9d14f4a8a35a482e0d9bf,60eded6fca40cb57266f00c7,,,,,,,,,,,,
"[""comma""]",0,[0.3329999999999984],50,0,50,0,1,6059c26c31a2519a4d3e82c0,Kobieta,23,2021-07-13_21h45.17.793,rantool2,2021.1.4,Win32,60.0240096,6059c26c31a2519a4d3e82c0,60d9d14f4a8a35a482e0d9bf,60eded6fca40cb57266f00c7,,,,,,,,,,,,
"[""period""]",0,[0.29999999999998295],51,0,51,0,1,6059c26c31a2519a4d3e82c0,Kobieta,23,2021-07-13_21h45.17.793,rantool2,2021.1.4,Win32,60.0240096,6059c26c31a2519a4d3e82c0,60d9d14f4a8a35a482e0d9bf,60eded6fca40cb57266f00c7,,,,,,,,,,,,
"[""comma""]",0,[0.30699999999998795],52,0,52,0,1,6059c26c31a2519a4d3e82c0,Kobieta,23,2021-07-13_21h45.17.793,rantool2,2021.1.4,Win32,60.0240096,6059c26c31a2519a4d3e82c0,60d9d14f4a8a35a482e0d9bf,60eded6fca40cb57266f00c7,,,,,,,,,,,,
"[""period""]",0,[0.45000000000001705],53,0,53,0,1,6059c26c31a2519a4d3e82c0,Kobieta,23,2021-07-13_21h45.17.793,rantool2,2021.1.4,Win32,60.0240096,6059c26c31a2519a4d3e82c0,60d9d14f4a8a35a482e0d9bf,60eded6fca40cb57266f00c7,,,,,,,,,,,,
"[""comma""]",0,[0.24500000000000455],54,0,54,0,1,6059c26c31a2519a4d3e82c0,Kobieta,23,2021-07-13_21h45.17.793,rantool2,2021.1.4,Win32,60.0240096,6059c26c31a2519a4d3e82c0,60d9d14f4a8a35a482e0d9bf,60eded6fca40cb57266f00c7,,,,,,,,,,,,
"[""period""]",0,[0.32499999999998863],55,0,55,0,1,6059c26c31a2519a4d3e82c0,Kobieta,23,2021-07-13_21h45.17.793,rantool2,2021.1.4,Win32,60.0240096,6059c26c31a2519a4d3e82c0,60d9d14f4a8a35a482e0d9bf,60eded6fca40cb57266f00c7,,,,,,,,,,,,
"[""comma""]",0,[0.34199999999998454],56,0,56,0,1,6059c26c31a2519a4d3e82c0,Kobieta,23,2021-07-13_21h45.17.793,rantool2,2021.1.4,Win32,60.0240096,6059c26c31a2519a4d3e82c0,60d9d14f4a8a35a482e0d9bf,60eded6fca40cb57266f00c7,,,,,,,,,,,,
"[""period""]",0,[0.3650000000000091],57,0,57,0,1,6059c26c31a2519a4d3e82c0,Kobieta,23,2021-07-13_21h45.17.793,rantool2,2021.1.4,Win32,60.0240096,6059c26c31a2519a4d3e82c0,60d9d14f4a8a35a482e0d9bf,60eded6fca40cb57266f00c7,,,,,,,,,,,,
"[""comma""]",0,[0.3400000000000034],58,0,58,0,1,6059c26c31a2519a4d3e82c0,Kobieta,23,2021-07-13_21h45.17.793,rantool2,2021.1.4,Win32,60.0240096,6059c26c31a2519a4d3e82c0,60d9d14f4a8a35a482e0d9bf,60eded6fca40cb57266f00c7,,,,,,,,,,,,
"[""period""]",0,[0.26899999999997704],59,0,59,0,1,6059c26c31a2519a4d3e82c0,Kobieta,23,2021-07-13_21h45.17.793,rantool2,2021.1.4,Win32,60.0240096,6059c26c31a2519a4d3e82c0,60d9d14f4a8a35a482e0d9bf,60eded6fca40cb57266f00c7,,,,,,,,,,,,
"[""comma""]",0,[0.2560000000000002],60,0,60,0,1,6059c26c31a2519a4d3e82c0,Kobieta,23,2021-07-13_21h45.17.793,rantool2,2021.1.4,Win32,60.0240096,6059c26c31a2519a4d3e82c0,60d9d14f4a8a35a482e0d9bf,60eded6fca40cb57266f00c7,,,,,,,,,,,,
"[""period""]",0,[0.3100000000000023],61,0,61,0,1,6059c26c31a2519a4d3e82c0,Kobieta,23,2021-07-13_21h45.17.793,rantool2,2021.1.4,Win32,60.0240096,6059c26c31a2519a4d3e82c0,60d9d14f4a8a35a482e0d9bf,60eded6fca40cb57266f00c7,,,,,,,,,,,,
"[""comma""]",0,[0.4159999999999968],62,0,62,0,1,6059c26c31a2519a4d3e82c0,Kobieta,23,2021-07-13_21h45.17.793,rantool2,2021.1.4,Win32,60.0240096,6059c26c31a2519a4d3e82c0,60d9d14f4a8a35a482e0d9bf,60eded6fca40cb57266f00c7,,,,,,,,,,,,
"[""period""]",0,[0.3030000000000257],63,0,63,0,1,6059c26c31a2519a4d3e82c0,Kobieta,23,2021-07-13_21h45.17.793,rantool2,2021.1.4,Win32,60.0240096,6059c26c31a2519a4d3e82c0,60d9d14f4a8a35a482e0d9bf,60eded6fca40cb57266f00c7,,,,,,,,,,,,
"[""comma""]",0,[0.3170000000000073],64,0,64,0,1,6059c26c31a2519a4d3e82c0,Kobieta,23,2021-07-13_21h45.17.793,rantool2,2021.1.4,Win32,60.0240096,6059c26c31a2519a4d3e82c0,60d9d14f4a8a35a482e0d9bf,60eded6fca40cb57266f00c7,,,,,,,,,,,,
"[""period""]",0,[0.42199999999999704],65,0,65,0,1,6059c26c31a2519a4d3e82c0,Kobieta,23,2021-07-13_21h45.17.793,rantool2,2021.1.4,Win32,60.0240096,6059c26c31a2519a4d3e82c0,60d9d14f4a8a35a482e0d9bf,60eded6fca40cb57266f00c7,,,,,,,,,,,,
"[""comma""]",0,[0.30700000000001637],66,0,66,0,1,6059c26c31a2519a4d3e82c0,Kobieta,23,2021-07-13_21h45.17.793,rantool2,2021.1.4,Win32,60.0240096,6059c26c31a2519a4d3e82c0,60d9d14f4a8a35a482e0d9bf,60eded6fca40cb57266f00c7,,,,,,,,,,,,
"[""period""]",0,[0.29699999999999704],67,0,67,0,1,6059c26c31a2519a4d3e82c0,Kobieta,23,2021-07-13_21h45.17.793,rantool2,2021.1.4,Win32,60.0240096,6059c26c31a2519a4d3e82c0,60d9d14f4a8a35a482e0d9bf,60eded6fca40cb57266f00c7,,,,,,,,,,,,
"[""comma""]",0,[0.3160000000000025],68,0,68,0,1,6059c26c31a2519a4d3e82c0,Kobieta,23,2021-07-13_21h45.17.793,rantool2,2021.1.4,Win32,60.0240096,6059c26c31a2519a4d3e82c0,60d9d14f4a8a35a482e0d9bf,60eded6fca40cb57266f00c7,,,,,,,,,,,,
"[""period""]",0,[0.4099999999999966],69,0,69,0,1,6059c26c31a2519a4d3e82c0,Kobieta,23,2021-07-13_21h45.17.793,rantool2,2021.1.4,Win32,60.0240096,6059c26c31a2519a4d3e82c0,60d9d14f4a8a35a482e0d9bf,60eded6fca40cb57266f00c7,,,,,,,,,,,,
"[""comma""]",0,[0.3480000000000132],70,0,70,0,1,6059c26c31a2519a4d3e82c0,Kobieta,23,2021-07-13_21h45.17.793,rantool2,2021.1.4,Win32,60.0240096,6059c26c31a2519a4d3e82c0,60d9d14f4a8a35a482e0d9bf,60eded6fca40cb57266f00c7,,,,,,,,,,,,
"[""period""]",0,[0.34499999999999886],71,0,71,0,1,6059c26c31a2519a4d3e82c0,Kobieta,23,2021-07-13_21h45.17.793,rantool2,2021.1.4,Win32,60.0240096,6059c26c31a2519a4d3e82c0,60d9d14f4a8a35a482e0d9bf,60eded6fca40cb57266f00c7,,,,,,,,,,,,
"[""comma""]",0,[0.27600000000001046],72,0,72,0,1,6059c26c31a2519a4d3e82c0,Kobieta,23,2021-07-13_21h45.17.793,rantool2,2021.1.4,Win32,60.0240096,6059c26c31a2519a4d3e82c0,60d9d14f4a8a35a482e0d9bf,60eded6fca40cb57266f00c7,,,,,,,,,,,,
"[""period""]",0,[0.33899999999999864],73,0,73,0,1,6059c26c31a2519a4d3e82c0,Kobieta,23,2021-07-13_21h45.17.793,rantool2,2021.1.4,Win32,60.0240096,6059c26c31a2519a4d3e82c0,60d9d14f4a8a35a482e0d9bf,60eded6fca40cb57266f00c7,,,,,,,,,,,,
"[""comma""]",0,[0.28000000000000114],74,0,74,0,1,6059c26c31a2519a4d3e82c0,Kobieta,23,2021-07-13_21h45.17.793,rantool2,2021.1.4,Win32,60.0240096,6059c26c31a2519a4d3e82c0,60d9d14f4a8a35a482e0d9bf,60eded6fca40cb57266f00c7,,,,,,,,,,,,
"[""period""]",0,[0.992999999999995],75,0,75,0,1,6059c26c31a2519a4d3e82c0,Kobieta,23,2021-07-13_21h45.17.793,rantool2,2021.1.4,Win32,60.0240096,6059c26c31a2519a4d3e82c0,60d9d14f4a8a35a482e0d9bf,60eded6fca40cb57266f00c7,,,,,,,,,,,,
"[""comma""]",0,[0.30299999999999727],76,0,76,0,1,6059c26c31a2519a4d3e82c0,Kobieta,23,2021-07-13_21h45.17.793,rantool2,2021.1.4,Win32,60.0240096,6059c26c31a2519a4d3e82c0,60d9d14f4a8a35a482e0d9bf,60eded6fca40cb57266f00c7,,,,,,,,,,,,
"[""period""]",0,[0.3359999999999843],77,0,77,0,1,6059c26c31a2519a4d3e82c0,Kobieta,23,2021-07-13_21h45.17.793,rantool2,2021.1.4,Win32,60.0240096,6059c26c31a2519a4d3e82c0,60d9d14f4a8a35a482e0d9bf,60eded6fca40cb57266f00c7,,,,,,,,,,,,
"[""comma""]",0,[0.31699999999997885],78,0,78,0,1,6059c26c31a2519a4d3e82c0,Kobieta,23,2021-07-13_21h45.17.793,rantool2,2021.1.4,Win32,60.0240096,6059c26c31a2519a4d3e82c0,60d9d14f4a8a35a482e0d9bf,60eded6fca40cb57266f00c7,,,,,,,,,,,,
"[""period""]",0,[0.2920000000000016],79,0,79,0,1,6059c26c31a2519a4d3e82c0,Kobieta,23,2021-07-13_21h45.17.793,rantool2,2021.1.4,Win32,60.0240096,6059c26c31a2519a4d3e82c0,60d9d14f4a8a35a482e0d9bf,60eded6fca40cb57266f00c7,,,,,,,,,,,,
"[""comma""]",0,[0.382000000000005],80,0,80,0,1,6059c26c31a2519a4d3e82c0,Kobieta,23,2021-07-13_21h45.17.793,rantool2,2021.1.4,Win32,60.0240096,6059c26c31a2519a4d3e82c0,60d9d14f4a8a35a482e0d9bf,60eded6fca40cb57266f00c7,,,,,,,,,,,,
"[""period""]",0,[0.42499999999998295],81,0,81,0,1,6059c26c31a2519a4d3e82c0,Kobieta,23,2021-07-13_21h45.17.793,rantool2,2021.1.4,Win32,60.0240096,6059c26c31a2519a4d3e82c0,60d9d14f4a8a35a482e0d9bf,60eded6fca40cb57266f00c7,,,,,,,,,,,,
"[""comma""]",0,[0.3580000000000041],82,0,82,0,1,6059c26c31a2519a4d3e82c0,Kobieta,23,2021-07-13_21h45.17.793,rantool2,2021.1.4,Win32,60.0240096,6059c26c31a2519a4d3e82c0,60d9d14f4a8a35a482e0d9bf,60eded6fca40cb57266f00c7,,,,,,,,,,,,
"[""period""]",0,[0.29999999999998295],83,0,83,0,1,6059c26c31a2519a4d3e82c0,Kobieta,23,2021-07-13_21h45.17.793,rantool2,2021.1.4,Win32,60.0240096,6059c26c31a2519a4d3e82c0,60d9d14f4a8a35a482e0d9bf,60eded6fca40cb57266f00c7,,,,,,,,,,,,
"[""comma""]",0,[0.37000000000000455],84,0,84,0,1,6059c26c31a2519a4d3e82c0,Kobieta,23,2021-07-13_21h45.17.793,rantool2,2021.1.4,Win32,60.0240096,6059c26c31a2519a4d3e82c0,60d9d14f4a8a35a482e0d9bf,60eded6fca40cb57266f00c7,,,,,,,,,,,,
"[""period""]",0,[0.3039999999999736],85,0,85,0,1,6059c26c31a2519a4d3e82c0,Kobieta,23,2021-07-13_21h45.17.793,rantool2,2021.1.4,Win32,60.0240096,6059c26c31a2519a4d3e82c0,60d9d14f4a8a35a482e0d9bf,60eded6fca40cb57266f00c7,,,,,,,,,,,,
"[""comma""]",0,[0.29599999999999227],86,0,86,0,1,6059c26c31a2519a4d3e82c0,Kobieta,23,2021-07-13_21h45.17.793,rantool2,2021.1.4,Win32,60.0240096,6059c26c31a2519a4d3e82c0,60d9d14f4a8a35a482e0d9bf,60eded6fca40cb57266f00c7,,,,,,,,,,,,
"[""period""]",0,[0.3109999999999786],87,0,87,0,1,6059c26c31a2519a4d3e82c0,Kobieta,23,2021-07-13_21h45.17.793,rantool2,2021.1.4,Win32,60.0240096,6059c26c31a2519a4d3e82c0,60d9d14f4a8a35a482e0d9bf,60eded6fca40cb57266f00c7,,,,,,,,,,,,
"[""comma""]",0,[0.4230000000000018],88,0,88,0,1,6059c26c31a2519a4d3e82c0,Kobieta,23,2021-07-13_21h45.17.793,rantool2,2021.1.4,Win32,60.0240096,6059c26c31a2519a4d3e82c0,60d9d14f4a8a35a482e0d9bf,60eded6fca40cb57266f00c7,,,,,,,,,,,,
"[""period""]",0,[0.2440000000000282],89,0,89,0,1,6059c26c31a2519a4d3e82c0,Kobieta,23,2021-07-13_21h45.17.793,rantool2,2021.1.4,Win32,60.0240096,6059c26c31a2519a4d3e82c0,60d9d14f4a8a35a482e0d9bf,60eded6fca40cb57266f00c7,,,,,,,,,,,,
"[""comma""]",0,[0.2680000000000291],90,0,90,0,1,6059c26c31a2519a4d3e82c0,Kobieta,23,2021-07-13_21h45.17.793,rantool2,2021.1.4,Win32,60.0240096,6059c26c31a2519a4d3e82c0,60d9d14f4a8a35a482e0d9bf,60eded6fca40cb57266f00c7,,,,,,,,,,,,
"[""period""]",0,[0.3129999999999882],91,0,91,0,1,6059c26c31a2519a4d3e82c0,Kobieta,23,2021-07-13_21h45.17.793,rantool2,2021.1.4,Win32,60.0240096,6059c26c31a2519a4d3e82c0,60d9d14f4a8a35a482e0d9bf,60eded6fca40cb57266f00c7,,,,,,,,,,,,
"[""comma""]",0,[0.25],92,0,92,0,1,6059c26c31a2519a4d3e82c0,Kobieta,23,2021-07-13_21h45.17.793,rantool2,2021.1.4,Win32,60.0240096,6059c26c31a2519a4d3e82c0,60d9d14f4a8a35a482e0d9bf,60eded6fca40cb57266f00c7,,,,,,,,,,,,
"[""period""]",0,[0.3170000000000073],93,0,93,0,1,6059c26c31a2519a4d3e82c0,Kobieta,23,2021-07-13_21h45.17.793,rantool2,2021.1.4,Win32,60.0240096,6059c26c31a2519a4d3e82c0,60d9d14f4a8a35a482e0d9bf,60eded6fca40cb57266f00c7,,,,,,,,,,,,
"[""comma""]",0,[0.28899999999998727],94,0,94,0,1,6059c26c31a2519a4d3e82c0,Kobieta,23,2021-07-13_21h45.17.793,rantool2,2021.1.4,Win32,60.0240096,6059c26c31a2519a4d3e82c0,60d9d14f4a8a35a482e0d9bf,60eded6fca40cb57266f00c7,,,,,,,,,,,,
"[""period""]",0,[0.30299999999999727],95,0,95,0,1,6059c26c31a2519a4d3e82c0,Kobieta,23,2021-07-13_21h45.17.793,rantool2,2021.1.4,Win32,60.0240096,6059c26c31a2519a4d3e82c0,60d9d14f4a8a35a482e0d9bf,60eded6fca40cb57266f00c7,,,,,,,,,,,,
"[""comma""]",0,[0.27000000000003865],96,0,96,0,1,6059c26c31a2519a4d3e82c0,Kobieta,23,2021-07-13_21h45.17.793,rantool2,2021.1.4,Win32,60.0240096,6059c26c31a2519a4d3e82c0,60d9d14f4a8a35a482e0d9bf,60eded6fca40cb57266f00c7,,,,,,,,,,,,
"[""period""]",0,[0.34600000000000364],97,0,97,0,1,6059c26c31a2519a4d3e82c0,Kobieta,23,2021-07-13_21h45.17.793,rantool2,2021.1.4,Win32,60.0240096,6059c26c31a2519a4d3e82c0,60d9d14f4a8a35a482e0d9bf,60eded6fca40cb57266f00c7,,,,,,,,,,,,
"[""comma""]",0,[0.33499999999997954],98,0,98,0,1,6059c26c31a2519a4d3e82c0,Kobieta,23,2021-07-13_21h45.17.793,rantool2,2021.1.4,Win32,60.0240096,6059c26c31a2519a4d3e82c0,60d9d14f4a8a35a482e0d9bf,60eded6fca40cb57266f00c7,,,,,,,,,,,,
"[""period""]",0,[0.3100000000000023],99,0,99,0,1,6059c26c31a2519a4d3e82c0,Kobieta,23,2021-07-13_21h45.17.793,rantool2,2021.1.4,Win32,60.0240096,6059c26c31a2519a4d3e82c0,60d9d14f4a8a35a482e0d9bf,60eded6fca40cb57266f00c7,,,,,,,,,,,,
"[""comma""]",0,[0.33300000000002683],100,0,100,0,1,6059c26c31a2519a4d3e82c0,Kobieta,23,2021-07-13_21h45.17.793,rantool2,2021.1.4,Win32,60.0240096,6059c26c31a2519a4d3e82c0,60d9d14f4a8a35a482e0d9bf,60eded6fca40cb57266f00c7,,,,,,,,,,,,
"[""period""]",0,[0.3650000000000091],101,0,101,0,1,6059c26c31a2519a4d3e82c0,Kobieta,23,2021-07-13_21h45.17.793,rantool2,2021.1.4,Win32,60.0240096,6059c26c31a2519a4d3e82c0,60d9d14f4a8a35a482e0d9bf,60eded6fca40cb57266f00c7,,,,,,,,,,,,
"[""comma""]",0,[0.29199999999997317],102,0,102,0,1,6059c26c31a2519a4d3e82c0,Kobieta,23,2021-07-13_21h45.17.793,rantool2,2021.1.4,Win32,60.0240096,6059c26c31a2519a4d3e82c0,60d9d14f4a8a35a482e0d9bf,60eded6fca40cb57266f00c7,,,,,,,,,,,,
"[""period""]",0,[0.35300000000000864],103,0,103,0,1,6059c26c31a2519a4d3e82c0,Kobieta,23,2021-07-13_21h45.17.793,rantool2,2021.1.4,Win32,60.0240096,6059c26c31a2519a4d3e82c0,60d9d14f4a8a35a482e0d9bf,60eded6fca40cb57266f00c7,,,,,,,,,,,,
"[""comma""]",0,[0.2909999999999968],104,0,104,0,1,6059c26c31a2519a4d3e82c0,Kobieta,23,2021-07-13_21h45.17.793,rantool2,2021.1.4,Win32,60.0240096,6059c26c31a2519a4d3e82c0,60d9d14f4a8a35a482e0d9bf,60eded6fca40cb57266f00c7,,,,,,,,,,,,
"[""period""]",0,[0.3210000000000264],105,0,105,0,1,6059c26c31a2519a4d3e82c0,Kobieta,23,2021-07-13_21h45.17.793,rantool2,2021.1.4,Win32,60.0240096,6059c26c31a2519a4d3e82c0,60d9d14f4a8a35a482e0d9bf,60eded6fca40cb57266f00c7,,,,,,,,,,,,
"[""comma""]",0,[0.23699999999996635],106,0,106,0,1,6059c26c31a2519a4d3e82c0,Kobieta,23,2021-07-13_21h45.17.793,rantool2,2021.1.4,Win32,60.0240096,6059c26c31a2519a4d3e82c0,60d9d14f4a8a35a482e0d9bf,60eded6fca40cb57266f00c7,,,,,,,,,,,,
"[""period""]",0,[0.2999999999999545],107,0,107,0,1,6059c26c31a2519a4d3e82c0,Kobieta,23,2021-07-13_21h45.17.793,rantool2,2021.1.4,Win32,60.0240096,6059c26c31a2519a4d3e82c0,60d9d14f4a8a35a482e0d9bf,60eded6fca40cb57266f00c7,,,,,,,,,,,,
"[""comma""]",0,[0.2839999999999918],108,0,108,0,1,6059c26c31a2519a4d3e82c0,Kobieta,23,2021-07-13_21h45.17.793,rantool2,2021.1.4,Win32,60.0240096,6059c26c31a2519a4d3e82c0,60d9d14f4a8a35a482e0d9bf,60eded6fca40cb57266f00c7,,,,,,,,,,,,
"[""period""]",0,[0.20500000000004093],109,0,109,0,1,6059c26c31a2519a4d3e82c0,Kobieta,23,2021-07-13_21h45.17.793,rantool2,2021.1.4,Win32,60.0240096,6059c26c31a2519a4d3e82c0,60d9d14f4a8a35a482e0d9bf,60eded6fca40cb57266f00c7,,,,,,,,,,,,
"[""comma""]",0,[0.34199999999998454],110,0,110,0,1,6059c26c31a2519a4d3e82c0,Kobieta,23,2021-07-13_21h45.17.793,rantool2,2021.1.4,Win32,60.0240096,6059c26c31a2519a4d3e82c0,60d9d14f4a8a35a482e0d9bf,60eded6fca40cb57266f00c7,,,,,,,,,,,,
"[""period""]",0,[0.26300000000003365],111,0,111,0,1,6059c26c31a2519a4d3e82c0,Kobieta,23,2021-07-13_21h45.17.793,rantool2,2021.1.4,Win32,60.0240096,6059c26c31a2519a4d3e82c0,60d9d14f4a8a35a482e0d9bf,60eded6fca40cb57266f00c7,,,,,,,,,,,,
"[""comma""]",0,[0.2899999999999636],112,0,112,0,1,6059c26c31a2519a4d3e82c0,Kobieta,23,2021-07-13_21h45.17.793,rantool2,2021.1.4,Win32,60.0240096,6059c26c31a2519a4d3e82c0,60d9d14f4a8a35a482e0d9bf,60eded6fca40cb57266f00c7,,,,,,,,,,,,
"[""period""]",0,[0.24699999999995725],113,0,113,0,1,6059c26c31a2519a4d3e82c0,Kobieta,23,2021-07-13_21h45.17.793,rantool2,2021.1.4,Win32,60.0240096,6059c26c31a2519a4d3e82c0,60d9d14f4a8a35a482e0d9bf,60eded6fca40cb57266f00c7,,,,,,,,,,,,
"[""comma""]",0,[0.2810000000000059],114,0,114,0,1,6059c26c31a2519a4d3e82c0,Kobieta,23,2021-07-13_21h45.17.793,rantool2,2021.1.4,Win32,60.0240096,6059c26c31a2519a4d3e82c0,60d9d14f4a8a35a482e0d9bf,60eded6fca40cb57266f00c7,,,,,,,,,,,,
"[""period""]",0,[0.4079999999999586],115,0,115,0,1,6059c26c31a2519a4d3e82c0,Kobieta,23,2021-07-13_21h45.17.793,rantool2,2021.1.4,Win32,60.0240096,6059c26c31a2519a4d3e82c0,60d9d14f4a8a35a482e0d9bf,60eded6fca40cb57266f00c7,,,,,,,,,,,,
"[""comma""]",0,[0.5049999999999955],116,0,116,0,1,6059c26c31a2519a4d3e82c0,Kobieta,23,2021-07-13_21h45.17.793,rantool2,2021.1.4,Win32,60.0240096,6059c26c31a2519a4d3e82c0,60d9d14f4a8a35a482e0d9bf,60eded6fca40cb57266f00c7,,,,,,,,,,,,
"[""period""]",0,[0.5559999999999832],117,0,117,0,1,6059c26c31a2519a4d3e82c0,Kobieta,23,2021-07-13_21h45.17.793,rantool2,2021.1.4,Win32,60.0240096,6059c26c31a2519a4d3e82c0,60d9d14f4a8a35a482e0d9bf,60eded6fca40cb57266f00c7,,,,,,,,,,,,
"[""comma""]",0,[0.40200000000004366],118,0,118,0,1,6059c26c31a2519a4d3e82c0,Kobieta,23,2021-07-13_21h45.17.793,rantool2,2021.1.4,Win32,60.0240096,6059c26c31a2519a4d3e82c0,60d9d14f4a8a35a482e0d9bf,60eded6fca40cb57266f00c7,,,,,,,,,,,,
"[""period""]",0,[0.3650000000000091],119,0,119,0,1,6059c26c31a2519a4d3e82c0,Kobieta,23,2021-07-13_21h45.17.793,rantool2,2021.1.4,Win32,60.0240096,6059c26c31a2519a4d3e82c0,60d9d14f4a8a35a482e0d9bf,60eded6fca40cb57266f00c7,,,,,,,,,,,,
,,,,,,,,6059c26c31a2519a4d3e82c0,Kobieta,23,2021-07-13_21h45.17.793,rantool2,2021.1.4,Win32,60.0240096,6059c26c31a2519a4d3e82c0,60d9d14f4a8a35a482e0d9bf,60eded6fca40cb57266f00c7,j,1.365,0,0,0,24,1,ORROOOO,ORROOOR,21.12383932,22.07102821,series_1
,,,,,,,,6059c26c31a2519a4d3e82c0,Kobieta,23,2021-07-13_21h45.17.793,rantool2,2021.1.4,Win32,60.0240096,6059c26c31a2519a4d3e82c0,60d9d14f4a8a35a482e0d9bf,60eded6fca40cb57266f00c7,f,1.252,0,1,1,51,1,RROORRO,RROORRR,21.89852628,22.02786418,series_1
,,,,,,,,6059c26c31a2519a4d3e82c0,Kobieta,23,2021-07-13_21h45.17.793,rantool2,2021.1.4,Win32,60.0240096,6059c26c31a2519a4d3e82c0,60d9d14f4a8a35a482e0d9bf,60eded6fca40cb57266f00c7,j,1.362,0,2,2,38,1,ROORROO,ROORROR,21.79500819,21.36812781,series_0
,,,,,,,,6059c26c31a2519a4d3e82c0,Kobieta,23,2021-07-13_21h45.17.793,rantool2,2021.1.4,Win32,60.0240096,6059c26c31a2519a4d3e82c0,60d9d14f4a8a35a482e0d9bf,60eded6fca40cb57266f00c7,f,1.853,0,3,3,43,1,RORORRO,RORORRR,20.71309134,21.07490964,series_1
,,,,,,,,6059c26c31a2519a4d3e82c0,Kobieta,23,2021-07-13_21h45.17.793,rantool2,2021.1.4,Win32,60.0240096,6059c26c31a2519a4d3e82c0,60d9d14f4a8a35a482e0d9bf,60eded6fca40cb57266f00c7,f,1.687,0,4,4,11,1,OORORRO,OORORRR,22.18365867,22.6797523,series_1
,,,,,,,,6059c26c31a2519a4d3e82c0,Kobieta,23,2021-07-13_21h45.17.793,rantool2,2021.1.4,Win32,60.0240096,6059c26c31a2519a4d3e82c0,60d9d14f4a8a35a482e0d9bf,60eded6fca40cb57266f00c7,j,2.122,0,5,5,6,1,OOORROO,OOORROR,21.12383932,21.38562617,series_1
,,,,,,,,6059c26c31a2519a4d3e82c0,Kobieta,23,2021-07-13_21h45.17.793,rantool2,2021.1.4,Win32,60.0240096,6059c26c31a2519a4d3e82c0,60d9d14f4a8a35a482e0d9bf,60eded6fca40cb57266f00c7,j,1.643,0,6,6,55,1,RRORRRO,RRORRRR,21.56657303,21.21223021,series_0
,,,,,,,,6059c26c31a2519a4d3e82c0,Kobieta,23,2021-07-13_21h45.17.793,rantool2,2021.1.4,Win32,60.0240096,6059c26c31a2519a4d3e82c0,60d9d14f4a8a35a482e0d9bf,60eded6fca40cb57266f00c7,f,1.773,0,7,7,39,1,ROORRRO,ROORRRR,21.82425538,21.38562617,series_0
,,,,,,,,6059c26c31a2519a4d3e82c0,Kobieta,23,2021-07-13_21h45.17.793,rantool2,2021.1.4,Win32,60.0240096,6059c26c31a2519a4d3e82c0,60d9d14f4a8a35a482e0d9bf,60eded6fca40cb57266f00c7,j,1.335,0,8,8,56,1,RRROOOO,RRROOOR,21.6194508,22.31681875,series_1
,,,,,,,,6059c26c31a2519a4d3e82c0,Kobieta,23,2021-07-13_21h45.17.793,rantool2,2021.1.4,Win32,60.0240096,6059c26c31a2519a4d3e82c0,60d9d14f4a8a35a482e0d9bf,60eded6fca40cb57266f00c7,j,1.351,0,9,9,58,1,RRROROO,RRROROR,22.1285618,21.37121559,series_0
,,,,,,,,6059c26c31a2519a4d3e82c0,Kobieta,23,2021-07-13_21h45.17.793,rantool2,2021.1.4,Win32,60.0240096,6059c26c31a2519a4d3e82c0,60d9d14f4a8a35a482e0d9bf,60eded6fca40cb57266f00c7,f,1.642,0,10,10,9,1,OOROORO,OOROORR,21.07991943,22.2428857,series_1
,,,,,,,,6059c26c31a2519a4d3e82c0,Kobieta,23,2021-07-13_21h45.17.793,rantool2,2021.1.4,Win32,60.0240096,6059c26c31a2519a4d3e82c0,60d9d14f4a8a35a482e0d9bf,60eded6fca40cb57266f00c7,f,1.406,0,11,11,42,1,ROROROO,ROROROR,20.39515459,19.8361834,series_0
,,,,,,,,6059c26c31a2519a4d3e82c0,Kobieta,23,2021-07-13_21h45.17.793,rantool2,2021.1.4,Win32,60.0240096,6059c26c31a2519a4d3e82c0,60d9d14f4a8a35a482e0d9bf,60eded6fca40cb57266f00c7,j,1.886,0,12,12,47,1,RORRRRO,RORRRRR,21.81333602,21.02936224,series_0
,,,,,,,,6059c26c31a2519a4d3e82c0,Kobieta,23,2021-07-13_21h45.17.793,rantool2,2021.1.4,Win32,60.0240096,6059c26c31a2519a4d3e82c0,60d9d14f4a8a35a482e0d9bf,60eded6fca40cb57266f00c7,j,2.008,0,13,13,41,1,ROROORO,ROROORR,20.42602454,21.71443381,series_1
,,,,,,,,6059c26c31a2519a4d3e82c0,Kobieta,23,2021-07-13_21h45.17.793,rantool2,2021.1.4,Win32,60.0240096,6059c26c31a2519a4d3e82c0,60d9d14f4a8a35a482e0d9bf,60eded6fca40cb57266f00c7,j,1.719,0,14,14,20,1,OROROOO,OROROOR,21.31236711,21.90565814,series_1
,,,,,,,,6059c26c31a2519a4d3e82c0,Kobieta,23,2021-07-13_21h45.17.793,rantool2,2021.1.4,Win32,60.0240096,6059c26c31a2519a4d3e82c0,60d9d14f4a8a35a482e0d9bf,60eded6fca40cb57266f00c7,j,2.025,0,15,15,50,1,RROOROO,RROOROR,21.73568164,22.02566557,series_1
,,,,,,,,6059c26c31a2519a4d3e82c0,Kobieta,23,2021-07-13_21h45.17.793,rantool2,2021.1.4,Win32,60.0240096,6059c26c31a2519a4d3e82c0,60d9d14f4a8a35a482e0d9bf,60eded6fca40cb57266f00c7,f,1.302,0,16,16,4,1,OOOROOO,OOOROOR,19.91402015,21.21223021,series_1
,,,,,,,,6059c26c31a2519a4d3e82c0,Kobieta,23,2021-07-13_21h45.17.793,rantool2,2021.1.4,Win32,60.0240096,6059c26c31a2519a4d3e82c0,60d9d14f4a8a35a482e0d9bf,60eded6fca40cb57266f00c7,j,2.322,0,17,17,57,1,RRROORO,RRROORR,21.82425538,22.07102821,series_1
,,,,,,,,6059c26c31a2519a4d3e82c0,Kobieta,23,2021-07-13_21h45.17.793,rantool2,2021.1.4,Win32,60.0240096,6059c26c31a2519a4d3e82c0,60d9d14f4a8a35a482e0d9bf,60eded6fca40cb57266f00c7,f,1.722,0,18,18,34,1,ROOOROO,ROOOROR,21.03750787,21.24781509,series_1
,,,,,,,,6059c26c31a2519a4d3e82c0,Kobieta,23,2021-07-13_21h45.17.793,rantool2,2021.1.4,Win32,60.0240096,6059c26c31a2519a4d3e82c0,60d9d14f4a8a35a482e0d9bf,60eded6fca40cb57266f00c7,j,1.934,0,19,19,19,1,OROORRO,OROORRR,21.73568164,22.11181017,series_1
,,,,,,,,6059c26c31a2519a4d3e82c0,Kobieta,23,2021-07-13_21h45.17.793,rantool2,2021.1.4,Win32,60.0240096,6059c26c31a2519a4d3e82c0,60d9d14f4a8a35a482e0d9bf,60eded6fca40cb57266f00c7,j,2.284,0,20,20,54,1,RRORROO,RRORROR,21.55250791,20.9984461,series_0
,,,,,,,,6059c26c31a2519a4d3e82c0,Kobieta,23,2021-07-13_21h45.17.793,rantool2,2021.1.4,Win32,60.0240096,6059c26c31a2519a4d3e82c0,60d9d14f4a8a35a482e0d9bf,60eded6fca40cb57266f00c7,j,1.941,0,21,21,30,1,ORRRROO,ORRRROR,22.46748491,22.03072203,series_0
,,,,,,,,6059c26c31a2519a4d3e82c0,Kobieta,23,2021-07-13_21h45.17.793,rantool2,2021.1.4,Win32,60.0240096,6059c26c31a2519a4d3e82c0,60d9d14f4a8a35a482e0d9bf,60eded6fca40cb57266f00c7,j,1.802,0,22,22,14,1,OORRROO,OORRROR,22.24142883,22.16977179,series_0
,,,,,,,,6059c26c31a2519a4d3e82c0,Kobieta,23,2021-07-13_21h45.17.793,rantool2,2021.1.4,Win32,60.0240096,6059c26c31a2519a4d3e82c0,60d9d14f4a8a35a482e0d9bf,60eded6fca40cb57266f00c7,f,1.811,0,23,23,25,1,ORROORO,ORROORR,21.79500819,22.61624387,series_1
,,,,,,,,6059c26c31a2519a4d3e82c0,Kobieta,23,2021-07-13_21h45.17.793,rantool2,2021.1.4,Win32,60.0240096,6059c26c31a2519a4d3e82c0,60d9d14f4a8a35a482e0d9bf,60eded6fca40cb57266f00c7,j,1.835,0,24,24,27,1,ORRORRO,ORRORRR,21.55250791,22.2428857,series_1
,,,,,,,,6059c26c31a2519a4d3e82c0,Kobieta,23,2021-07-13_21h45.17.793,rantool2,2021.1.4,Win32,60.0240096,6059c26c31a2519a4d3e82c0,60d9d14f4a8a35a482e0d9bf,60eded6fca40cb57266f00c7,f,1.214,0,25,25,2,1,OOOOROO,OOOOROR,20.43051175,21.02936224,series_1
,,,,,,,,6059c26c31a2519a4d3e82c0,Kobieta,23,2021-07-13_21h45.17.793,rantool2,2021.1.4,Win32,60.0240096,6059c26c31a2519a4d3e82c0,60d9d14f4a8a35a482e0d9bf,60eded6fca40cb57266f00c7,j,2.563,0,26,26,33,1,ROOOORO,ROOOORR,20.83779602,22.03072203,series_1
,,,,,,,,6059c26c31a2519a4d3e82c0,Kobieta,23,2021-07-13_21h45.17.793,rantool2,2021.1.4,Win32,60.0240096,6059c26c31a2519a4d3e82c0,60d9d14f4a8a35a482e0d9bf,60eded6fca40cb57266f00c7,f,2.927,0,27,27,31,1,ORRRRRO,ORRRRRR,22.16413392,20.74050628,series_0
,,,,,,,,6059c26c31a2519a4d3e82c0,Kobieta,23,2021-07-13_21h45.17.793,rantool2,2021.1.4,Win32,60.0240096,6059c26c31a2519a4d3e82c0,60d9d14f4a8a35a482e0d9bf,60eded6fca40cb57266f00c7,j,1.73,0,28,28,32,1,ROOOOOO,ROOOOOR,19.92253567,21.27974287,series_1
,,,,,,,,6059c26c31a2519a4d3e82c0,Kobieta,23,2021-07-13_21h45.17.793,rantool2,2021.1.4,Win32,60.0240096,6059c26c31a2519a4d3e82c0,60d9d14f4a8a35a482e0d9bf,60eded6fca40cb57266f00c7,f,3.462,0,29,29,46,1,RORRROO,RORRROR,22.00300695,21.24781509,series_0
,,,,,,,,6059c26c31a2519a4d3e82c0,Kobieta,23,2021-07-13_21h45.17.793,rantool2,2021.1.4,Win32,60.0240096,6059c26c31a2519a4d3e82c0,60d9d14f4a8a35a482e0d9bf,60eded6fca40cb57266f00c7,j,2.768,0,30,30,7,1,OOORRRO,OOORRRR,21.6194508,21.899017,series_1
,,,,,,,,6059c26c31a2519a4d3e82c0,Kobieta,23,2021-07-13_21h45.17.793,rantool2,2021.1.4,Win32,60.0240096,6059c26c31a2519a4d3e82c0,60d9d14f4a8a35a482e0d9bf,60eded6fca40cb57266f00c7,f,2.105,0,31,31,59,1,RRRORRO,RRRORRR,21.56657303,20.89823192,series_0
,,,,,,,,6059c26c31a2519a4d3e82c0,Kobieta,23,2021-07-13_21h45.17.793,rantool2,2021.1.4,Win32,60.0240096,6059c26c31a2519a4d3e82c0,60d9d14f4a8a35a482e0d9bf,60eded6fca40cb57266f00c7,j,1.961,0,32,32,44,1,RORROOO,RORROOR,21.66733484,22.02566557,series_1
,,,,,,,,6059c26c31a2519a4d3e82c0,Kobieta,23,2021-07-13_21h45.17.793,rantool2,2021.1.4,Win32,60.0240096,6059c26c31a2519a4d3e82c0,60d9d14f4a8a35a482e0d9bf,60eded6fca40cb57266f00c7,f,1.827,0,33,33,0,1,OOOOOOO,OOOOOOR,18.52739004,19.62521613,series_1
,,,,,,,,6059c26c31a2519a4d3e82c0,Kobieta,23,2021-07-13_21h45.17.793,rantool2,2021.1.4,Win32,60.0240096,6059c26c31a2519a4d3e82c0,60d9d14f4a8a35a482e0d9bf,60eded6fca40cb57266f00c7,j,1.54,0,34,34,52,1,RROROOO,RROROOR,22.18365867,22.11097995,series_0
,,,,,,,,6059c26c31a2519a4d3e82c0,Kobieta,23,2021-07-13_21h45.17.793,rantool2,2021.1.4,Win32,60.0240096,6059c26c31a2519a4d3e82c0,60d9d14f4a8a35a482e0d9bf,60eded6fca40cb57266f00c7,f,1.924,0,35,35,21,1,ORORORO,ORORORR,20.39515459,22.06781359,series_1
,,,,,,,,6059c26c31a2519a4d3e82c0,Kobieta,23,2021-07-13_21h45.17.793,rantool2,2021.1.4,Win32,60.0240096,6059c26c31a2519a4d3e82c0,60d9d14f4a8a35a482e0d9bf,60eded6fca40cb57266f00c7,f,3.607,0,36,36,18,1,OROOROO,OROOROR,20.84860893,21.22513037,series_1
,,,,,,,,6059c26c31a2519a4d3e82c0,Kobieta,23,2021-07-13_21h45.17.793,rantool2,2021.1.4,Win32,60.0240096,6059c26c31a2519a4d3e82c0,60d9d14f4a8a35a482e0d9bf,60eded6fca40cb57266f00c7,f,2.1,0,37,37,48,1,RROOOOO,RROOOOR,20.90986523,22.15934078,series_1
,,,,,,,,6059c26c31a2519a4d3e82c0,Kobieta,23,2021-07-13_21h45.17.793,rantool2,2021.1.4,Win32,60.0240096,6059c26c31a2519a4d3e82c0,60d9d14f4a8a35a482e0d9bf,60eded6fca40cb57266f00c7,j,2.524,0,38,38,1,1,OOOOORO,OOOOORR,19.92253567,20.74050628,series_1
,,,,,,,,6059c26c31a2519a4d3e82c0,Kobieta,23,2021-07-13_21h45.17.793,rantool2,2021.1.4,Win32,60.0240096,6059c26c31a2519a4d3e82c0,60d9d14f4a8a35a482e0d9bf,60eded6fca40cb57266f00c7,f,1.815,0,39,39,36,1,ROOROOO,ROOROOR,21.07991943,20.9984461,series_0
,,,,,,,,6059c26c31a2519a4d3e82c0,Kobieta,23,2021-07-13_21h45.17.793,rantool2,2021.1.4,Win32,60.0240096,6059c26c31a2519a4d3e82c0,60d9d14f4a8a35a482e0d9bf,60eded6fca40cb57266f00c7,f,2.485,0,40,40,3,1,OOOORRO,OOOORRR,20.90986523,21.74922619,series_1
,,,,,,,,6059c26c31a2519a4d3e82c0,Kobieta,23,2021-07-13_21h45.17.793,rantool2,2021.1.4,Win32,60.0240096,6059c26c31a2519a4d3e82c0,60d9d14f4a8a35a482e0d9bf,60eded6fca40cb57266f00c7,f,2.515,0,41,41,12,1,OORROOO,OORROOR,21.30250474,22.02786418,series_1
,,,,,,,,6059c26c31a2519a4d3e82c0,Kobieta,23,2021-07-13_21h45.17.793,rantool2,2021.1.4,Win32,60.0240096,6059c26c31a2519a4d3e82c0,60d9d14f4a8a35a482e0d9bf,60eded6fca40cb57266f00c7,f,2.091,0,42,42,60,1,RRRROOO,RRRROOR,22.10108823,22.15934078,series_1
,,,,,,,,6059c26c31a2519a4d3e82c0,Kobieta,23,2021-07-13_21h45.17.793,rantool2,2021.1.4,Win32,60.0240096,6059c26c31a2519a4d3e82c0,60d9d14f4a8a35a482e0d9bf,60eded6fca40cb57266f00c7,f,2.439,0,43,43,45,1,RORRORO,RORRORR,20.78182524,21.22513037,series_1
,,,,,,,,6059c26c31a2519a4d3e82c0,Kobieta,23,2021-07-13_21h45.17.793,rantool2,2021.1.4,Win32,60.0240096,6059c26c31a2519a4d3e82c0,60d9d14f4a8a35a482e0d9bf,60eded6fca40cb57266f00c7,f,2.703,0,44,44,13,1,OORRORO,OORRORR,21.66733484,22.11181017,series_1
,,,,,,,,6059c26c31a2519a4d3e82c0,Kobieta,23,2021-07-13_21h45.17.793,rantool2,2021.1.4,Win32,60.0240096,6059c26c31a2519a4d3e82c0,60d9d14f4a8a35a482e0d9bf,60eded6fca40cb57266f00c7,f,2.988,0,45,45,5,1,OOORORO,OOORORR,20.87963819,21.9921709,series_1
,,,,,,,,6059c26c31a2519a4d3e82c0,Kobieta,23,2021-07-13_21h45.17.793,rantool2,2021.1.4,Win32,60.0240096,6059c26c31a2519a4d3e82c0,60d9d14f4a8a35a482e0d9bf,60eded6fca40cb57266f00c7,j,1.873,0,46,46,35,1,ROOORRO,ROOORRR,21.76276513,22.16977179,series_1
,,,,,,,,6059c26c31a2519a4d3e82c0,Kobieta,23,2021-07-13_21h45.17.793,rantool2,2021.1.4,Win32,60.0240096,6059c26c31a2519a4d3e82c0,60d9d14f4a8a35a482e0d9bf,60eded6fca40cb57266f00c7,f,2.556,0,47,47,28,1,ORRROOO,ORRROOR,22.24142883,22.53364006,series_1
,,,,,,,,6059c26c31a2519a4d3e82c0,Kobieta,23,2021-07-13_21h45.17.793,rantool2,2021.1.4,Win32,60.0240096,6059c26c31a2519a4d3e82c0,60d9d14f4a8a35a482e0d9bf,60eded6fca40cb57266f00c7,j,1.833,0,48,48,53,1,RRORORO,RRORORR,20.71309134,21.90565814,series_1
,,,,,,,,6059c26c31a2519a4d3e82c0,Kobieta,23,2021-07-13_21h45.17.793,rantool2,2021.1.4,Win32,60.0240096,6059c26c31a2519a4d3e82c0,60d9d14f4a8a35a482e0d9bf,60eded6fca40cb57266f00c7,j,1.969,0,49,49,40,1,ROROOOO,ROROOOR,20.87963819,21.37121559,series_1
,,,,,,,,6059c26c31a2519a4d3e82c0,Kobieta,23,2021-07-13_21h45.17.793,rantool2,2021.1.4,Win32,60.0240096,6059c26c31a2519a4d3e82c0,60d9d14f4a8a35a482e0d9bf,60eded6fca40cb57266f00c7,j,2.129,0,50,50,15,1,OORRRRO,OORRRRR,22.10108823,21.74922619,series_0
,,,,,,,,6059c26c31a2519a4d3e82c0,Kobieta,23,2021-07-13_21h45.17.793,rantool2,2021.1.4,Win32,60.0240096,6059c26c31a2519a4d3e82c0,60d9d14f4a8a35a482e0d9bf,60eded6fca40cb57266f00c7,f,1.618,0,51,51,22,1,ORORROO,ORORROR,22.02732763,21.57657071,series_0
,,,,,,,,6059c26c31a2519a4d3e82c0,Kobieta,23,2021-07-13_21h45.17.793,rantool2,2021.1.4,Win32,60.0240096,6059c26c31a2519a4d3e82c0,60d9d14f4a8a35a482e0d9bf,60eded6fca40cb57266f00c7,j,2.923,0,52,52,49,1,RROOORO,RROOORR,21.76276513,22.53364006,series_1
,,,,,,,,6059c26c31a2519a4d3e82c0,Kobieta,23,2021-07-13_21h45.17.793,rantool2,2021.1.4,Win32,60.0240096,6059c26c31a2519a4d3e82c0,60d9d14f4a8a35a482e0d9bf,60eded6fca40cb57266f00c7,f,1.901,0,53,53,61,1,RRRRORO,RRRRORR,21.81333602,21.17347734,series_0
,,,,,,,,6059c26c31a2519a4d3e82c0,Kobieta,23,2021-07-13_21h45.17.793,rantool2,2021.1.4,Win32,60.0240096,6059c26c31a2519a4d3e82c0,60d9d14f4a8a35a482e0d9bf,60eded6fca40cb57266f00c7,j,1.564,0,54,54,16,1,OROOOOO,OROOOOR,20.43051175,21.17347734,series_1
,,,,,,,,6059c26c31a2519a4d3e82c0,Kobieta,23,2021-07-13_21h45.17.793,rantool2,2021.1.4,Win32,60.0240096,6059c26c31a2519a4d3e82c0,60d9d14f4a8a35a482e0d9bf,60eded6fca40cb57266f00c7,f,1.204,0,55,55,23,1,ORORRRO,ORORRRR,22.1285618,21.9921709,series_0
,,,,,,,,6059c26c31a2519a4d3e82c0,Kobieta,23,2021-07-13_21h45.17.793,rantool2,2021.1.4,Win32,60.0240096,6059c26c31a2519a4d3e82c0,60d9d14f4a8a35a482e0d9bf,60eded6fca40cb57266f00c7,f,3.232,0,56,56,62,1,RRRRROO,RRRRROR,22.16413392,21.27974287,series_0
,,,,,,,,6059c26c31a2519a4d3e82c0,Kobieta,23,2021-07-13_21h45.17.793,rantool2,2021.1.4,Win32,60.0240096,6059c26c31a2519a4d3e82c0,60d9d14f4a8a35a482e0d9bf,60eded6fca40cb57266f00c7,f,2.119,0,57,57,63,1,RRRRRRO,RRRRRRR,21.35278725,19.62521613,series_0
,,,,,,,,6059c26c31a2519a4d3e82c0,Kobieta,23,2021-07-13_21h45.17.793,rantool2,2021.1.4,Win32,60.0240096,6059c26c31a2519a4d3e82c0,60d9d14f4a8a35a482e0d9bf,60eded6fca40cb57266f00c7,f,2.841,0,58,58,17,1,OROOORO,OROOORR,21.03750787,22.12173012,series_1
,,,,,,,,6059c26c31a2519a4d3e82c0,Kobieta,23,2021-07-13_21h45.17.793,rantool2,2021.1.4,Win32,60.0240096,6059c26c31a2519a4d3e82c0,60d9d14f4a8a35a482e0d9bf,60eded6fca40cb57266f00c7,f,3.101,0,59,59,26,1,ORROROO,ORROROR,22.02732763,21.71443381,series_0
,,,,,,,,6059c26c31a2519a4d3e82c0,Kobieta,23,2021-07-13_21h45.17.793,rantool2,2021.1.4,Win32,60.0240096,6059c26c31a2519a4d3e82c0,60d9d14f4a8a35a482e0d9bf,60eded6fca40cb57266f00c7,j,1.385,0,60,60,8,1,OOROOOO,OOROOOR,19.91402015,20.89823192,series_1
,,,,,,,,6059c26c31a2519a4d3e82c0,Kobieta,23,2021-07-13_21h45.17.793,rantool2,2021.1.4,Win32,60.0240096,6059c26c31a2519a4d3e82c0,60d9d14f4a8a35a482e0d9bf,60eded6fca40cb57266f00c7,f,3.085,0,61,61,37,1,ROORORO,ROORORR,20.42602454,21.57657071,series_1
,,,,,,,,6059c26c31a2519a4d3e82c0,Kobieta,23,2021-07-13_21h45.17.793,rantool2,2021.1.4,Win32,60.0240096,6059c26c31a2519a4d3e82c0,60d9d14f4a8a35a482e0d9bf,60eded6fca40cb57266f00c7,j,1.636,0,62,62,10,1,OOROROO,OOROROR,21.31236711,21.07490964,series_0
,,,,,,,,6059c26c31a2519a4d3e82c0,Kobieta,23,2021-07-13_21h45.17.793,rantool2,2021.1.4,Win32,60.0240096,6059c26c31a2519a4d3e82c0,60d9d14f4a8a35a482e0d9bf,60eded6fca40cb57266f00c7,f,2.42,0,63,63,29,1,ORRRORO,ORRRORR,22.00300695,22.12173012,series_1
