key_resp_7.keys,key_resp_7.rt,trials_2.thisRepN,trials_2.thisTrialN,trials_2.thisN,trials_2.thisIndex,trials_2.ran,id,series_0,series_1,acss_0,acss_1,comparison,id*,Płeć*,Wiek*,date,expName,psychopyVersion,OS,frameRate,STUDY_ID,SESSION_ID,key_resp_5.keys,key_resp_5.corr,key_resp_5.rt,trials.thisRepN,trials.thisTrialN,trials.thisN,trials.thisIndex,trials.ran
j,2.3624,0,0,0,23,1,5ea1b3e8883b63080517aa0a,ORORRRO,ORORRRR,22.1285618,21.9921709,series_0,5ea1b3e8883b63080517aa0a,Mężczyzna,25,2021-09-06_18h47.50.281,rantool2,2021.1.4,Win32,59.99160118,6135e006383e6ea6c3d06a28,613645e1b896fe60cbb8c53c,,,,,,,,
j,2.2672,0,1,1,36,1,5ea1b3e8883b63080517aa0a,ROOROOO,ROOROOR,21.07991943,20.9984461,series_0,5ea1b3e8883b63080517aa0a,Mężczyzna,25,2021-09-06_18h47.50.281,rantool2,2021.1.4,Win32,59.99160118,6135e006383e6ea6c3d06a28,613645e1b896fe60cbb8c53c,,,,,,,,
j,3.4826,0,2,2,29,1,5ea1b3e8883b63080517aa0a,ORRRORO,ORRRORR,22.00300695,22.12173012,series_1,5ea1b3e8883b63080517aa0a,Mężczyzna,25,2021-09-06_18h47.50.281,rantool2,2021.1.4,Win32,59.99160118,6135e006383e6ea6c3d06a28,613645e1b896fe60cbb8c53c,,,,,,,,
f,3.6748,0,3,3,8,1,5ea1b3e8883b63080517aa0a,OOROOOO,OOROOOR,19.91402015,20.89823192,series_1,5ea1b3e8883b63080517aa0a,Mężczyzna,25,2021-09-06_18h47.50.281,rantool2,2021.1.4,Win32,59.99160118,6135e006383e6ea6c3d06a28,613645e1b896fe60cbb8c53c,,,,,,,,
f,3.7836,0,4,4,58,1,5ea1b3e8883b63080517aa0a,RRROROO,RRROROR,22.1285618,21.37121559,series_0,5ea1b3e8883b63080517aa0a,Mężczyzna,25,2021-09-06_18h47.50.281,rantool2,2021.1.4,Win32,59.99160118,6135e006383e6ea6c3d06a28,613645e1b896fe60cbb8c53c,,,,,,,,
f,3.7169,0,5,5,26,1,5ea1b3e8883b63080517aa0a,ORROROO,ORROROR,22.02732763,21.71443381,series_0,5ea1b3e8883b63080517aa0a,Mężczyzna,25,2021-09-06_18h47.50.281,rantool2,2021.1.4,Win32,59.99160118,6135e006383e6ea6c3d06a28,613645e1b896fe60cbb8c53c,,,,,,,,
j,4.1852,0,6,6,20,1,5ea1b3e8883b63080517aa0a,OROROOO,OROROOR,21.31236711,21.90565814,series_1,5ea1b3e8883b63080517aa0a,Mężczyzna,25,2021-09-06_18h47.50.281,rantool2,2021.1.4,Win32,59.99160118,6135e006383e6ea6c3d06a28,613645e1b896fe60cbb8c53c,,,,,,,,
f,3.651,0,7,7,19,1,5ea1b3e8883b63080517aa0a,OROORRO,OROORRR,21.73568164,22.11181017,series_1,5ea1b3e8883b63080517aa0a,Mężczyzna,25,2021-09-06_18h47.50.281,rantool2,2021.1.4,Win32,59.99160118,6135e006383e6ea6c3d06a28,613645e1b896fe60cbb8c53c,,,,,,,,
j,2.9172,0,8,8,60,1,5ea1b3e8883b63080517aa0a,RRRROOO,RRRROOR,22.10108823,22.15934078,series_1,5ea1b3e8883b63080517aa0a,Mężczyzna,25,2021-09-06_18h47.50.281,rantool2,2021.1.4,Win32,59.99160118,6135e006383e6ea6c3d06a28,613645e1b896fe60cbb8c53c,,,,,,,,
f,2.8169,0,9,9,16,1,5ea1b3e8883b63080517aa0a,OROOOOO,OROOOOR,20.43051175,21.17347734,series_1,5ea1b3e8883b63080517aa0a,Mężczyzna,25,2021-09-06_18h47.50.281,rantool2,2021.1.4,Win32,59.99160118,6135e006383e6ea6c3d06a28,613645e1b896fe60cbb8c53c,,,,,,,,
j,3.6411,0,10,10,35,1,5ea1b3e8883b63080517aa0a,ROOORRO,ROOORRR,21.76276513,22.16977179,series_1,5ea1b3e8883b63080517aa0a,Mężczyzna,25,2021-09-06_18h47.50.281,rantool2,2021.1.4,Win32,59.99160118,6135e006383e6ea6c3d06a28,613645e1b896fe60cbb8c53c,,,,,,,,
f,2.9079,0,11,11,61,1,5ea1b3e8883b63080517aa0a,RRRRORO,RRRRORR,21.81333602,21.17347734,series_0,5ea1b3e8883b63080517aa0a,Mężczyzna,25,2021-09-06_18h47.50.281,rantool2,2021.1.4,Win32,59.99160118,6135e006383e6ea6c3d06a28,613645e1b896fe60cbb8c53c,,,,,,,,
j,2.2761,0,12,12,47,1,5ea1b3e8883b63080517aa0a,RORRRRO,RORRRRR,21.81333602,21.02936224,series_0,5ea1b3e8883b63080517aa0a,Mężczyzna,25,2021-09-06_18h47.50.281,rantool2,2021.1.4,Win32,59.99160118,6135e006383e6ea6c3d06a28,613645e1b896fe60cbb8c53c,,,,,,,,
j,2.7529,0,13,13,54,1,5ea1b3e8883b63080517aa0a,RRORROO,RRORROR,21.55250791,20.9984461,series_0,5ea1b3e8883b63080517aa0a,Mężczyzna,25,2021-09-06_18h47.50.281,rantool2,2021.1.4,Win32,59.99160118,6135e006383e6ea6c3d06a28,613645e1b896fe60cbb8c53c,,,,,,,,
j,3.2503,0,14,14,53,1,5ea1b3e8883b63080517aa0a,RRORORO,RRORORR,20.71309134,21.90565814,series_1,5ea1b3e8883b63080517aa0a,Mężczyzna,25,2021-09-06_18h47.50.281,rantool2,2021.1.4,Win32,59.99160118,6135e006383e6ea6c3d06a28,613645e1b896fe60cbb8c53c,,,,,,,,
f,3.7165,0,15,15,44,1,5ea1b3e8883b63080517aa0a,RORROOO,RORROOR,21.66733484,22.02566557,series_1,5ea1b3e8883b63080517aa0a,Mężczyzna,25,2021-09-06_18h47.50.281,rantool2,2021.1.4,Win32,59.99160118,6135e006383e6ea6c3d06a28,613645e1b896fe60cbb8c53c,,,,,,,,
j,2.7251,0,16,16,3,1,5ea1b3e8883b63080517aa0a,OOOORRO,OOOORRR,20.90986523,21.74922619,series_1,5ea1b3e8883b63080517aa0a,Mężczyzna,25,2021-09-06_18h47.50.281,rantool2,2021.1.4,Win32,59.99160118,6135e006383e6ea6c3d06a28,613645e1b896fe60cbb8c53c,,,,,,,,
,,0,17,17,37,1,5ea1b3e8883b63080517aa0a,ROORORO,ROORORR,20.42602454,21.57657071,series_1,5ea1b3e8883b63080517aa0a,Mężczyzna,25,2021-09-06_18h47.50.281,rantool2,2021.1.4,Win32,59.99160118,6135e006383e6ea6c3d06a28,613645e1b896fe60cbb8c53c,,,,,,,,
j,0.1755,0,18,18,55,1,5ea1b3e8883b63080517aa0a,RRORRRO,RRORRRR,21.56657303,21.21223021,series_0,5ea1b3e8883b63080517aa0a,Mężczyzna,25,2021-09-06_18h47.50.281,rantool2,2021.1.4,Win32,59.99160118,6135e006383e6ea6c3d06a28,613645e1b896fe60cbb8c53c,,,,,,,,
f,4.0512,0,19,19,50,1,5ea1b3e8883b63080517aa0a,RROOROO,RROOROR,21.73568164,22.02566557,series_1,5ea1b3e8883b63080517aa0a,Mężczyzna,25,2021-09-06_18h47.50.281,rantool2,2021.1.4,Win32,59.99160118,6135e006383e6ea6c3d06a28,613645e1b896fe60cbb8c53c,,,,,,,,
j,1.8054,0,20,20,40,1,5ea1b3e8883b63080517aa0a,ROROOOO,ROROOOR,20.87963819,21.37121559,series_1,5ea1b3e8883b63080517aa0a,Mężczyzna,25,2021-09-06_18h47.50.281,rantool2,2021.1.4,Win32,59.99160118,6135e006383e6ea6c3d06a28,613645e1b896fe60cbb8c53c,,,,,,,,
f,2.554,0,21,21,52,1,5ea1b3e8883b63080517aa0a,RROROOO,RROROOR,22.18365867,22.11097995,series_0,5ea1b3e8883b63080517aa0a,Mężczyzna,25,2021-09-06_18h47.50.281,rantool2,2021.1.4,Win32,59.99160118,6135e006383e6ea6c3d06a28,613645e1b896fe60cbb8c53c,,,,,,,,
j,1.7415,0,22,22,4,1,5ea1b3e8883b63080517aa0a,OOOROOO,OOOROOR,19.91402015,21.21223021,series_1,5ea1b3e8883b63080517aa0a,Mężczyzna,25,2021-09-06_18h47.50.281,rantool2,2021.1.4,Win32,59.99160118,6135e006383e6ea6c3d06a28,613645e1b896fe60cbb8c53c,,,,,,,,
f,2.5429,0,23,23,6,1,5ea1b3e8883b63080517aa0a,OOORROO,OOORROR,21.12383932,21.38562617,series_1,5ea1b3e8883b63080517aa0a,Mężczyzna,25,2021-09-06_18h47.50.281,rantool2,2021.1.4,Win32,59.99160118,6135e006383e6ea6c3d06a28,613645e1b896fe60cbb8c53c,,,,,,,,
j,1.9328,0,24,24,32,1,5ea1b3e8883b63080517aa0a,ROOOOOO,ROOOOOR,19.92253567,21.27974287,series_1,5ea1b3e8883b63080517aa0a,Mężczyzna,25,2021-09-06_18h47.50.281,rantool2,2021.1.4,Win32,59.99160118,6135e006383e6ea6c3d06a28,613645e1b896fe60cbb8c53c,,,,,,,,
j,3.2243,0,25,25,21,1,5ea1b3e8883b63080517aa0a,ORORORO,ORORORR,20.39515459,22.06781359,series_1,5ea1b3e8883b63080517aa0a,Mężczyzna,25,2021-09-06_18h47.50.281,rantool2,2021.1.4,Win32,59.99160118,6135e006383e6ea6c3d06a28,613645e1b896fe60cbb8c53c,,,,,,,,
j,2.3013,0,26,26,56,1,5ea1b3e8883b63080517aa0a,RRROOOO,RRROOOR,21.6194508,22.31681875,series_1,5ea1b3e8883b63080517aa0a,Mężczyzna,25,2021-09-06_18h47.50.281,rantool2,2021.1.4,Win32,59.99160118,6135e006383e6ea6c3d06a28,613645e1b896fe60cbb8c53c,,,,,,,,
f,2.7842,0,27,27,9,1,5ea1b3e8883b63080517aa0a,OOROORO,OOROORR,21.07991943,22.2428857,series_1,5ea1b3e8883b63080517aa0a,Mężczyzna,25,2021-09-06_18h47.50.281,rantool2,2021.1.4,Win32,59.99160118,6135e006383e6ea6c3d06a28,613645e1b896fe60cbb8c53c,,,,,,,,
f,3.3775,0,28,28,59,1,5ea1b3e8883b63080517aa0a,RRRORRO,RRRORRR,21.56657303,20.89823192,series_0,5ea1b3e8883b63080517aa0a,Mężczyzna,25,2021-09-06_18h47.50.281,rantool2,2021.1.4,Win32,59.99160118,6135e006383e6ea6c3d06a28,613645e1b896fe60cbb8c53c,,,,,,,,
f,2.7171,0,29,29,39,1,5ea1b3e8883b63080517aa0a,ROORRRO,ROORRRR,21.82425538,21.38562617,series_0,5ea1b3e8883b63080517aa0a,Mężczyzna,25,2021-09-06_18h47.50.281,rantool2,2021.1.4,Win32,59.99160118,6135e006383e6ea6c3d06a28,613645e1b896fe60cbb8c53c,,,,,,,,
f,3.6932,0,30,30,25,1,5ea1b3e8883b63080517aa0a,ORROORO,ORROORR,21.79500819,22.61624387,series_1,5ea1b3e8883b63080517aa0a,Mężczyzna,25,2021-09-06_18h47.50.281,rantool2,2021.1.4,Win32,59.99160118,6135e006383e6ea6c3d06a28,613645e1b896fe60cbb8c53c,,,,,,,,
f,2.469,0,31,31,15,1,5ea1b3e8883b63080517aa0a,OORRRRO,OORRRRR,22.10108823,21.74922619,series_0,5ea1b3e8883b63080517aa0a,Mężczyzna,25,2021-09-06_18h47.50.281,rantool2,2021.1.4,Win32,59.99160118,6135e006383e6ea6c3d06a28,613645e1b896fe60cbb8c53c,,,,,,,,
j,3.7066,0,32,32,10,1,5ea1b3e8883b63080517aa0a,OOROROO,OOROROR,21.31236711,21.07490964,series_0,5ea1b3e8883b63080517aa0a,Mężczyzna,25,2021-09-06_18h47.50.281,rantool2,2021.1.4,Win32,59.99160118,6135e006383e6ea6c3d06a28,613645e1b896fe60cbb8c53c,,,,,,,,
f,2.2716,0,33,33,2,1,5ea1b3e8883b63080517aa0a,OOOOROO,OOOOROR,20.43051175,21.02936224,series_1,5ea1b3e8883b63080517aa0a,Mężczyzna,25,2021-09-06_18h47.50.281,rantool2,2021.1.4,Win32,59.99160118,6135e006383e6ea6c3d06a28,613645e1b896fe60cbb8c53c,,,,,,,,
j,1.7549,0,34,34,31,1,5ea1b3e8883b63080517aa0a,ORRRRRO,ORRRRRR,22.16413392,20.74050628,series_0,5ea1b3e8883b63080517aa0a,Mężczyzna,25,2021-09-06_18h47.50.281,rantool2,2021.1.4,Win32,59.99160118,6135e006383e6ea6c3d06a28,613645e1b896fe60cbb8c53c,,,,,,,,
f,2.9556,0,35,35,14,1,5ea1b3e8883b63080517aa0a,OORRROO,OORRROR,22.24142883,22.16977179,series_0,5ea1b3e8883b63080517aa0a,Mężczyzna,25,2021-09-06_18h47.50.281,rantool2,2021.1.4,Win32,59.99160118,6135e006383e6ea6c3d06a28,613645e1b896fe60cbb8c53c,,,,,,,,
j,2.459,0,36,36,24,1,5ea1b3e8883b63080517aa0a,ORROOOO,ORROOOR,21.12383932,22.07102821,series_1,5ea1b3e8883b63080517aa0a,Mężczyzna,25,2021-09-06_18h47.50.281,rantool2,2021.1.4,Win32,59.99160118,6135e006383e6ea6c3d06a28,613645e1b896fe60cbb8c53c,,,,,,,,
j,2.74,0,37,37,5,1,5ea1b3e8883b63080517aa0a,OOORORO,OOORORR,20.87963819,21.9921709,series_1,5ea1b3e8883b63080517aa0a,Mężczyzna,25,2021-09-06_18h47.50.281,rantool2,2021.1.4,Win32,59.99160118,6135e006383e6ea6c3d06a28,613645e1b896fe60cbb8c53c,,,,,,,,
f,3.4834,0,38,38,42,1,5ea1b3e8883b63080517aa0a,ROROROO,ROROROR,20.39515459,19.8361834,series_0,5ea1b3e8883b63080517aa0a,Mężczyzna,25,2021-09-06_18h47.50.281,rantool2,2021.1.4,Win32,59.99160118,6135e006383e6ea6c3d06a28,613645e1b896fe60cbb8c53c,,,,,,,,
f,2.7352,0,39,39,0,1,5ea1b3e8883b63080517aa0a,OOOOOOO,OOOOOOR,18.52739004,19.62521613,series_1,5ea1b3e8883b63080517aa0a,Mężczyzna,25,2021-09-06_18h47.50.281,rantool2,2021.1.4,Win32,59.99160118,6135e006383e6ea6c3d06a28,613645e1b896fe60cbb8c53c,,,,,,,,
j,3.7894,0,40,40,57,1,5ea1b3e8883b63080517aa0a,RRROORO,RRROORR,21.82425538,22.07102821,series_1,5ea1b3e8883b63080517aa0a,Mężczyzna,25,2021-09-06_18h47.50.281,rantool2,2021.1.4,Win32,59.99160118,6135e006383e6ea6c3d06a28,613645e1b896fe60cbb8c53c,,,,,,,,
f,3.2335,0,41,41,30,1,5ea1b3e8883b63080517aa0a,ORRRROO,ORRRROR,22.46748491,22.03072203,series_0,5ea1b3e8883b63080517aa0a,Mężczyzna,25,2021-09-06_18h47.50.281,rantool2,2021.1.4,Win32,59.99160118,6135e006383e6ea6c3d06a28,613645e1b896fe60cbb8c53c,,,,,,,,
j,3.059,0,42,42,7,1,5ea1b3e8883b63080517aa0a,OOORRRO,OOORRRR,21.6194508,21.899017,series_1,5ea1b3e8883b63080517aa0a,Mężczyzna,25,2021-09-06_18h47.50.281,rantool2,2021.1.4,Win32,59.99160118,6135e006383e6ea6c3d06a28,613645e1b896fe60cbb8c53c,,,,,,,,
f,3.3517,0,43,43,38,1,5ea1b3e8883b63080517aa0a,ROORROO,ROORROR,21.79500819,21.36812781,series_0,5ea1b3e8883b63080517aa0a,Mężczyzna,25,2021-09-06_18h47.50.281,rantool2,2021.1.4,Win32,59.99160118,6135e006383e6ea6c3d06a28,613645e1b896fe60cbb8c53c,,,,,,,,
f,3.9158,0,44,44,1,1,5ea1b3e8883b63080517aa0a,OOOOORO,OOOOORR,19.92253567,20.74050628,series_1,5ea1b3e8883b63080517aa0a,Mężczyzna,25,2021-09-06_18h47.50.281,rantool2,2021.1.4,Win32,59.99160118,6135e006383e6ea6c3d06a28,613645e1b896fe60cbb8c53c,,,,,,,,
j,3.5366,0,45,45,17,1,5ea1b3e8883b63080517aa0a,OROOORO,OROOORR,21.03750787,22.12173012,series_1,5ea1b3e8883b63080517aa0a,Mężczyzna,25,2021-09-06_18h47.50.281,rantool2,2021.1.4,Win32,59.99160118,6135e006383e6ea6c3d06a28,613645e1b896fe60cbb8c53c,,,,,,,,
f,2.6566,0,46,46,62,1,5ea1b3e8883b63080517aa0a,RRRRROO,RRRRROR,22.16413392,21.27974287,series_0,5ea1b3e8883b63080517aa0a,Mężczyzna,25,2021-09-06_18h47.50.281,rantool2,2021.1.4,Win32,59.99160118,6135e006383e6ea6c3d06a28,613645e1b896fe60cbb8c53c,,,,,,,,
f,3.5176,0,47,47,51,1,5ea1b3e8883b63080517aa0a,RROORRO,RROORRR,21.89852628,22.02786418,series_1,5ea1b3e8883b63080517aa0a,Mężczyzna,25,2021-09-06_18h47.50.281,rantool2,2021.1.4,Win32,59.99160118,6135e006383e6ea6c3d06a28,613645e1b896fe60cbb8c53c,,,,,,,,
j,2.9229,0,48,48,46,1,5ea1b3e8883b63080517aa0a,RORRROO,RORRROR,22.00300695,21.24781509,series_0,5ea1b3e8883b63080517aa0a,Mężczyzna,25,2021-09-06_18h47.50.281,rantool2,2021.1.4,Win32,59.99160118,6135e006383e6ea6c3d06a28,613645e1b896fe60cbb8c53c,,,,,,,,
f,2.6505,0,49,49,63,1,5ea1b3e8883b63080517aa0a,RRRRRRO,RRRRRRR,21.35278725,19.62521613,series_0,5ea1b3e8883b63080517aa0a,Mężczyzna,25,2021-09-06_18h47.50.281,rantool2,2021.1.4,Win32,59.99160118,6135e006383e6ea6c3d06a28,613645e1b896fe60cbb8c53c,,,,,,,,
j,3.59,0,50,50,22,1,5ea1b3e8883b63080517aa0a,ORORROO,ORORROR,22.02732763,21.57657071,series_0,5ea1b3e8883b63080517aa0a,Mężczyzna,25,2021-09-06_18h47.50.281,rantool2,2021.1.4,Win32,59.99160118,6135e006383e6ea6c3d06a28,613645e1b896fe60cbb8c53c,,,,,,,,
f,3.375,0,51,51,34,1,5ea1b3e8883b63080517aa0a,ROOOROO,ROOOROR,21.03750787,21.24781509,series_1,5ea1b3e8883b63080517aa0a,Mężczyzna,25,2021-09-06_18h47.50.281,rantool2,2021.1.4,Win32,59.99160118,6135e006383e6ea6c3d06a28,613645e1b896fe60cbb8c53c,,,,,,,,
f,3.536,0,52,52,49,1,5ea1b3e8883b63080517aa0a,RROOORO,RROOORR,21.76276513,22.53364006,series_1,5ea1b3e8883b63080517aa0a,Mężczyzna,25,2021-09-06_18h47.50.281,rantool2,2021.1.4,Win32,59.99160118,6135e006383e6ea6c3d06a28,613645e1b896fe60cbb8c53c,,,,,,,,
j,3.5871,0,53,53,33,1,5ea1b3e8883b63080517aa0a,ROOOORO,ROOOORR,20.83779602,22.03072203,series_1,5ea1b3e8883b63080517aa0a,Mężczyzna,25,2021-09-06_18h47.50.281,rantool2,2021.1.4,Win32,59.99160118,6135e006383e6ea6c3d06a28,613645e1b896fe60cbb8c53c,,,,,,,,
j,2.8674,0,54,54,18,1,5ea1b3e8883b63080517aa0a,OROOROO,OROOROR,20.84860893,21.22513037,series_1,5ea1b3e8883b63080517aa0a,Mężczyzna,25,2021-09-06_18h47.50.281,rantool2,2021.1.4,Win32,59.99160118,6135e006383e6ea6c3d06a28,613645e1b896fe60cbb8c53c,,,,,,,,
f,3.6691,0,55,55,13,1,5ea1b3e8883b63080517aa0a,OORRORO,OORRORR,21.66733484,22.11181017,series_1,5ea1b3e8883b63080517aa0a,Mężczyzna,25,2021-09-06_18h47.50.281,rantool2,2021.1.4,Win32,59.99160118,6135e006383e6ea6c3d06a28,613645e1b896fe60cbb8c53c,,,,,,,,
j,2.717,0,56,56,11,1,5ea1b3e8883b63080517aa0a,OORORRO,OORORRR,22.18365867,22.6797523,series_1,5ea1b3e8883b63080517aa0a,Mężczyzna,25,2021-09-06_18h47.50.281,rantool2,2021.1.4,Win32,59.99160118,6135e006383e6ea6c3d06a28,613645e1b896fe60cbb8c53c,,,,,,,,
f,3.35,0,57,57,45,1,5ea1b3e8883b63080517aa0a,RORRORO,RORRORR,20.78182524,21.22513037,series_1,5ea1b3e8883b63080517aa0a,Mężczyzna,25,2021-09-06_18h47.50.281,rantool2,2021.1.4,Win32,59.99160118,6135e006383e6ea6c3d06a28,613645e1b896fe60cbb8c53c,,,,,,,,
j,4.1347,0,58,58,41,1,5ea1b3e8883b63080517aa0a,ROROORO,ROROORR,20.42602454,21.71443381,series_1,5ea1b3e8883b63080517aa0a,Mężczyzna,25,2021-09-06_18h47.50.281,rantool2,2021.1.4,Win32,59.99160118,6135e006383e6ea6c3d06a28,613645e1b896fe60cbb8c53c,,,,,,,,
f,3.1667,0,59,59,12,1,5ea1b3e8883b63080517aa0a,OORROOO,OORROOR,21.30250474,22.02786418,series_1,5ea1b3e8883b63080517aa0a,Mężczyzna,25,2021-09-06_18h47.50.281,rantool2,2021.1.4,Win32,59.99160118,6135e006383e6ea6c3d06a28,613645e1b896fe60cbb8c53c,,,,,,,,
j,2.2184,0,60,60,48,1,5ea1b3e8883b63080517aa0a,RROOOOO,RROOOOR,20.90986523,22.15934078,series_1,5ea1b3e8883b63080517aa0a,Mężczyzna,25,2021-09-06_18h47.50.281,rantool2,2021.1.4,Win32,59.99160118,6135e006383e6ea6c3d06a28,613645e1b896fe60cbb8c53c,,,,,,,,
f,3.8333,0,61,61,43,1,5ea1b3e8883b63080517aa0a,RORORRO,RORORRR,20.71309134,21.07490964,series_1,5ea1b3e8883b63080517aa0a,Mężczyzna,25,2021-09-06_18h47.50.281,rantool2,2021.1.4,Win32,59.99160118,6135e006383e6ea6c3d06a28,613645e1b896fe60cbb8c53c,,,,,,,,
j,2.9164,0,62,62,27,1,5ea1b3e8883b63080517aa0a,ORRORRO,ORRORRR,21.55250791,22.2428857,series_1,5ea1b3e8883b63080517aa0a,Mężczyzna,25,2021-09-06_18h47.50.281,rantool2,2021.1.4,Win32,59.99160118,6135e006383e6ea6c3d06a28,613645e1b896fe60cbb8c53c,,,,,,,,
f,2.3665,0,63,63,28,1,5ea1b3e8883b63080517aa0a,ORRROOO,ORRROOR,22.24142883,22.53364006,series_1,5ea1b3e8883b63080517aa0a,Mężczyzna,25,2021-09-06_18h47.50.281,rantool2,2021.1.4,Win32,59.99160118,6135e006383e6ea6c3d06a28,613645e1b896fe60cbb8c53c,,,,,,,,
,,,,,,,5ea1b3e8883b63080517aa0a,,,,,,5ea1b3e8883b63080517aa0a,Mężczyzna,25,2021-09-06_18h47.50.281,rantool2,2021.1.4,Win32,59.99160118,6135e006383e6ea6c3d06a28,613645e1b896fe60cbb8c53c,"[""comma""]",0,[0.4638000000119291],0,0,0,0,1
,,,,,,,5ea1b3e8883b63080517aa0a,,,,,,5ea1b3e8883b63080517aa0a,Mężczyzna,25,2021-09-06_18h47.50.281,rantool2,2021.1.4,Win32,59.99160118,6135e006383e6ea6c3d06a28,613645e1b896fe60cbb8c53c,"[""period""]",0,[0.7499000000059368],1,0,1,0,1
,,,,,,,5ea1b3e8883b63080517aa0a,,,,,,5ea1b3e8883b63080517aa0a,Mężczyzna,25,2021-09-06_18h47.50.281,rantool2,2021.1.4,Win32,59.99160118,6135e006383e6ea6c3d06a28,613645e1b896fe60cbb8c53c,"[""period""]",0,[0.7167999999821291],2,0,2,0,1
,,,,,,,5ea1b3e8883b63080517aa0a,,,,,,5ea1b3e8883b63080517aa0a,Mężczyzna,25,2021-09-06_18h47.50.281,rantool2,2021.1.4,Win32,59.99160118,6135e006383e6ea6c3d06a28,613645e1b896fe60cbb8c53c,"[""period""]",0,[0.6489000000059377],3,0,3,0,1
,,,,,,,5ea1b3e8883b63080517aa0a,,,,,,5ea1b3e8883b63080517aa0a,Mężczyzna,25,2021-09-06_18h47.50.281,rantool2,2021.1.4,Win32,59.99160118,6135e006383e6ea6c3d06a28,613645e1b896fe60cbb8c53c,"[""comma""]",0,[0.6073000000118896],4,0,4,0,1
,,,,,,,5ea1b3e8883b63080517aa0a,,,,,,5ea1b3e8883b63080517aa0a,Mężczyzna,25,2021-09-06_18h47.50.281,rantool2,2021.1.4,Win32,59.99160118,6135e006383e6ea6c3d06a28,613645e1b896fe60cbb8c53c,"[""period""]",0,[0.7079000000059636],5,0,5,0,1
,,,,,,,5ea1b3e8883b63080517aa0a,,,,,,5ea1b3e8883b63080517aa0a,Mężczyzna,25,2021-09-06_18h47.50.281,rantool2,2021.1.4,Win32,59.99160118,6135e006383e6ea6c3d06a28,613645e1b896fe60cbb8c53c,"[""comma""]",0,[0.5978000000118868],6,0,6,0,1
,,,,,,,5ea1b3e8883b63080517aa0a,,,,,,5ea1b3e8883b63080517aa0a,Mężczyzna,25,2021-09-06_18h47.50.281,rantool2,2021.1.4,Win32,59.99160118,6135e006383e6ea6c3d06a28,613645e1b896fe60cbb8c53c,"[""comma""]",0,[0.6895000000000095],7,0,7,0,1
,,,,,,,5ea1b3e8883b63080517aa0a,,,,,,5ea1b3e8883b63080517aa0a,Mężczyzna,25,2021-09-06_18h47.50.281,rantool2,2021.1.4,Win32,59.99160118,6135e006383e6ea6c3d06a28,613645e1b896fe60cbb8c53c,"[""period""]",0,[0.43600000000003547],8,0,8,0,1
,,,,,,,5ea1b3e8883b63080517aa0a,,,,,,5ea1b3e8883b63080517aa0a,Mężczyzna,25,2021-09-06_18h47.50.281,rantool2,2021.1.4,Win32,59.99160118,6135e006383e6ea6c3d06a28,613645e1b896fe60cbb8c53c,"[""period""]",0,[0.37209999999402044],9,0,9,0,1
,,,,,,,5ea1b3e8883b63080517aa0a,,,,,,5ea1b3e8883b63080517aa0a,Mężczyzna,25,2021-09-06_18h47.50.281,rantool2,2021.1.4,Win32,59.99160118,6135e006383e6ea6c3d06a28,613645e1b896fe60cbb8c53c,"[""period""]",0,[0.6263000000118382],10,0,10,0,1
,,,,,,,5ea1b3e8883b63080517aa0a,,,,,,5ea1b3e8883b63080517aa0a,Mężczyzna,25,2021-09-06_18h47.50.281,rantool2,2021.1.4,Win32,59.99160118,6135e006383e6ea6c3d06a28,613645e1b896fe60cbb8c53c,"[""comma""]",0,[0.5319000000059759],11,0,11,0,1
,,,,,,,5ea1b3e8883b63080517aa0a,,,,,,5ea1b3e8883b63080517aa0a,Mężczyzna,25,2021-09-06_18h47.50.281,rantool2,2021.1.4,Win32,59.99160118,6135e006383e6ea6c3d06a28,613645e1b896fe60cbb8c53c,"[""comma""]",0,[0.5833000000119455],12,0,12,0,1
,,,,,,,5ea1b3e8883b63080517aa0a,,,,,,5ea1b3e8883b63080517aa0a,Mężczyzna,25,2021-09-06_18h47.50.281,rantool2,2021.1.4,Win32,59.99160118,6135e006383e6ea6c3d06a28,613645e1b896fe60cbb8c53c,"[""comma""]",0,[0.5669999999998936],13,0,13,0,1
,,,,,,,5ea1b3e8883b63080517aa0a,,,,,,5ea1b3e8883b63080517aa0a,Mężczyzna,25,2021-09-06_18h47.50.281,rantool2,2021.1.4,Win32,59.99160118,6135e006383e6ea6c3d06a28,613645e1b896fe60cbb8c53c,"[""comma""]",0,[0.459400000005985],14,0,14,0,1
,,,,,,,5ea1b3e8883b63080517aa0a,,,,,,5ea1b3e8883b63080517aa0a,Mężczyzna,25,2021-09-06_18h47.50.281,rantool2,2021.1.4,Win32,59.99160118,6135e006383e6ea6c3d06a28,613645e1b896fe60cbb8c53c,"[""period""]",0,[0.41680000001190365],15,0,15,0,1
,,,,,,,5ea1b3e8883b63080517aa0a,,,,,,5ea1b3e8883b63080517aa0a,Mężczyzna,25,2021-09-06_18h47.50.281,rantool2,2021.1.4,Win32,59.99160118,6135e006383e6ea6c3d06a28,613645e1b896fe60cbb8c53c,"[""period""]",0,[0.3509000000060496],16,0,16,0,1
,,,,,,,5ea1b3e8883b63080517aa0a,,,,,,5ea1b3e8883b63080517aa0a,Mężczyzna,25,2021-09-06_18h47.50.281,rantool2,2021.1.4,Win32,59.99160118,6135e006383e6ea6c3d06a28,613645e1b896fe60cbb8c53c,"[""comma""]",0,[0.37999999999999545],17,0,17,0,1
,,,,,,,5ea1b3e8883b63080517aa0a,,,,,,5ea1b3e8883b63080517aa0a,Mężczyzna,25,2021-09-06_18h47.50.281,rantool2,2021.1.4,Win32,59.99160118,6135e006383e6ea6c3d06a28,613645e1b896fe60cbb8c53c,"[""period""]",0,[0.31590000000596774],18,0,18,0,1
,,,,,,,5ea1b3e8883b63080517aa0a,,,,,,5ea1b3e8883b63080517aa0a,Mężczyzna,25,2021-09-06_18h47.50.281,rantool2,2021.1.4,Win32,59.99160118,6135e006383e6ea6c3d06a28,613645e1b896fe60cbb8c53c,"[""comma""]",0,[0.49069999998812364],19,0,19,0,1
,,,,,,,5ea1b3e8883b63080517aa0a,,,,,,5ea1b3e8883b63080517aa0a,Mężczyzna,25,2021-09-06_18h47.50.281,rantool2,2021.1.4,Win32,59.99160118,6135e006383e6ea6c3d06a28,613645e1b896fe60cbb8c53c,"[""period""]",0,[0.562900000005925],20,0,20,0,1
,,,,,,,5ea1b3e8883b63080517aa0a,,,,,,5ea1b3e8883b63080517aa0a,Mężczyzna,25,2021-09-06_18h47.50.281,rantool2,2021.1.4,Win32,59.99160118,6135e006383e6ea6c3d06a28,613645e1b896fe60cbb8c53c,"[""comma""]",0,[0.41589999997609084],21,0,21,0,1
,,,,,,,5ea1b3e8883b63080517aa0a,,,,,,5ea1b3e8883b63080517aa0a,Mężczyzna,25,2021-09-06_18h47.50.281,rantool2,2021.1.4,Win32,59.99160118,6135e006383e6ea6c3d06a28,613645e1b896fe60cbb8c53c,"[""comma""]",0,[0.2839999999999918],22,0,22,0,1
,,,,,,,5ea1b3e8883b63080517aa0a,,,,,,5ea1b3e8883b63080517aa0a,Mężczyzna,25,2021-09-06_18h47.50.281,rantool2,2021.1.4,Win32,59.99160118,6135e006383e6ea6c3d06a28,613645e1b896fe60cbb8c53c,"[""comma""]",0,[0.31670000001781773],23,0,23,0,1
,,,,,,,5ea1b3e8883b63080517aa0a,,,,,,5ea1b3e8883b63080517aa0a,Mężczyzna,25,2021-09-06_18h47.50.281,rantool2,2021.1.4,Win32,59.99160118,6135e006383e6ea6c3d06a28,613645e1b896fe60cbb8c53c,"[""period""]",0,[0.4179000000059432],24,0,24,0,1
,,,,,,,5ea1b3e8883b63080517aa0a,,,,,,5ea1b3e8883b63080517aa0a,Mężczyzna,25,2021-09-06_18h47.50.281,rantool2,2021.1.4,Win32,59.99160118,6135e006383e6ea6c3d06a28,613645e1b896fe60cbb8c53c,"[""period""]",0,[0.3545999999940932],25,0,25,0,1
,,,,,,,5ea1b3e8883b63080517aa0a,,,,,,5ea1b3e8883b63080517aa0a,Mężczyzna,25,2021-09-06_18h47.50.281,rantool2,2021.1.4,Win32,59.99160118,6135e006383e6ea6c3d06a28,613645e1b896fe60cbb8c53c,"[""comma""]",0,[0.28109999999412594],26,0,26,0,1
,,,,,,,5ea1b3e8883b63080517aa0a,,,,,,5ea1b3e8883b63080517aa0a,Mężczyzna,25,2021-09-06_18h47.50.281,rantool2,2021.1.4,Win32,59.99160118,6135e006383e6ea6c3d06a28,613645e1b896fe60cbb8c53c,"[""comma""]",0,[0.24859999999398497],27,0,27,0,1
,,,,,,,5ea1b3e8883b63080517aa0a,,,,,,5ea1b3e8883b63080517aa0a,Mężczyzna,25,2021-09-06_18h47.50.281,rantool2,2021.1.4,Win32,59.99160118,6135e006383e6ea6c3d06a28,613645e1b896fe60cbb8c53c,"[""comma""]",0,[0.4233000000119773],28,0,28,0,1
,,,,,,,5ea1b3e8883b63080517aa0a,,,,,,5ea1b3e8883b63080517aa0a,Mężczyzna,25,2021-09-06_18h47.50.281,rantool2,2021.1.4,Win32,59.99160118,6135e006383e6ea6c3d06a28,613645e1b896fe60cbb8c53c,"[""comma""]",0,[0.518299999982105],29,0,29,0,1
,,,,,,,5ea1b3e8883b63080517aa0a,,,,,,5ea1b3e8883b63080517aa0a,Mężczyzna,25,2021-09-06_18h47.50.281,rantool2,2021.1.4,Win32,59.99160118,6135e006383e6ea6c3d06a28,613645e1b896fe60cbb8c53c,"[""period""]",0,[0.4919000000058986],30,0,30,0,1
,,,,,,,5ea1b3e8883b63080517aa0a,,,,,,5ea1b3e8883b63080517aa0a,Mężczyzna,25,2021-09-06_18h47.50.281,rantool2,2021.1.4,Win32,59.99160118,6135e006383e6ea6c3d06a28,613645e1b896fe60cbb8c53c,"[""period""]",0,[0.37379999998211133],31,0,31,0,1
,,,,,,,5ea1b3e8883b63080517aa0a,,,,,,5ea1b3e8883b63080517aa0a,Mężczyzna,25,2021-09-06_18h47.50.281,rantool2,2021.1.4,Win32,59.99160118,6135e006383e6ea6c3d06a28,613645e1b896fe60cbb8c53c,"[""comma""]",0,[0.4996999999880245],32,0,32,0,1
,,,,,,,5ea1b3e8883b63080517aa0a,,,,,,5ea1b3e8883b63080517aa0a,Mężczyzna,25,2021-09-06_18h47.50.281,rantool2,2021.1.4,Win32,59.99160118,6135e006383e6ea6c3d06a28,613645e1b896fe60cbb8c53c,"[""period""]",0,[0.4519999999999982],33,0,33,0,1
,,,,,,,5ea1b3e8883b63080517aa0a,,,,,,5ea1b3e8883b63080517aa0a,Mężczyzna,25,2021-09-06_18h47.50.281,rantool2,2021.1.4,Win32,59.99160118,6135e006383e6ea6c3d06a28,613645e1b896fe60cbb8c53c,"[""comma""]",0,[0.31430000001194003],34,0,34,0,1
,,,,,,,5ea1b3e8883b63080517aa0a,,,,,,5ea1b3e8883b63080517aa0a,Mężczyzna,25,2021-09-06_18h47.50.281,rantool2,2021.1.4,Win32,59.99160118,6135e006383e6ea6c3d06a28,613645e1b896fe60cbb8c53c,"[""comma""]",0,[0.30549999999993815],35,0,35,0,1
,,,,,,,5ea1b3e8883b63080517aa0a,,,,,,5ea1b3e8883b63080517aa0a,Mężczyzna,25,2021-09-06_18h47.50.281,rantool2,2021.1.4,Win32,59.99160118,6135e006383e6ea6c3d06a28,613645e1b896fe60cbb8c53c,"[""comma""]",0,[0.5865999999940641],36,0,36,0,1
,,,,,,,5ea1b3e8883b63080517aa0a,,,,,,5ea1b3e8883b63080517aa0a,Mężczyzna,25,2021-09-06_18h47.50.281,rantool2,2021.1.4,Win32,59.99160118,6135e006383e6ea6c3d06a28,613645e1b896fe60cbb8c53c,"[""period""]",0,[0.3024000000060596],37,0,37,0,1
,,,,,,,5ea1b3e8883b63080517aa0a,,,,,,5ea1b3e8883b63080517aa0a,Mężczyzna,25,2021-09-06_18h47.50.281,rantool2,2021.1.4,Win32,59.99160118,6135e006383e6ea6c3d06a28,613645e1b896fe60cbb8c53c,"[""period""]",0,[0.3029000000059341],38,0,38,0,1
,,,,,,,5ea1b3e8883b63080517aa0a,,,,,,5ea1b3e8883b63080517aa0a,Mężczyzna,25,2021-09-06_18h47.50.281,rantool2,2021.1.4,Win32,59.99160118,6135e006383e6ea6c3d06a28,613645e1b896fe60cbb8c53c,"[""comma""]",0,[0.35790000000599775],39,0,39,0,1
,,,,,,,5ea1b3e8883b63080517aa0a,,,,,,5ea1b3e8883b63080517aa0a,Mężczyzna,25,2021-09-06_18h47.50.281,rantool2,2021.1.4,Win32,59.99160118,6135e006383e6ea6c3d06a28,613645e1b896fe60cbb8c53c,"[""period""]",0,[0.3302999999821168],40,0,40,0,1
,,,,,,,5ea1b3e8883b63080517aa0a,,,,,,5ea1b3e8883b63080517aa0a,Mężczyzna,25,2021-09-06_18h47.50.281,rantool2,2021.1.4,Win32,59.99160118,6135e006383e6ea6c3d06a28,613645e1b896fe60cbb8c53c,"[""period""]",0,[0.27029999998205767],41,0,41,0,1
,,,,,,,5ea1b3e8883b63080517aa0a,,,,,,5ea1b3e8883b63080517aa0a,Mężczyzna,25,2021-09-06_18h47.50.281,rantool2,2021.1.4,Win32,59.99160118,6135e006383e6ea6c3d06a28,613645e1b896fe60cbb8c53c,"[""comma""]",0,[0.4048999999761236],42,0,42,0,1
,,,,,,,5ea1b3e8883b63080517aa0a,,,,,,5ea1b3e8883b63080517aa0a,Mężczyzna,25,2021-09-06_18h47.50.281,rantool2,2021.1.4,Win32,59.99160118,6135e006383e6ea6c3d06a28,613645e1b896fe60cbb8c53c,"[""comma""]",0,[0.31580000001190456],43,0,43,0,1
,,,,,,,5ea1b3e8883b63080517aa0a,,,,,,5ea1b3e8883b63080517aa0a,Mężczyzna,25,2021-09-06_18h47.50.281,rantool2,2021.1.4,Win32,59.99160118,6135e006383e6ea6c3d06a28,613645e1b896fe60cbb8c53c,"[""comma""]",0,[0.48099999999999454],44,0,44,0,1
,,,,,,,5ea1b3e8883b63080517aa0a,,,,,,5ea1b3e8883b63080517aa0a,Mężczyzna,25,2021-09-06_18h47.50.281,rantool2,2021.1.4,Win32,59.99160118,6135e006383e6ea6c3d06a28,613645e1b896fe60cbb8c53c,"[""period""]",0,[0.46649999999999636],45,0,45,0,1
,,,,,,,5ea1b3e8883b63080517aa0a,,,,,,5ea1b3e8883b63080517aa0a,Mężczyzna,25,2021-09-06_18h47.50.281,rantool2,2021.1.4,Win32,59.99160118,6135e006383e6ea6c3d06a28,613645e1b896fe60cbb8c53c,"[""comma""]",0,[0.524799999982065],46,0,46,0,1
,,,,,,,5ea1b3e8883b63080517aa0a,,,,,,5ea1b3e8883b63080517aa0a,Mężczyzna,25,2021-09-06_18h47.50.281,rantool2,2021.1.4,Win32,59.99160118,6135e006383e6ea6c3d06a28,613645e1b896fe60cbb8c53c,"[""comma""]",0,[0.38400000000001455],47,0,47,0,1
,,,,,,,5ea1b3e8883b63080517aa0a,,,,,,5ea1b3e8883b63080517aa0a,Mężczyzna,25,2021-09-06_18h47.50.281,rantool2,2021.1.4,Win32,59.99160118,6135e006383e6ea6c3d06a28,613645e1b896fe60cbb8c53c,"[""comma""]",0,[0.3232000000178914],48,0,48,0,1
,,,,,,,5ea1b3e8883b63080517aa0a,,,,,,5ea1b3e8883b63080517aa0a,Mężczyzna,25,2021-09-06_18h47.50.281,rantool2,2021.1.4,Win32,59.99160118,6135e006383e6ea6c3d06a28,613645e1b896fe60cbb8c53c,"[""comma""]",0,[0.43809999999405136],49,0,49,0,1
,,,,,,,5ea1b3e8883b63080517aa0a,,,,,,5ea1b3e8883b63080517aa0a,Mężczyzna,25,2021-09-06_18h47.50.281,rantool2,2021.1.4,Win32,59.99160118,6135e006383e6ea6c3d06a28,613645e1b896fe60cbb8c53c,"[""period""]",0,[0.43520000001797143],50,0,50,0,1
,,,,,,,5ea1b3e8883b63080517aa0a,,,,,,5ea1b3e8883b63080517aa0a,Mężczyzna,25,2021-09-06_18h47.50.281,rantool2,2021.1.4,Win32,59.99160118,6135e006383e6ea6c3d06a28,613645e1b896fe60cbb8c53c,"[""period""]",0,[0.7586000000238755],51,0,51,0,1
,,,,,,,5ea1b3e8883b63080517aa0a,,,,,,5ea1b3e8883b63080517aa0a,Mężczyzna,25,2021-09-06_18h47.50.281,rantool2,2021.1.4,Win32,59.99160118,6135e006383e6ea6c3d06a28,613645e1b896fe60cbb8c53c,"[""comma""]",0,[0.4877999999821441],52,0,52,0,1
,,,,,,,5ea1b3e8883b63080517aa0a,,,,,,5ea1b3e8883b63080517aa0a,Mężczyzna,25,2021-09-06_18h47.50.281,rantool2,2021.1.4,Win32,59.99160118,6135e006383e6ea6c3d06a28,613645e1b896fe60cbb8c53c,"[""comma""]",0,[0.4010999999940168],53,0,53,0,1
,,,,,,,5ea1b3e8883b63080517aa0a,,,,,,5ea1b3e8883b63080517aa0a,Mężczyzna,25,2021-09-06_18h47.50.281,rantool2,2021.1.4,Win32,59.99160118,6135e006383e6ea6c3d06a28,613645e1b896fe60cbb8c53c,"[""comma""]",0,[0.4392999999821541],54,0,54,0,1
,,,,,,,5ea1b3e8883b63080517aa0a,,,,,,5ea1b3e8883b63080517aa0a,Mężczyzna,25,2021-09-06_18h47.50.281,rantool2,2021.1.4,Win32,59.99160118,6135e006383e6ea6c3d06a28,613645e1b896fe60cbb8c53c,"[""period""]",0,[0.40040000000601594],55,0,55,0,1
,,,,,,,5ea1b3e8883b63080517aa0a,,,,,,5ea1b3e8883b63080517aa0a,Mężczyzna,25,2021-09-06_18h47.50.281,rantool2,2021.1.4,Win32,59.99160118,6135e006383e6ea6c3d06a28,613645e1b896fe60cbb8c53c,"[""period""]",0,[0.5090999999940777],56,0,56,0,1
,,,,,,,5ea1b3e8883b63080517aa0a,,,,,,5ea1b3e8883b63080517aa0a,Mężczyzna,25,2021-09-06_18h47.50.281,rantool2,2021.1.4,Win32,59.99160118,6135e006383e6ea6c3d06a28,613645e1b896fe60cbb8c53c,"[""period""]",0,[0.27099999999995816],57,0,57,0,1
,,,,,,,5ea1b3e8883b63080517aa0a,,,,,,5ea1b3e8883b63080517aa0a,Mężczyzna,25,2021-09-06_18h47.50.281,rantool2,2021.1.4,Win32,59.99160118,6135e006383e6ea6c3d06a28,613645e1b896fe60cbb8c53c,"[""period""]",0,[0.3167000000179314],58,0,58,0,1
,,,,,,,5ea1b3e8883b63080517aa0a,,,,,,5ea1b3e8883b63080517aa0a,Mężczyzna,25,2021-09-06_18h47.50.281,rantool2,2021.1.4,Win32,59.99160118,6135e006383e6ea6c3d06a28,613645e1b896fe60cbb8c53c,"[""period""]",0,[0.29200000000003],59,0,59,0,1
,,,,,,,5ea1b3e8883b63080517aa0a,,,,,,5ea1b3e8883b63080517aa0a,Mężczyzna,25,2021-09-06_18h47.50.281,rantool2,2021.1.4,Win32,59.99160118,6135e006383e6ea6c3d06a28,613645e1b896fe60cbb8c53c,"[""comma""]",0,[0.3930999999939786],60,0,60,0,1
,,,,,,,5ea1b3e8883b63080517aa0a,,,,,,5ea1b3e8883b63080517aa0a,Mężczyzna,25,2021-09-06_18h47.50.281,rantool2,2021.1.4,Win32,59.99160118,6135e006383e6ea6c3d06a28,613645e1b896fe60cbb8c53c,"[""period""]",0,[0.29959999999402953],61,0,61,0,1
,,,,,,,5ea1b3e8883b63080517aa0a,,,,,,5ea1b3e8883b63080517aa0a,Mężczyzna,25,2021-09-06_18h47.50.281,rantool2,2021.1.4,Win32,59.99160118,6135e006383e6ea6c3d06a28,613645e1b896fe60cbb8c53c,"[""comma""]",0,[0.2957999999821368],62,0,62,0,1
,,,,,,,5ea1b3e8883b63080517aa0a,,,,,,5ea1b3e8883b63080517aa0a,Mężczyzna,25,2021-09-06_18h47.50.281,rantool2,2021.1.4,Win32,59.99160118,6135e006383e6ea6c3d06a28,613645e1b896fe60cbb8c53c,"[""comma""]",0,[0.27219999998817457],63,0,63,0,1
,,,,,,,5ea1b3e8883b63080517aa0a,,,,,,5ea1b3e8883b63080517aa0a,Mężczyzna,25,2021-09-06_18h47.50.281,rantool2,2021.1.4,Win32,59.99160118,6135e006383e6ea6c3d06a28,613645e1b896fe60cbb8c53c,"[""comma""]",0,[0.25770000001784865],64,0,64,0,1
,,,,,,,5ea1b3e8883b63080517aa0a,,,,,,5ea1b3e8883b63080517aa0a,Mężczyzna,25,2021-09-06_18h47.50.281,rantool2,2021.1.4,Win32,59.99160118,6135e006383e6ea6c3d06a28,613645e1b896fe60cbb8c53c,"[""comma""]",0,[0.26269999998817184],65,0,65,0,1
,,,,,,,5ea1b3e8883b63080517aa0a,,,,,,5ea1b3e8883b63080517aa0a,Mężczyzna,25,2021-09-06_18h47.50.281,rantool2,2021.1.4,Win32,59.99160118,6135e006383e6ea6c3d06a28,613645e1b896fe60cbb8c53c,"[""comma""]",0,[0.26429999998208586],66,0,66,0,1
,,,,,,,5ea1b3e8883b63080517aa0a,,,,,,5ea1b3e8883b63080517aa0a,Mężczyzna,25,2021-09-06_18h47.50.281,rantool2,2021.1.4,Win32,59.99160118,6135e006383e6ea6c3d06a28,613645e1b896fe60cbb8c53c,"[""period""]",0,[0.29149999999992815],67,0,67,0,1
,,,,,,,5ea1b3e8883b63080517aa0a,,,,,,5ea1b3e8883b63080517aa0a,Mężczyzna,25,2021-09-06_18h47.50.281,rantool2,2021.1.4,Win32,59.99160118,6135e006383e6ea6c3d06a28,613645e1b896fe60cbb8c53c,"[""period""]",0,[0.2921999999881564],68,0,68,0,1
,,,,,,,5ea1b3e8883b63080517aa0a,,,,,,5ea1b3e8883b63080517aa0a,Mężczyzna,25,2021-09-06_18h47.50.281,rantool2,2021.1.4,Win32,59.99160118,6135e006383e6ea6c3d06a28,613645e1b896fe60cbb8c53c,"[""period""]",0,[0.3149999999999409],69,0,69,0,1
,,,,,,,5ea1b3e8883b63080517aa0a,,,,,,5ea1b3e8883b63080517aa0a,Mężczyzna,25,2021-09-06_18h47.50.281,rantool2,2021.1.4,Win32,59.99160118,6135e006383e6ea6c3d06a28,613645e1b896fe60cbb8c53c,"[""comma""]",0,[0.2880000000000109],70,0,70,0,1
,,,,,,,5ea1b3e8883b63080517aa0a,,,,,,5ea1b3e8883b63080517aa0a,Mężczyzna,25,2021-09-06_18h47.50.281,rantool2,2021.1.4,Win32,59.99160118,6135e006383e6ea6c3d06a28,613645e1b896fe60cbb8c53c,"[""period""]",0,[0.2845999999940432],71,0,71,0,1
,,,,,,,5ea1b3e8883b63080517aa0a,,,,,,5ea1b3e8883b63080517aa0a,Mężczyzna,25,2021-09-06_18h47.50.281,rantool2,2021.1.4,Win32,59.99160118,6135e006383e6ea6c3d06a28,613645e1b896fe60cbb8c53c,"[""comma""]",0,[0.3796000000237427],72,0,72,0,1
,,,,,,,5ea1b3e8883b63080517aa0a,,,,,,5ea1b3e8883b63080517aa0a,Mężczyzna,25,2021-09-06_18h47.50.281,rantool2,2021.1.4,Win32,59.99160118,6135e006383e6ea6c3d06a28,613645e1b896fe60cbb8c53c,"[""comma""]",0,[0.3878999999761845],73,0,73,0,1
,,,,,,,5ea1b3e8883b63080517aa0a,,,,,,5ea1b3e8883b63080517aa0a,Mężczyzna,25,2021-09-06_18h47.50.281,rantool2,2021.1.4,Win32,59.99160118,6135e006383e6ea6c3d06a28,613645e1b896fe60cbb8c53c,"[""period""]",0,[0.4023999999761827],74,0,74,0,1
,,,,,,,5ea1b3e8883b63080517aa0a,,,,,,5ea1b3e8883b63080517aa0a,Mężczyzna,25,2021-09-06_18h47.50.281,rantool2,2021.1.4,Win32,59.99160118,6135e006383e6ea6c3d06a28,613645e1b896fe60cbb8c53c,"[""period""]",0,[0.37169999998809544],75,0,75,0,1
,,,,,,,5ea1b3e8883b63080517aa0a,,,,,,5ea1b3e8883b63080517aa0a,Mężczyzna,25,2021-09-06_18h47.50.281,rantool2,2021.1.4,Win32,59.99160118,6135e006383e6ea6c3d06a28,613645e1b896fe60cbb8c53c,"[""period""]",0,[0.3321999999880063],76,0,76,0,1
,,,,,,,5ea1b3e8883b63080517aa0a,,,,,,5ea1b3e8883b63080517aa0a,Mężczyzna,25,2021-09-06_18h47.50.281,rantool2,2021.1.4,Win32,59.99160118,6135e006383e6ea6c3d06a28,613645e1b896fe60cbb8c53c,"[""comma""]",0,[0.28390000000592863],77,0,77,0,1
,,,,,,,5ea1b3e8883b63080517aa0a,,,,,,5ea1b3e8883b63080517aa0a,Mężczyzna,25,2021-09-06_18h47.50.281,rantool2,2021.1.4,Win32,59.99160118,6135e006383e6ea6c3d06a28,613645e1b896fe60cbb8c53c,"[""period""]",0,[0.2835999999940668],78,0,78,0,1
,,,,,,,5ea1b3e8883b63080517aa0a,,,,,,5ea1b3e8883b63080517aa0a,Mężczyzna,25,2021-09-06_18h47.50.281,rantool2,2021.1.4,Win32,59.99160118,6135e006383e6ea6c3d06a28,613645e1b896fe60cbb8c53c,"[""period""]",0,[0.31430000001194003],79,0,79,0,1
,,,,,,,5ea1b3e8883b63080517aa0a,,,,,,5ea1b3e8883b63080517aa0a,Mężczyzna,25,2021-09-06_18h47.50.281,rantool2,2021.1.4,Win32,59.99160118,6135e006383e6ea6c3d06a28,613645e1b896fe60cbb8c53c,"[""comma""]",0,[0.2980000000000018],80,0,80,0,1
,,,,,,,5ea1b3e8883b63080517aa0a,,,,,,5ea1b3e8883b63080517aa0a,Mężczyzna,25,2021-09-06_18h47.50.281,rantool2,2021.1.4,Win32,59.99160118,6135e006383e6ea6c3d06a28,613645e1b896fe60cbb8c53c,"[""comma""]",0,[0.2656999999881009],81,0,81,0,1
,,,,,,,5ea1b3e8883b63080517aa0a,,,,,,5ea1b3e8883b63080517aa0a,Mężczyzna,25,2021-09-06_18h47.50.281,rantool2,2021.1.4,Win32,59.99160118,6135e006383e6ea6c3d06a28,613645e1b896fe60cbb8c53c,"[""period""]",0,[0.3009000000058677],82,0,82,0,1
,,,,,,,5ea1b3e8883b63080517aa0a,,,,,,5ea1b3e8883b63080517aa0a,Mężczyzna,25,2021-09-06_18h47.50.281,rantool2,2021.1.4,Win32,59.99160118,6135e006383e6ea6c3d06a28,613645e1b896fe60cbb8c53c,"[""period""]",0,[0.29200000000003],83,0,83,0,1
,,,,,,,5ea1b3e8883b63080517aa0a,,,,,,5ea1b3e8883b63080517aa0a,Mężczyzna,25,2021-09-06_18h47.50.281,rantool2,2021.1.4,Win32,59.99160118,6135e006383e6ea6c3d06a28,613645e1b896fe60cbb8c53c,"[""period""]",0,[0.2680000000000291],84,0,84,0,1
,,,,,,,5ea1b3e8883b63080517aa0a,,,,,,5ea1b3e8883b63080517aa0a,Mężczyzna,25,2021-09-06_18h47.50.281,rantool2,2021.1.4,Win32,59.99160118,6135e006383e6ea6c3d06a28,613645e1b896fe60cbb8c53c,"[""comma""]",0,[0.2985999999940532],85,0,85,0,1
,,,,,,,5ea1b3e8883b63080517aa0a,,,,,,5ea1b3e8883b63080517aa0a,Mężczyzna,25,2021-09-06_18h47.50.281,rantool2,2021.1.4,Win32,59.99160118,6135e006383e6ea6c3d06a28,613645e1b896fe60cbb8c53c,"[""period""]",0,[0.3994999999999891],86,0,86,0,1
,,,,,,,5ea1b3e8883b63080517aa0a,,,,,,5ea1b3e8883b63080517aa0a,Mężczyzna,25,2021-09-06_18h47.50.281,rantool2,2021.1.4,Win32,59.99160118,6135e006383e6ea6c3d06a28,613645e1b896fe60cbb8c53c,"[""comma""]",0,[0.39549999999997],87,0,87,0,1
,,,,,,,5ea1b3e8883b63080517aa0a,,,,,,5ea1b3e8883b63080517aa0a,Mężczyzna,25,2021-09-06_18h47.50.281,rantool2,2021.1.4,Win32,59.99160118,6135e006383e6ea6c3d06a28,613645e1b896fe60cbb8c53c,"[""comma""]",0,[0.26330000001189546],88,0,88,0,1
,,,,,,,5ea1b3e8883b63080517aa0a,,,,,,5ea1b3e8883b63080517aa0a,Mężczyzna,25,2021-09-06_18h47.50.281,rantool2,2021.1.4,Win32,59.99160118,6135e006383e6ea6c3d06a28,613645e1b896fe60cbb8c53c,"[""comma""]",0,[0.2673999999760781],89,0,89,0,1
,,,,,,,5ea1b3e8883b63080517aa0a,,,,,,5ea1b3e8883b63080517aa0a,Mężczyzna,25,2021-09-06_18h47.50.281,rantool2,2021.1.4,Win32,59.99160118,6135e006383e6ea6c3d06a28,613645e1b896fe60cbb8c53c,"[""comma""]",0,[0.2843000000118536],90,0,90,0,1
,,,,,,,5ea1b3e8883b63080517aa0a,,,,,,5ea1b3e8883b63080517aa0a,Mężczyzna,25,2021-09-06_18h47.50.281,rantool2,2021.1.4,Win32,59.99160118,6135e006383e6ea6c3d06a28,613645e1b896fe60cbb8c53c,"[""period""]",0,[0.2744000000060396],91,0,91,0,1
,,,,,,,5ea1b3e8883b63080517aa0a,,,,,,5ea1b3e8883b63080517aa0a,Mężczyzna,25,2021-09-06_18h47.50.281,rantool2,2021.1.4,Win32,59.99160118,6135e006383e6ea6c3d06a28,613645e1b896fe60cbb8c53c,"[""period""]",0,[0.29559999999401043],92,0,92,0,1
,,,,,,,5ea1b3e8883b63080517aa0a,,,,,,5ea1b3e8883b63080517aa0a,Mężczyzna,25,2021-09-06_18h47.50.281,rantool2,2021.1.4,Win32,59.99160118,6135e006383e6ea6c3d06a28,613645e1b896fe60cbb8c53c,"[""comma""]",0,[0.292400000005955],93,0,93,0,1
,,,,,,,5ea1b3e8883b63080517aa0a,,,,,,5ea1b3e8883b63080517aa0a,Mężczyzna,25,2021-09-06_18h47.50.281,rantool2,2021.1.4,Win32,59.99160118,6135e006383e6ea6c3d06a28,613645e1b896fe60cbb8c53c,"[""period""]",0,[0.5344000000059168],94,0,94,0,1
,,,,,,,5ea1b3e8883b63080517aa0a,,,,,,5ea1b3e8883b63080517aa0a,Mężczyzna,25,2021-09-06_18h47.50.281,rantool2,2021.1.4,Win32,59.99160118,6135e006383e6ea6c3d06a28,613645e1b896fe60cbb8c53c,"[""comma""]",0,[0.29059999999412867],95,0,95,0,1
,,,,,,,5ea1b3e8883b63080517aa0a,,,,,,5ea1b3e8883b63080517aa0a,Mężczyzna,25,2021-09-06_18h47.50.281,rantool2,2021.1.4,Win32,59.99160118,6135e006383e6ea6c3d06a28,613645e1b896fe60cbb8c53c,"[""period""]",0,[0.3380999999940286],96,0,96,0,1
,,,,,,,5ea1b3e8883b63080517aa0a,,,,,,5ea1b3e8883b63080517aa0a,Mężczyzna,25,2021-09-06_18h47.50.281,rantool2,2021.1.4,Win32,59.99160118,6135e006383e6ea6c3d06a28,613645e1b896fe60cbb8c53c,"[""period""]",0,[0.2857999999821459],97,0,97,0,1
,,,,,,,5ea1b3e8883b63080517aa0a,,,,,,5ea1b3e8883b63080517aa0a,Mężczyzna,25,2021-09-06_18h47.50.281,rantool2,2021.1.4,Win32,59.99160118,6135e006383e6ea6c3d06a28,613645e1b896fe60cbb8c53c,"[""comma""]",0,[0.43240000000594137],98,0,98,0,1
,,,,,,,5ea1b3e8883b63080517aa0a,,,,,,5ea1b3e8883b63080517aa0a,Mężczyzna,25,2021-09-06_18h47.50.281,rantool2,2021.1.4,Win32,59.99160118,6135e006383e6ea6c3d06a28,613645e1b896fe60cbb8c53c,"[""comma""]",0,[0.4342000000178814],99,0,99,0,1
,,,,,,,5ea1b3e8883b63080517aa0a,,,,,,5ea1b3e8883b63080517aa0a,Mężczyzna,25,2021-09-06_18h47.50.281,rantool2,2021.1.4,Win32,59.99160118,6135e006383e6ea6c3d06a28,613645e1b896fe60cbb8c53c,"[""comma""]",0,[0.30269999998813546],100,0,100,0,1
,,,,,,,5ea1b3e8883b63080517aa0a,,,,,,5ea1b3e8883b63080517aa0a,Mężczyzna,25,2021-09-06_18h47.50.281,rantool2,2021.1.4,Win32,59.99160118,6135e006383e6ea6c3d06a28,613645e1b896fe60cbb8c53c,"[""period""]",0,[0.2960000000000491],101,0,101,0,1
,,,,,,,5ea1b3e8883b63080517aa0a,,,,,,5ea1b3e8883b63080517aa0a,Mężczyzna,25,2021-09-06_18h47.50.281,rantool2,2021.1.4,Win32,59.99160118,6135e006383e6ea6c3d06a28,613645e1b896fe60cbb8c53c,"[""period""]",0,[0.2907000000178641],102,0,102,0,1
,,,,,,,5ea1b3e8883b63080517aa0a,,,,,,5ea1b3e8883b63080517aa0a,Mężczyzna,25,2021-09-06_18h47.50.281,rantool2,2021.1.4,Win32,59.99160118,6135e006383e6ea6c3d06a28,613645e1b896fe60cbb8c53c,"[""comma""]",0,[0.31729999998208314],103,0,103,0,1
,,,,,,,5ea1b3e8883b63080517aa0a,,,,,,5ea1b3e8883b63080517aa0a,Mężczyzna,25,2021-09-06_18h47.50.281,rantool2,2021.1.4,Win32,59.99160118,6135e006383e6ea6c3d06a28,613645e1b896fe60cbb8c53c,"[""comma""]",0,[0.28629999998213407],104,0,104,0,1
,,,,,,,5ea1b3e8883b63080517aa0a,,,,,,5ea1b3e8883b63080517aa0a,Mężczyzna,25,2021-09-06_18h47.50.281,rantool2,2021.1.4,Win32,59.99160118,6135e006383e6ea6c3d06a28,613645e1b896fe60cbb8c53c,"[""comma""]",0,[0.28449999999998],105,0,105,0,1
,,,,,,,5ea1b3e8883b63080517aa0a,,,,,,5ea1b3e8883b63080517aa0a,Mężczyzna,25,2021-09-06_18h47.50.281,rantool2,2021.1.4,Win32,59.99160118,6135e006383e6ea6c3d06a28,613645e1b896fe60cbb8c53c,"[""comma""]",0,[0.3000000000000682],106,0,106,0,1
,,,,,,,5ea1b3e8883b63080517aa0a,,,,,,5ea1b3e8883b63080517aa0a,Mężczyzna,25,2021-09-06_18h47.50.281,rantool2,2021.1.4,Win32,59.99160118,6135e006383e6ea6c3d06a28,613645e1b896fe60cbb8c53c,"[""period""]",0,[0.40569999998808726],107,0,107,0,1
,,,,,,,5ea1b3e8883b63080517aa0a,,,,,,5ea1b3e8883b63080517aa0a,Mężczyzna,25,2021-09-06_18h47.50.281,rantool2,2021.1.4,Win32,59.99160118,6135e006383e6ea6c3d06a28,613645e1b896fe60cbb8c53c,"[""comma""]",0,[0.10700000000008458],108,0,108,0,1
,,,,,,,5ea1b3e8883b63080517aa0a,,,,,,5ea1b3e8883b63080517aa0a,Mężczyzna,25,2021-09-06_18h47.50.281,rantool2,2021.1.4,Win32,59.99160118,6135e006383e6ea6c3d06a28,613645e1b896fe60cbb8c53c,"[""comma""]",0,[0.2620000000000573],109,0,109,0,1
,,,,,,,5ea1b3e8883b63080517aa0a,,,,,,5ea1b3e8883b63080517aa0a,Mężczyzna,25,2021-09-06_18h47.50.281,rantool2,2021.1.4,Win32,59.99160118,6135e006383e6ea6c3d06a28,613645e1b896fe60cbb8c53c,"[""period""]",0,[0.3189000000060105],110,0,110,0,1
,,,,,,,5ea1b3e8883b63080517aa0a,,,,,,5ea1b3e8883b63080517aa0a,Mężczyzna,25,2021-09-06_18h47.50.281,rantool2,2021.1.4,Win32,59.99160118,6135e006383e6ea6c3d06a28,613645e1b896fe60cbb8c53c,"[""period""]",0,[0.28330000001199096],111,0,111,0,1
,,,,,,,5ea1b3e8883b63080517aa0a,,,,,,5ea1b3e8883b63080517aa0a,Mężczyzna,25,2021-09-06_18h47.50.281,rantool2,2021.1.4,Win32,59.99160118,6135e006383e6ea6c3d06a28,613645e1b896fe60cbb8c53c,"[""period""]",0,[0.3330000000000837],112,0,112,0,1
,,,,,,,5ea1b3e8883b63080517aa0a,,,,,,5ea1b3e8883b63080517aa0a,Mężczyzna,25,2021-09-06_18h47.50.281,rantool2,2021.1.4,Win32,59.99160118,6135e006383e6ea6c3d06a28,613645e1b896fe60cbb8c53c,"[""period""]",0,[0.35359999999400316],113,0,113,0,1
,,,,,,,5ea1b3e8883b63080517aa0a,,,,,,5ea1b3e8883b63080517aa0a,Mężczyzna,25,2021-09-06_18h47.50.281,rantool2,2021.1.4,Win32,59.99160118,6135e006383e6ea6c3d06a28,613645e1b896fe60cbb8c53c,"[""comma""]",0,[0.32309999999404226],114,0,114,0,1
,,,,,,,5ea1b3e8883b63080517aa0a,,,,,,5ea1b3e8883b63080517aa0a,Mężczyzna,25,2021-09-06_18h47.50.281,rantool2,2021.1.4,Win32,59.99160118,6135e006383e6ea6c3d06a28,613645e1b896fe60cbb8c53c,"[""period""]",0,[0.30479999998215135],115,0,115,0,1
,,,,,,,5ea1b3e8883b63080517aa0a,,,,,,5ea1b3e8883b63080517aa0a,Mężczyzna,25,2021-09-06_18h47.50.281,rantool2,2021.1.4,Win32,59.99160118,6135e006383e6ea6c3d06a28,613645e1b896fe60cbb8c53c,"[""comma""]",0,[0.3745000000000118],116,0,116,0,1
,,,,,,,5ea1b3e8883b63080517aa0a,,,,,,5ea1b3e8883b63080517aa0a,Mężczyzna,25,2021-09-06_18h47.50.281,rantool2,2021.1.4,Win32,59.99160118,6135e006383e6ea6c3d06a28,613645e1b896fe60cbb8c53c,"[""comma""]",0,[0.27540000000590226],117,0,117,0,1
,,,,,,,5ea1b3e8883b63080517aa0a,,,,,,5ea1b3e8883b63080517aa0a,Mężczyzna,25,2021-09-06_18h47.50.281,rantool2,2021.1.4,Win32,59.99160118,6135e006383e6ea6c3d06a28,613645e1b896fe60cbb8c53c,"[""comma""]",0,[0.35400000000004184],118,0,118,0,1
,,,,,,,5ea1b3e8883b63080517aa0a,,,,,,5ea1b3e8883b63080517aa0a,Mężczyzna,25,2021-09-06_18h47.50.281,rantool2,2021.1.4,Win32,59.99160118,6135e006383e6ea6c3d06a28,613645e1b896fe60cbb8c53c,"[""period""]",0,[0.2997999999821559],119,0,119,0,1
