key_resp_7.keys,key_resp_7.rt,trials_2.thisRepN,trials_2.thisTrialN,trials_2.thisN,trials_2.thisIndex,trials_2.ran,id,series_0,series_1,acss_0,acss_1,comparison,id*,Płeć*,Wiek*,date,expName,psychopyVersion,OS,frameRate,STUDY_ID,SESSION_ID,key_resp_5.keys,key_resp_5.corr,key_resp_5.rt,trials.thisRepN,trials.thisTrialN,trials.thisN,trials.thisIndex,trials.ran
j,1.6036,0,0,0,32,1,5e6a1590d7a9eb000a1cca0e,ROOOOOO,ROOOOOR,19.92253567,21.27974287,series_1,5e6a1590d7a9eb000a1cca0e,Mężczyzna,18,2021-09-06_19h28.24.219,rantool2,2021.1.4,Win32,59.85873339,6135e006383e6ea6c3d06a28,61364f7a621bf8ddf0e13580,,,,,,,,
f,1.745,0,1,1,48,1,5e6a1590d7a9eb000a1cca0e,RROOOOO,RROOOOR,20.90986523,22.15934078,series_1,5e6a1590d7a9eb000a1cca0e,Mężczyzna,18,2021-09-06_19h28.24.219,rantool2,2021.1.4,Win32,59.85873339,6135e006383e6ea6c3d06a28,61364f7a621bf8ddf0e13580,,,,,,,,
j,1.5728,0,2,2,0,1,5e6a1590d7a9eb000a1cca0e,OOOOOOO,OOOOOOR,18.52739004,19.62521613,series_1,5e6a1590d7a9eb000a1cca0e,Mężczyzna,18,2021-09-06_19h28.24.219,rantool2,2021.1.4,Win32,59.85873339,6135e006383e6ea6c3d06a28,61364f7a621bf8ddf0e13580,,,,,,,,
f,1.8766,0,3,3,59,1,5e6a1590d7a9eb000a1cca0e,RRRORRO,RRRORRR,21.56657303,20.89823192,series_0,5e6a1590d7a9eb000a1cca0e,Mężczyzna,18,2021-09-06_19h28.24.219,rantool2,2021.1.4,Win32,59.85873339,6135e006383e6ea6c3d06a28,61364f7a621bf8ddf0e13580,,,,,,,,
j,1.3861,0,4,4,63,1,5e6a1590d7a9eb000a1cca0e,RRRRRRO,RRRRRRR,21.35278725,19.62521613,series_0,5e6a1590d7a9eb000a1cca0e,Mężczyzna,18,2021-09-06_19h28.24.219,rantool2,2021.1.4,Win32,59.85873339,6135e006383e6ea6c3d06a28,61364f7a621bf8ddf0e13580,,,,,,,,
j,2.2586,0,5,5,23,1,5e6a1590d7a9eb000a1cca0e,ORORRRO,ORORRRR,22.1285618,21.9921709,series_0,5e6a1590d7a9eb000a1cca0e,Mężczyzna,18,2021-09-06_19h28.24.219,rantool2,2021.1.4,Win32,59.85873339,6135e006383e6ea6c3d06a28,61364f7a621bf8ddf0e13580,,,,,,,,
j,1.8573,0,6,6,20,1,5e6a1590d7a9eb000a1cca0e,OROROOO,OROROOR,21.31236711,21.90565814,series_1,5e6a1590d7a9eb000a1cca0e,Mężczyzna,18,2021-09-06_19h28.24.219,rantool2,2021.1.4,Win32,59.85873339,6135e006383e6ea6c3d06a28,61364f7a621bf8ddf0e13580,,,,,,,,
f,2.9833,0,7,7,49,1,5e6a1590d7a9eb000a1cca0e,RROOORO,RROOORR,21.76276513,22.53364006,series_1,5e6a1590d7a9eb000a1cca0e,Mężczyzna,18,2021-09-06_19h28.24.219,rantool2,2021.1.4,Win32,59.85873339,6135e006383e6ea6c3d06a28,61364f7a621bf8ddf0e13580,,,,,,,,
j,2.0233,0,8,8,56,1,5e6a1590d7a9eb000a1cca0e,RRROOOO,RRROOOR,21.6194508,22.31681875,series_1,5e6a1590d7a9eb000a1cca0e,Mężczyzna,18,2021-09-06_19h28.24.219,rantool2,2021.1.4,Win32,59.85873339,6135e006383e6ea6c3d06a28,61364f7a621bf8ddf0e13580,,,,,,,,
j,1.8712,0,9,9,39,1,5e6a1590d7a9eb000a1cca0e,ROORRRO,ROORRRR,21.82425538,21.38562617,series_0,5e6a1590d7a9eb000a1cca0e,Mężczyzna,18,2021-09-06_19h28.24.219,rantool2,2021.1.4,Win32,59.85873339,6135e006383e6ea6c3d06a28,61364f7a621bf8ddf0e13580,,,,,,,,
j,1.6646,0,10,10,16,1,5e6a1590d7a9eb000a1cca0e,OROOOOO,OROOOOR,20.43051175,21.17347734,series_1,5e6a1590d7a9eb000a1cca0e,Mężczyzna,18,2021-09-06_19h28.24.219,rantool2,2021.1.4,Win32,59.85873339,6135e006383e6ea6c3d06a28,61364f7a621bf8ddf0e13580,,,,,,,,
f,2.5678,0,11,11,26,1,5e6a1590d7a9eb000a1cca0e,ORROROO,ORROROR,22.02732763,21.71443381,series_0,5e6a1590d7a9eb000a1cca0e,Mężczyzna,18,2021-09-06_19h28.24.219,rantool2,2021.1.4,Win32,59.85873339,6135e006383e6ea6c3d06a28,61364f7a621bf8ddf0e13580,,,,,,,,
f,2.0495,0,12,12,29,1,5e6a1590d7a9eb000a1cca0e,ORRRORO,ORRRORR,22.00300695,22.12173012,series_1,5e6a1590d7a9eb000a1cca0e,Mężczyzna,18,2021-09-06_19h28.24.219,rantool2,2021.1.4,Win32,59.85873339,6135e006383e6ea6c3d06a28,61364f7a621bf8ddf0e13580,,,,,,,,
f,2.0636,0,13,13,27,1,5e6a1590d7a9eb000a1cca0e,ORRORRO,ORRORRR,21.55250791,22.2428857,series_1,5e6a1590d7a9eb000a1cca0e,Mężczyzna,18,2021-09-06_19h28.24.219,rantool2,2021.1.4,Win32,59.85873339,6135e006383e6ea6c3d06a28,61364f7a621bf8ddf0e13580,,,,,,,,
j,1.6622,0,14,14,37,1,5e6a1590d7a9eb000a1cca0e,ROORORO,ROORORR,20.42602454,21.57657071,series_1,5e6a1590d7a9eb000a1cca0e,Mężczyzna,18,2021-09-06_19h28.24.219,rantool2,2021.1.4,Win32,59.85873339,6135e006383e6ea6c3d06a28,61364f7a621bf8ddf0e13580,,,,,,,,
f,2.3467,0,15,15,18,1,5e6a1590d7a9eb000a1cca0e,OROOROO,OROOROR,20.84860893,21.22513037,series_1,5e6a1590d7a9eb000a1cca0e,Mężczyzna,18,2021-09-06_19h28.24.219,rantool2,2021.1.4,Win32,59.85873339,6135e006383e6ea6c3d06a28,61364f7a621bf8ddf0e13580,,,,,,,,
f,2.4217,0,16,16,13,1,5e6a1590d7a9eb000a1cca0e,OORRORO,OORRORR,21.66733484,22.11181017,series_1,5e6a1590d7a9eb000a1cca0e,Mężczyzna,18,2021-09-06_19h28.24.219,rantool2,2021.1.4,Win32,59.85873339,6135e006383e6ea6c3d06a28,61364f7a621bf8ddf0e13580,,,,,,,,
f,1.331,0,17,17,4,1,5e6a1590d7a9eb000a1cca0e,OOOROOO,OOOROOR,19.91402015,21.21223021,series_1,5e6a1590d7a9eb000a1cca0e,Mężczyzna,18,2021-09-06_19h28.24.219,rantool2,2021.1.4,Win32,59.85873339,6135e006383e6ea6c3d06a28,61364f7a621bf8ddf0e13580,,,,,,,,
f,1.3643,0,18,18,53,1,5e6a1590d7a9eb000a1cca0e,RRORORO,RRORORR,20.71309134,21.90565814,series_1,5e6a1590d7a9eb000a1cca0e,Mężczyzna,18,2021-09-06_19h28.24.219,rantool2,2021.1.4,Win32,59.85873339,6135e006383e6ea6c3d06a28,61364f7a621bf8ddf0e13580,,,,,,,,
j,1.9013,0,19,19,17,1,5e6a1590d7a9eb000a1cca0e,OROOORO,OROOORR,21.03750787,22.12173012,series_1,5e6a1590d7a9eb000a1cca0e,Mężczyzna,18,2021-09-06_19h28.24.219,rantool2,2021.1.4,Win32,59.85873339,6135e006383e6ea6c3d06a28,61364f7a621bf8ddf0e13580,,,,,,,,
j,1.5148,0,20,20,38,1,5e6a1590d7a9eb000a1cca0e,ROORROO,ROORROR,21.79500819,21.36812781,series_0,5e6a1590d7a9eb000a1cca0e,Mężczyzna,18,2021-09-06_19h28.24.219,rantool2,2021.1.4,Win32,59.85873339,6135e006383e6ea6c3d06a28,61364f7a621bf8ddf0e13580,,,,,,,,
f,1.4837,0,21,21,44,1,5e6a1590d7a9eb000a1cca0e,RORROOO,RORROOR,21.66733484,22.02566557,series_1,5e6a1590d7a9eb000a1cca0e,Mężczyzna,18,2021-09-06_19h28.24.219,rantool2,2021.1.4,Win32,59.85873339,6135e006383e6ea6c3d06a28,61364f7a621bf8ddf0e13580,,,,,,,,
j,1.5203,0,22,22,54,1,5e6a1590d7a9eb000a1cca0e,RRORROO,RRORROR,21.55250791,20.9984461,series_0,5e6a1590d7a9eb000a1cca0e,Mężczyzna,18,2021-09-06_19h28.24.219,rantool2,2021.1.4,Win32,59.85873339,6135e006383e6ea6c3d06a28,61364f7a621bf8ddf0e13580,,,,,,,,
f,1.787,0,23,23,2,1,5e6a1590d7a9eb000a1cca0e,OOOOROO,OOOOROR,20.43051175,21.02936224,series_1,5e6a1590d7a9eb000a1cca0e,Mężczyzna,18,2021-09-06_19h28.24.219,rantool2,2021.1.4,Win32,59.85873339,6135e006383e6ea6c3d06a28,61364f7a621bf8ddf0e13580,,,,,,,,
f,2.6609,0,24,24,50,1,5e6a1590d7a9eb000a1cca0e,RROOROO,RROOROR,21.73568164,22.02566557,series_1,5e6a1590d7a9eb000a1cca0e,Mężczyzna,18,2021-09-06_19h28.24.219,rantool2,2021.1.4,Win32,59.85873339,6135e006383e6ea6c3d06a28,61364f7a621bf8ddf0e13580,,,,,,,,
f,1.5942,0,25,25,55,1,5e6a1590d7a9eb000a1cca0e,RRORRRO,RRORRRR,21.56657303,21.21223021,series_0,5e6a1590d7a9eb000a1cca0e,Mężczyzna,18,2021-09-06_19h28.24.219,rantool2,2021.1.4,Win32,59.85873339,6135e006383e6ea6c3d06a28,61364f7a621bf8ddf0e13580,,,,,,,,
j,1.6112,0,26,26,8,1,5e6a1590d7a9eb000a1cca0e,OOROOOO,OOROOOR,19.91402015,20.89823192,series_1,5e6a1590d7a9eb000a1cca0e,Mężczyzna,18,2021-09-06_19h28.24.219,rantool2,2021.1.4,Win32,59.85873339,6135e006383e6ea6c3d06a28,61364f7a621bf8ddf0e13580,,,,,,,,
f,2.3409,0,27,27,42,1,5e6a1590d7a9eb000a1cca0e,ROROROO,ROROROR,20.39515459,19.8361834,series_0,5e6a1590d7a9eb000a1cca0e,Mężczyzna,18,2021-09-06_19h28.24.219,rantool2,2021.1.4,Win32,59.85873339,6135e006383e6ea6c3d06a28,61364f7a621bf8ddf0e13580,,,,,,,,
f,2.5104,0,28,28,45,1,5e6a1590d7a9eb000a1cca0e,RORRORO,RORRORR,20.78182524,21.22513037,series_1,5e6a1590d7a9eb000a1cca0e,Mężczyzna,18,2021-09-06_19h28.24.219,rantool2,2021.1.4,Win32,59.85873339,6135e006383e6ea6c3d06a28,61364f7a621bf8ddf0e13580,,,,,,,,
f,3.1521,0,29,29,47,1,5e6a1590d7a9eb000a1cca0e,RORRRRO,RORRRRR,21.81333602,21.02936224,series_0,5e6a1590d7a9eb000a1cca0e,Mężczyzna,18,2021-09-06_19h28.24.219,rantool2,2021.1.4,Win32,59.85873339,6135e006383e6ea6c3d06a28,61364f7a621bf8ddf0e13580,,,,,,,,
f,4.0581,0,30,30,21,1,5e6a1590d7a9eb000a1cca0e,ORORORO,ORORORR,20.39515459,22.06781359,series_1,5e6a1590d7a9eb000a1cca0e,Mężczyzna,18,2021-09-06_19h28.24.219,rantool2,2021.1.4,Win32,59.85873339,6135e006383e6ea6c3d06a28,61364f7a621bf8ddf0e13580,,,,,,,,
j,2.342,0,31,31,57,1,5e6a1590d7a9eb000a1cca0e,RRROORO,RRROORR,21.82425538,22.07102821,series_1,5e6a1590d7a9eb000a1cca0e,Mężczyzna,18,2021-09-06_19h28.24.219,rantool2,2021.1.4,Win32,59.85873339,6135e006383e6ea6c3d06a28,61364f7a621bf8ddf0e13580,,,,,,,,
j,2.2149,0,32,32,14,1,5e6a1590d7a9eb000a1cca0e,OORRROO,OORRROR,22.24142883,22.16977179,series_0,5e6a1590d7a9eb000a1cca0e,Mężczyzna,18,2021-09-06_19h28.24.219,rantool2,2021.1.4,Win32,59.85873339,6135e006383e6ea6c3d06a28,61364f7a621bf8ddf0e13580,,,,,,,,
f,2.3423,0,33,33,19,1,5e6a1590d7a9eb000a1cca0e,OROORRO,OROORRR,21.73568164,22.11181017,series_1,5e6a1590d7a9eb000a1cca0e,Mężczyzna,18,2021-09-06_19h28.24.219,rantool2,2021.1.4,Win32,59.85873339,6135e006383e6ea6c3d06a28,61364f7a621bf8ddf0e13580,,,,,,,,
j,1.667,0,34,34,40,1,5e6a1590d7a9eb000a1cca0e,ROROOOO,ROROOOR,20.87963819,21.37121559,series_1,5e6a1590d7a9eb000a1cca0e,Mężczyzna,18,2021-09-06_19h28.24.219,rantool2,2021.1.4,Win32,59.85873339,6135e006383e6ea6c3d06a28,61364f7a621bf8ddf0e13580,,,,,,,,
j,2.2045,0,35,35,5,1,5e6a1590d7a9eb000a1cca0e,OOORORO,OOORORR,20.87963819,21.9921709,series_1,5e6a1590d7a9eb000a1cca0e,Mężczyzna,18,2021-09-06_19h28.24.219,rantool2,2021.1.4,Win32,59.85873339,6135e006383e6ea6c3d06a28,61364f7a621bf8ddf0e13580,,,,,,,,
j,3.0637,0,36,36,30,1,5e6a1590d7a9eb000a1cca0e,ORRRROO,ORRRROR,22.46748491,22.03072203,series_0,5e6a1590d7a9eb000a1cca0e,Mężczyzna,18,2021-09-06_19h28.24.219,rantool2,2021.1.4,Win32,59.85873339,6135e006383e6ea6c3d06a28,61364f7a621bf8ddf0e13580,,,,,,,,
j,2.0822,0,37,37,25,1,5e6a1590d7a9eb000a1cca0e,ORROORO,ORROORR,21.79500819,22.61624387,series_1,5e6a1590d7a9eb000a1cca0e,Mężczyzna,18,2021-09-06_19h28.24.219,rantool2,2021.1.4,Win32,59.85873339,6135e006383e6ea6c3d06a28,61364f7a621bf8ddf0e13580,,,,,,,,
j,3.6109,0,38,38,22,1,5e6a1590d7a9eb000a1cca0e,ORORROO,ORORROR,22.02732763,21.57657071,series_0,5e6a1590d7a9eb000a1cca0e,Mężczyzna,18,2021-09-06_19h28.24.219,rantool2,2021.1.4,Win32,59.85873339,6135e006383e6ea6c3d06a28,61364f7a621bf8ddf0e13580,,,,,,,,
f,1.3866,0,39,39,34,1,5e6a1590d7a9eb000a1cca0e,ROOOROO,ROOOROR,21.03750787,21.24781509,series_1,5e6a1590d7a9eb000a1cca0e,Mężczyzna,18,2021-09-06_19h28.24.219,rantool2,2021.1.4,Win32,59.85873339,6135e006383e6ea6c3d06a28,61364f7a621bf8ddf0e13580,,,,,,,,
j,2.666,0,40,40,7,1,5e6a1590d7a9eb000a1cca0e,OOORRRO,OOORRRR,21.6194508,21.899017,series_1,5e6a1590d7a9eb000a1cca0e,Mężczyzna,18,2021-09-06_19h28.24.219,rantool2,2021.1.4,Win32,59.85873339,6135e006383e6ea6c3d06a28,61364f7a621bf8ddf0e13580,,,,,,,,
f,4.0098,0,41,41,51,1,5e6a1590d7a9eb000a1cca0e,RROORRO,RROORRR,21.89852628,22.02786418,series_1,5e6a1590d7a9eb000a1cca0e,Mężczyzna,18,2021-09-06_19h28.24.219,rantool2,2021.1.4,Win32,59.85873339,6135e006383e6ea6c3d06a28,61364f7a621bf8ddf0e13580,,,,,,,,
f,1.688,0,42,42,62,1,5e6a1590d7a9eb000a1cca0e,RRRRROO,RRRRROR,22.16413392,21.27974287,series_0,5e6a1590d7a9eb000a1cca0e,Mężczyzna,18,2021-09-06_19h28.24.219,rantool2,2021.1.4,Win32,59.85873339,6135e006383e6ea6c3d06a28,61364f7a621bf8ddf0e13580,,,,,,,,
f,1.9439,0,43,43,36,1,5e6a1590d7a9eb000a1cca0e,ROOROOO,ROOROOR,21.07991943,20.9984461,series_0,5e6a1590d7a9eb000a1cca0e,Mężczyzna,18,2021-09-06_19h28.24.219,rantool2,2021.1.4,Win32,59.85873339,6135e006383e6ea6c3d06a28,61364f7a621bf8ddf0e13580,,,,,,,,
j,2.0484,0,44,44,61,1,5e6a1590d7a9eb000a1cca0e,RRRRORO,RRRRORR,21.81333602,21.17347734,series_0,5e6a1590d7a9eb000a1cca0e,Mężczyzna,18,2021-09-06_19h28.24.219,rantool2,2021.1.4,Win32,59.85873339,6135e006383e6ea6c3d06a28,61364f7a621bf8ddf0e13580,,,,,,,,
j,2.0276,0,45,45,1,1,5e6a1590d7a9eb000a1cca0e,OOOOORO,OOOOORR,19.92253567,20.74050628,series_1,5e6a1590d7a9eb000a1cca0e,Mężczyzna,18,2021-09-06_19h28.24.219,rantool2,2021.1.4,Win32,59.85873339,6135e006383e6ea6c3d06a28,61364f7a621bf8ddf0e13580,,,,,,,,
f,2.7724,0,46,46,35,1,5e6a1590d7a9eb000a1cca0e,ROOORRO,ROOORRR,21.76276513,22.16977179,series_1,5e6a1590d7a9eb000a1cca0e,Mężczyzna,18,2021-09-06_19h28.24.219,rantool2,2021.1.4,Win32,59.85873339,6135e006383e6ea6c3d06a28,61364f7a621bf8ddf0e13580,,,,,,,,
f,3.313,0,47,47,41,1,5e6a1590d7a9eb000a1cca0e,ROROORO,ROROORR,20.42602454,21.71443381,series_1,5e6a1590d7a9eb000a1cca0e,Mężczyzna,18,2021-09-06_19h28.24.219,rantool2,2021.1.4,Win32,59.85873339,6135e006383e6ea6c3d06a28,61364f7a621bf8ddf0e13580,,,,,,,,
j,1.492,0,48,48,31,1,5e6a1590d7a9eb000a1cca0e,ORRRRRO,ORRRRRR,22.16413392,20.74050628,series_0,5e6a1590d7a9eb000a1cca0e,Mężczyzna,18,2021-09-06_19h28.24.219,rantool2,2021.1.4,Win32,59.85873339,6135e006383e6ea6c3d06a28,61364f7a621bf8ddf0e13580,,,,,,,,
f,2.6763,0,49,49,11,1,5e6a1590d7a9eb000a1cca0e,OORORRO,OORORRR,22.18365867,22.6797523,series_1,5e6a1590d7a9eb000a1cca0e,Mężczyzna,18,2021-09-06_19h28.24.219,rantool2,2021.1.4,Win32,59.85873339,6135e006383e6ea6c3d06a28,61364f7a621bf8ddf0e13580,,,,,,,,
j,2.2522,0,50,50,52,1,5e6a1590d7a9eb000a1cca0e,RROROOO,RROROOR,22.18365867,22.11097995,series_0,5e6a1590d7a9eb000a1cca0e,Mężczyzna,18,2021-09-06_19h28.24.219,rantool2,2021.1.4,Win32,59.85873339,6135e006383e6ea6c3d06a28,61364f7a621bf8ddf0e13580,,,,,,,,
f,1.5954,0,51,51,12,1,5e6a1590d7a9eb000a1cca0e,OORROOO,OORROOR,21.30250474,22.02786418,series_1,5e6a1590d7a9eb000a1cca0e,Mężczyzna,18,2021-09-06_19h28.24.219,rantool2,2021.1.4,Win32,59.85873339,6135e006383e6ea6c3d06a28,61364f7a621bf8ddf0e13580,,,,,,,,
j,1.7832,0,52,52,15,1,5e6a1590d7a9eb000a1cca0e,OORRRRO,OORRRRR,22.10108823,21.74922619,series_0,5e6a1590d7a9eb000a1cca0e,Mężczyzna,18,2021-09-06_19h28.24.219,rantool2,2021.1.4,Win32,59.85873339,6135e006383e6ea6c3d06a28,61364f7a621bf8ddf0e13580,,,,,,,,
f,1.9165,0,53,53,28,1,5e6a1590d7a9eb000a1cca0e,ORRROOO,ORRROOR,22.24142883,22.53364006,series_1,5e6a1590d7a9eb000a1cca0e,Mężczyzna,18,2021-09-06_19h28.24.219,rantool2,2021.1.4,Win32,59.85873339,6135e006383e6ea6c3d06a28,61364f7a621bf8ddf0e13580,,,,,,,,
j,1.8625,0,54,54,3,1,5e6a1590d7a9eb000a1cca0e,OOOORRO,OOOORRR,20.90986523,21.74922619,series_1,5e6a1590d7a9eb000a1cca0e,Mężczyzna,18,2021-09-06_19h28.24.219,rantool2,2021.1.4,Win32,59.85873339,6135e006383e6ea6c3d06a28,61364f7a621bf8ddf0e13580,,,,,,,,
j,3.3534,0,55,55,24,1,5e6a1590d7a9eb000a1cca0e,ORROOOO,ORROOOR,21.12383932,22.07102821,series_1,5e6a1590d7a9eb000a1cca0e,Mężczyzna,18,2021-09-06_19h28.24.219,rantool2,2021.1.4,Win32,59.85873339,6135e006383e6ea6c3d06a28,61364f7a621bf8ddf0e13580,,,,,,,,
j,1.8594,0,56,56,10,1,5e6a1590d7a9eb000a1cca0e,OOROROO,OOROROR,21.31236711,21.07490964,series_0,5e6a1590d7a9eb000a1cca0e,Mężczyzna,18,2021-09-06_19h28.24.219,rantool2,2021.1.4,Win32,59.85873339,6135e006383e6ea6c3d06a28,61364f7a621bf8ddf0e13580,,,,,,,,
f,1.716,0,57,57,43,1,5e6a1590d7a9eb000a1cca0e,RORORRO,RORORRR,20.71309134,21.07490964,series_1,5e6a1590d7a9eb000a1cca0e,Mężczyzna,18,2021-09-06_19h28.24.219,rantool2,2021.1.4,Win32,59.85873339,6135e006383e6ea6c3d06a28,61364f7a621bf8ddf0e13580,,,,,,,,
j,2.2112,0,58,58,46,1,5e6a1590d7a9eb000a1cca0e,RORRROO,RORRROR,22.00300695,21.24781509,series_0,5e6a1590d7a9eb000a1cca0e,Mężczyzna,18,2021-09-06_19h28.24.219,rantool2,2021.1.4,Win32,59.85873339,6135e006383e6ea6c3d06a28,61364f7a621bf8ddf0e13580,,,,,,,,
f,1.9454,0,59,59,58,1,5e6a1590d7a9eb000a1cca0e,RRROROO,RRROROR,22.1285618,21.37121559,series_0,5e6a1590d7a9eb000a1cca0e,Mężczyzna,18,2021-09-06_19h28.24.219,rantool2,2021.1.4,Win32,59.85873339,6135e006383e6ea6c3d06a28,61364f7a621bf8ddf0e13580,,,,,,,,
f,2.2119,0,60,60,33,1,5e6a1590d7a9eb000a1cca0e,ROOOORO,ROOOORR,20.83779602,22.03072203,series_1,5e6a1590d7a9eb000a1cca0e,Mężczyzna,18,2021-09-06_19h28.24.219,rantool2,2021.1.4,Win32,59.85873339,6135e006383e6ea6c3d06a28,61364f7a621bf8ddf0e13580,,,,,,,,
j,2.4183,0,61,61,9,1,5e6a1590d7a9eb000a1cca0e,OOROORO,OOROORR,21.07991943,22.2428857,series_1,5e6a1590d7a9eb000a1cca0e,Mężczyzna,18,2021-09-06_19h28.24.219,rantool2,2021.1.4,Win32,59.85873339,6135e006383e6ea6c3d06a28,61364f7a621bf8ddf0e13580,,,,,,,,
j,2.108,0,62,62,60,1,5e6a1590d7a9eb000a1cca0e,RRRROOO,RRRROOR,22.10108823,22.15934078,series_1,5e6a1590d7a9eb000a1cca0e,Mężczyzna,18,2021-09-06_19h28.24.219,rantool2,2021.1.4,Win32,59.85873339,6135e006383e6ea6c3d06a28,61364f7a621bf8ddf0e13580,,,,,,,,
f,1.8484,0,63,63,6,1,5e6a1590d7a9eb000a1cca0e,OOORROO,OOORROR,21.12383932,21.38562617,series_1,5e6a1590d7a9eb000a1cca0e,Mężczyzna,18,2021-09-06_19h28.24.219,rantool2,2021.1.4,Win32,59.85873339,6135e006383e6ea6c3d06a28,61364f7a621bf8ddf0e13580,,,,,,,,
,,,,,,,5e6a1590d7a9eb000a1cca0e,,,,,,5e6a1590d7a9eb000a1cca0e,Mężczyzna,18,2021-09-06_19h28.24.219,rantool2,2021.1.4,Win32,59.85873339,6135e006383e6ea6c3d06a28,61364f7a621bf8ddf0e13580,0,,,0,0,0,0,1
,,,,,,,5e6a1590d7a9eb000a1cca0e,,,,,,5e6a1590d7a9eb000a1cca0e,Mężczyzna,18,2021-09-06_19h28.24.219,rantool2,2021.1.4,Win32,59.85873339,6135e006383e6ea6c3d06a28,61364f7a621bf8ddf0e13580,0,,,1,0,1,0,1
,,,,,,,5e6a1590d7a9eb000a1cca0e,,,,,,5e6a1590d7a9eb000a1cca0e,Mężczyzna,18,2021-09-06_19h28.24.219,rantool2,2021.1.4,Win32,59.85873339,6135e006383e6ea6c3d06a28,61364f7a621bf8ddf0e13580,"[""comma""]",0,[0.9733000000119318],2,0,2,0,1
,,,,,,,5e6a1590d7a9eb000a1cca0e,,,,,,5e6a1590d7a9eb000a1cca0e,Mężczyzna,18,2021-09-06_19h28.24.219,rantool2,2021.1.4,Win32,59.85873339,6135e006383e6ea6c3d06a28,61364f7a621bf8ddf0e13580,"[""comma""]",0,[0.27410000002385004],3,0,3,0,1
,,,,,,,5e6a1590d7a9eb000a1cca0e,,,,,,5e6a1590d7a9eb000a1cca0e,Mężczyzna,18,2021-09-06_19h28.24.219,rantool2,2021.1.4,Win32,59.85873339,6135e006383e6ea6c3d06a28,61364f7a621bf8ddf0e13580,"[""comma""]",0,[0.24619999998810727],4,0,4,0,1
,,,,,,,5e6a1590d7a9eb000a1cca0e,,,,,,5e6a1590d7a9eb000a1cca0e,Mężczyzna,18,2021-09-06_19h28.24.219,rantool2,2021.1.4,Win32,59.85873339,6135e006383e6ea6c3d06a28,61364f7a621bf8ddf0e13580,"[""period""]",0,[0.2793999999761354],5,0,5,0,1
,,,,,,,5e6a1590d7a9eb000a1cca0e,,,,,,5e6a1590d7a9eb000a1cca0e,Mężczyzna,18,2021-09-06_19h28.24.219,rantool2,2021.1.4,Win32,59.85873339,6135e006383e6ea6c3d06a28,61364f7a621bf8ddf0e13580,"[""comma""]",0,[0.2751999999880468],6,0,6,0,1
,,,,,,,5e6a1590d7a9eb000a1cca0e,,,,,,5e6a1590d7a9eb000a1cca0e,Mężczyzna,18,2021-09-06_19h28.24.219,rantool2,2021.1.4,Win32,59.85873339,6135e006383e6ea6c3d06a28,61364f7a621bf8ddf0e13580,"[""comma""]",0,[0.24219999998808817],7,0,7,0,1
,,,,,,,5e6a1590d7a9eb000a1cca0e,,,,,,5e6a1590d7a9eb000a1cca0e,Mężczyzna,18,2021-09-06_19h28.24.219,rantool2,2021.1.4,Win32,59.85873339,6135e006383e6ea6c3d06a28,61364f7a621bf8ddf0e13580,"[""period""]",0,[0.2882000000477092],8,0,8,0,1
,,,,,,,5e6a1590d7a9eb000a1cca0e,,,,,,5e6a1590d7a9eb000a1cca0e,Mężczyzna,18,2021-09-06_19h28.24.219,rantool2,2021.1.4,Win32,59.85873339,6135e006383e6ea6c3d06a28,61364f7a621bf8ddf0e13580,"[""period""]",0,[0.2440000000000282],9,0,9,0,1
,,,,,,,5e6a1590d7a9eb000a1cca0e,,,,,,5e6a1590d7a9eb000a1cca0e,Mężczyzna,18,2021-09-06_19h28.24.219,rantool2,2021.1.4,Win32,59.85873339,6135e006383e6ea6c3d06a28,61364f7a621bf8ddf0e13580,"[""period""]",0,[0.28000000000002956],10,0,10,0,1
,,,,,,,5e6a1590d7a9eb000a1cca0e,,,,,,5e6a1590d7a9eb000a1cca0e,Mężczyzna,18,2021-09-06_19h28.24.219,rantool2,2021.1.4,Win32,59.85873339,6135e006383e6ea6c3d06a28,61364f7a621bf8ddf0e13580,"[""comma""]",0,[0.26369999998809135],11,0,11,0,1
,,,,,,,5e6a1590d7a9eb000a1cca0e,,,,,,5e6a1590d7a9eb000a1cca0e,Mężczyzna,18,2021-09-06_19h28.24.219,rantool2,2021.1.4,Win32,59.85873339,6135e006383e6ea6c3d06a28,61364f7a621bf8ddf0e13580,"[""comma""]",0,[0.29820000004764324],12,0,12,0,1
,,,,,,,5e6a1590d7a9eb000a1cca0e,,,,,,5e6a1590d7a9eb000a1cca0e,Mężczyzna,18,2021-09-06_19h28.24.219,rantool2,2021.1.4,Win32,59.85873339,6135e006383e6ea6c3d06a28,61364f7a621bf8ddf0e13580,"[""comma""]",0,[0.2978000000119323],13,0,13,0,1
,,,,,,,5e6a1590d7a9eb000a1cca0e,,,,,,5e6a1590d7a9eb000a1cca0e,Mężczyzna,18,2021-09-06_19h28.24.219,rantool2,2021.1.4,Win32,59.85873339,6135e006383e6ea6c3d06a28,61364f7a621bf8ddf0e13580,"[""period""]",0,[0.28489999997611903],14,0,14,0,1
,,,,,,,5e6a1590d7a9eb000a1cca0e,,,,,,5e6a1590d7a9eb000a1cca0e,Mężczyzna,18,2021-09-06_19h28.24.219,rantool2,2021.1.4,Win32,59.85873339,6135e006383e6ea6c3d06a28,61364f7a621bf8ddf0e13580,"[""comma""]",0,[0.26189999997620816],15,0,15,0,1
,,,,,,,5e6a1590d7a9eb000a1cca0e,,,,,,5e6a1590d7a9eb000a1cca0e,Mężczyzna,18,2021-09-06_19h28.24.219,rantool2,2021.1.4,Win32,59.85873339,6135e006383e6ea6c3d06a28,61364f7a621bf8ddf0e13580,"[""period""]",0,[0.1951000000238423],16,0,16,0,1
,,,,,,,5e6a1590d7a9eb000a1cca0e,,,,,,5e6a1590d7a9eb000a1cca0e,Mężczyzna,18,2021-09-06_19h28.24.219,rantool2,2021.1.4,Win32,59.85873339,6135e006383e6ea6c3d06a28,61364f7a621bf8ddf0e13580,"[""period""]",0,[0.25499999999999545],17,0,17,0,1
,,,,,,,5e6a1590d7a9eb000a1cca0e,,,,,,5e6a1590d7a9eb000a1cca0e,Mężczyzna,18,2021-09-06_19h28.24.219,rantool2,2021.1.4,Win32,59.85873339,6135e006383e6ea6c3d06a28,61364f7a621bf8ddf0e13580,"[""comma""]",0,[0.27480000001190774],18,0,18,0,1
,,,,,,,5e6a1590d7a9eb000a1cca0e,,,,,,5e6a1590d7a9eb000a1cca0e,Mężczyzna,18,2021-09-06_19h28.24.219,rantool2,2021.1.4,Win32,59.85873339,6135e006383e6ea6c3d06a28,61364f7a621bf8ddf0e13580,"[""comma""]",0,[0.23780000001193002],19,0,19,0,1
,,,,,,,5e6a1590d7a9eb000a1cca0e,,,,,,5e6a1590d7a9eb000a1cca0e,Mężczyzna,18,2021-09-06_19h28.24.219,rantool2,2021.1.4,Win32,59.85873339,6135e006383e6ea6c3d06a28,61364f7a621bf8ddf0e13580,"[""period""]",0,[0.27899999999999636],20,0,20,0,1
,,,,,,,5e6a1590d7a9eb000a1cca0e,,,,,,5e6a1590d7a9eb000a1cca0e,Mężczyzna,18,2021-09-06_19h28.24.219,rantool2,2021.1.4,Win32,59.85873339,6135e006383e6ea6c3d06a28,61364f7a621bf8ddf0e13580,"[""comma""]",0,[0.28589999997615223],21,0,21,0,1
,,,,,,,5e6a1590d7a9eb000a1cca0e,,,,,,5e6a1590d7a9eb000a1cca0e,Mężczyzna,18,2021-09-06_19h28.24.219,rantool2,2021.1.4,Win32,59.85873339,6135e006383e6ea6c3d06a28,61364f7a621bf8ddf0e13580,"[""comma""]",0,[0.18569999998805997],22,0,22,0,1
,,,,,,,5e6a1590d7a9eb000a1cca0e,,,,,,5e6a1590d7a9eb000a1cca0e,Mężczyzna,18,2021-09-06_19h28.24.219,rantool2,2021.1.4,Win32,59.85873339,6135e006383e6ea6c3d06a28,61364f7a621bf8ddf0e13580,"[""comma""]",0,[0.2189999999999941],23,0,23,0,1
,,,,,,,5e6a1590d7a9eb000a1cca0e,,,,,,5e6a1590d7a9eb000a1cca0e,Mężczyzna,18,2021-09-06_19h28.24.219,rantool2,2021.1.4,Win32,59.85873339,6135e006383e6ea6c3d06a28,61364f7a621bf8ddf0e13580,"[""comma""]",0,[0.23880000001190638],24,0,24,0,1
,,,,,,,5e6a1590d7a9eb000a1cca0e,,,,,,5e6a1590d7a9eb000a1cca0e,Mężczyzna,18,2021-09-06_19h28.24.219,rantool2,2021.1.4,Win32,59.85873339,6135e006383e6ea6c3d06a28,61364f7a621bf8ddf0e13580,"[""period""]",0,[0.2608000000119546],25,0,25,0,1
,,,,,,,5e6a1590d7a9eb000a1cca0e,,,,,,5e6a1590d7a9eb000a1cca0e,Mężczyzna,18,2021-09-06_19h28.24.219,rantool2,2021.1.4,Win32,59.85873339,6135e006383e6ea6c3d06a28,61364f7a621bf8ddf0e13580,"[""comma""]",0,[0.25950000000000273],26,0,26,0,1
,,,,,,,5e6a1590d7a9eb000a1cca0e,,,,,,5e6a1590d7a9eb000a1cca0e,Mężczyzna,18,2021-09-06_19h28.24.219,rantool2,2021.1.4,Win32,59.85873339,6135e006383e6ea6c3d06a28,61364f7a621bf8ddf0e13580,"[""period""]",0,[0.2816000000238432],27,0,27,0,1
,,,,,,,5e6a1590d7a9eb000a1cca0e,,,,,,5e6a1590d7a9eb000a1cca0e,Mężczyzna,18,2021-09-06_19h28.24.219,rantool2,2021.1.4,Win32,59.85873339,6135e006383e6ea6c3d06a28,61364f7a621bf8ddf0e13580,"[""comma""]",0,[0.2797000000476828],28,0,28,0,1
,,,,,,,5e6a1590d7a9eb000a1cca0e,,,,,,5e6a1590d7a9eb000a1cca0e,Mężczyzna,18,2021-09-06_19h28.24.219,rantool2,2021.1.4,Win32,59.85873339,6135e006383e6ea6c3d06a28,61364f7a621bf8ddf0e13580,"[""period""]",0,[0.27559999996424267],29,0,29,0,1
,,,,,,,5e6a1590d7a9eb000a1cca0e,,,,,,5e6a1590d7a9eb000a1cca0e,Mężczyzna,18,2021-09-06_19h28.24.219,rantool2,2021.1.4,Win32,59.85873339,6135e006383e6ea6c3d06a28,61364f7a621bf8ddf0e13580,"[""period""]",0,[0.19539999997618906],30,0,30,0,1
,,,,,,,5e6a1590d7a9eb000a1cca0e,,,,,,5e6a1590d7a9eb000a1cca0e,Mężczyzna,18,2021-09-06_19h28.24.219,rantool2,2021.1.4,Win32,59.85873339,6135e006383e6ea6c3d06a28,61364f7a621bf8ddf0e13580,"[""comma""]",0,[0.2515000000000214],31,0,31,0,1
,,,,,,,5e6a1590d7a9eb000a1cca0e,,,,,,5e6a1590d7a9eb000a1cca0e,Mężczyzna,18,2021-09-06_19h28.24.219,rantool2,2021.1.4,Win32,59.85873339,6135e006383e6ea6c3d06a28,61364f7a621bf8ddf0e13580,"[""period""]",0,[0.2383999999761386],32,0,32,0,1
,,,,,,,5e6a1590d7a9eb000a1cca0e,,,,,,5e6a1590d7a9eb000a1cca0e,Mężczyzna,18,2021-09-06_19h28.24.219,rantool2,2021.1.4,Win32,59.85873339,6135e006383e6ea6c3d06a28,61364f7a621bf8ddf0e13580,"[""period""]",0,[0.2555000000000405],33,0,33,0,1
,,,,,,,5e6a1590d7a9eb000a1cca0e,,,,,,5e6a1590d7a9eb000a1cca0e,Mężczyzna,18,2021-09-06_19h28.24.219,rantool2,2021.1.4,Win32,59.85873339,6135e006383e6ea6c3d06a28,61364f7a621bf8ddf0e13580,"[""comma""]",0,[0.5168000000119264],34,0,34,0,1
,,,,,,,5e6a1590d7a9eb000a1cca0e,,,,,,5e6a1590d7a9eb000a1cca0e,Mężczyzna,18,2021-09-06_19h28.24.219,rantool2,2021.1.4,Win32,59.85873339,6135e006383e6ea6c3d06a28,61364f7a621bf8ddf0e13580,"[""comma""]",0,[0.3202999999522831],35,0,35,0,1
,,,,,,,5e6a1590d7a9eb000a1cca0e,,,,,,5e6a1590d7a9eb000a1cca0e,Mężczyzna,18,2021-09-06_19h28.24.219,rantool2,2021.1.4,Win32,59.85873339,6135e006383e6ea6c3d06a28,61364f7a621bf8ddf0e13580,"[""period""]",0,[0.31749999999999545],36,0,36,0,1
,,,,,,,5e6a1590d7a9eb000a1cca0e,,,,,,5e6a1590d7a9eb000a1cca0e,Mężczyzna,18,2021-09-06_19h28.24.219,rantool2,2021.1.4,Win32,59.85873339,6135e006383e6ea6c3d06a28,61364f7a621bf8ddf0e13580,"[""comma""]",0,[0.2553999999761345],37,0,37,0,1
,,,,,,,5e6a1590d7a9eb000a1cca0e,,,,,,5e6a1590d7a9eb000a1cca0e,Mężczyzna,18,2021-09-06_19h28.24.219,rantool2,2021.1.4,Win32,59.85873339,6135e006383e6ea6c3d06a28,61364f7a621bf8ddf0e13580,"[""period""]",0,[0.1193999999761104],38,0,38,0,1
,,,,,,,5e6a1590d7a9eb000a1cca0e,,,,,,5e6a1590d7a9eb000a1cca0e,Mężczyzna,18,2021-09-06_19h28.24.219,rantool2,2021.1.4,Win32,59.85873339,6135e006383e6ea6c3d06a28,61364f7a621bf8ddf0e13580,"[""comma""]",0,[0.28519999998809453],39,0,39,0,1
,,,,,,,5e6a1590d7a9eb000a1cca0e,,,,,,5e6a1590d7a9eb000a1cca0e,Mężczyzna,18,2021-09-06_19h28.24.219,rantool2,2021.1.4,Win32,59.85873339,6135e006383e6ea6c3d06a28,61364f7a621bf8ddf0e13580,"[""comma""]",0,[0.3726999999880718],40,0,40,0,1
,,,,,,,5e6a1590d7a9eb000a1cca0e,,,,,,5e6a1590d7a9eb000a1cca0e,Mężczyzna,18,2021-09-06_19h28.24.219,rantool2,2021.1.4,Win32,59.85873339,6135e006383e6ea6c3d06a28,61364f7a621bf8ddf0e13580,"[""comma""]",0,[0.3292999999523545],41,0,41,0,1
,,,,,,,5e6a1590d7a9eb000a1cca0e,,,,,,5e6a1590d7a9eb000a1cca0e,Mężczyzna,18,2021-09-06_19h28.24.219,rantool2,2021.1.4,Win32,59.85873339,6135e006383e6ea6c3d06a28,61364f7a621bf8ddf0e13580,"[""period""]",0,[0.28139999997614495],42,0,42,0,1
,,,,,,,5e6a1590d7a9eb000a1cca0e,,,,,,5e6a1590d7a9eb000a1cca0e,Mężczyzna,18,2021-09-06_19h28.24.219,rantool2,2021.1.4,Win32,59.85873339,6135e006383e6ea6c3d06a28,61364f7a621bf8ddf0e13580,"[""period""]",0,[0.2422000000477169],43,0,43,0,1
,,,,,,,5e6a1590d7a9eb000a1cca0e,,,,,,5e6a1590d7a9eb000a1cca0e,Mężczyzna,18,2021-09-06_19h28.24.219,rantool2,2021.1.4,Win32,59.85873339,6135e006383e6ea6c3d06a28,61364f7a621bf8ddf0e13580,"[""period""]",0,[0.24330000001191365],44,0,44,0,1
,,,,,,,5e6a1590d7a9eb000a1cca0e,,,,,,5e6a1590d7a9eb000a1cca0e,Mężczyzna,18,2021-09-06_19h28.24.219,rantool2,2021.1.4,Win32,59.85873339,6135e006383e6ea6c3d06a28,61364f7a621bf8ddf0e13580,"[""comma""]",0,[0.23519999998808316],45,0,45,0,1
,,,,,,,5e6a1590d7a9eb000a1cca0e,,,,,,5e6a1590d7a9eb000a1cca0e,Mężczyzna,18,2021-09-06_19h28.24.219,rantool2,2021.1.4,Win32,59.85873339,6135e006383e6ea6c3d06a28,61364f7a621bf8ddf0e13580,"[""period""]",0,[0.26369999998809135],46,0,46,0,1
,,,,,,,5e6a1590d7a9eb000a1cca0e,,,,,,5e6a1590d7a9eb000a1cca0e,Mężczyzna,18,2021-09-06_19h28.24.219,rantool2,2021.1.4,Win32,59.85873339,6135e006383e6ea6c3d06a28,61364f7a621bf8ddf0e13580,"[""period""]",0,[0.22699999999997544],47,0,47,0,1
,,,,,,,5e6a1590d7a9eb000a1cca0e,,,,,,5e6a1590d7a9eb000a1cca0e,Mężczyzna,18,2021-09-06_19h28.24.219,rantool2,2021.1.4,Win32,59.85873339,6135e006383e6ea6c3d06a28,61364f7a621bf8ddf0e13580,"[""comma""]",0,[0.26300000000003365],48,0,48,0,1
,,,,,,,5e6a1590d7a9eb000a1cca0e,,,,,,5e6a1590d7a9eb000a1cca0e,Mężczyzna,18,2021-09-06_19h28.24.219,rantool2,2021.1.4,Win32,59.85873339,6135e006383e6ea6c3d06a28,61364f7a621bf8ddf0e13580,"[""period""]",0,[0.21600000000000819],49,0,49,0,1
,,,,,,,5e6a1590d7a9eb000a1cca0e,,,,,,5e6a1590d7a9eb000a1cca0e,Mężczyzna,18,2021-09-06_19h28.24.219,rantool2,2021.1.4,Win32,59.85873339,6135e006383e6ea6c3d06a28,61364f7a621bf8ddf0e13580,"[""period""]",0,[0.22709999996425267],50,0,50,0,1
,,,,,,,5e6a1590d7a9eb000a1cca0e,,,,,,5e6a1590d7a9eb000a1cca0e,Mężczyzna,18,2021-09-06_19h28.24.219,rantool2,2021.1.4,Win32,59.85873339,6135e006383e6ea6c3d06a28,61364f7a621bf8ddf0e13580,"[""comma""]",0,[0.19180000001193775],51,0,51,0,1
,,,,,,,5e6a1590d7a9eb000a1cca0e,,,,,,5e6a1590d7a9eb000a1cca0e,Mężczyzna,18,2021-09-06_19h28.24.219,rantool2,2021.1.4,Win32,59.85873339,6135e006383e6ea6c3d06a28,61364f7a621bf8ddf0e13580,"[""comma""]",0,[0.2793999999761354],52,0,52,0,1
,,,,,,,5e6a1590d7a9eb000a1cca0e,,,,,,5e6a1590d7a9eb000a1cca0e,Mężczyzna,18,2021-09-06_19h28.24.219,rantool2,2021.1.4,Win32,59.85873339,6135e006383e6ea6c3d06a28,61364f7a621bf8ddf0e13580,"[""period""]",0,[0.26560000002382367],53,0,53,0,1
,,,,,,,5e6a1590d7a9eb000a1cca0e,,,,,,5e6a1590d7a9eb000a1cca0e,Mężczyzna,18,2021-09-06_19h28.24.219,rantool2,2021.1.4,Win32,59.85873339,6135e006383e6ea6c3d06a28,61364f7a621bf8ddf0e13580,"[""comma""]",0,[0.2670999999642163],54,0,54,0,1
,,,,,,,5e6a1590d7a9eb000a1cca0e,,,,,,5e6a1590d7a9eb000a1cca0e,Mężczyzna,18,2021-09-06_19h28.24.219,rantool2,2021.1.4,Win32,59.85873339,6135e006383e6ea6c3d06a28,61364f7a621bf8ddf0e13580,"[""period""]",0,[0.09369999998807543],55,0,55,0,1
,,,,,,,5e6a1590d7a9eb000a1cca0e,,,,,,5e6a1590d7a9eb000a1cca0e,Mężczyzna,18,2021-09-06_19h28.24.219,rantool2,2021.1.4,Win32,59.85873339,6135e006383e6ea6c3d06a28,61364f7a621bf8ddf0e13580,"[""period""]",0,[0.25789999997618906],56,0,56,0,1
,,,,,,,5e6a1590d7a9eb000a1cca0e,,,,,,5e6a1590d7a9eb000a1cca0e,Mężczyzna,18,2021-09-06_19h28.24.219,rantool2,2021.1.4,Win32,59.85873339,6135e006383e6ea6c3d06a28,61364f7a621bf8ddf0e13580,"[""period""]",0,[0.24979999995230173],57,0,57,0,1
,,,,,,,5e6a1590d7a9eb000a1cca0e,,,,,,5e6a1590d7a9eb000a1cca0e,Mężczyzna,18,2021-09-06_19h28.24.219,rantool2,2021.1.4,Win32,59.85873339,6135e006383e6ea6c3d06a28,61364f7a621bf8ddf0e13580,"[""period""]",0,[0.28830000001192957],58,0,58,0,1
,,,,,,,5e6a1590d7a9eb000a1cca0e,,,,,,5e6a1590d7a9eb000a1cca0e,Mężczyzna,18,2021-09-06_19h28.24.219,rantool2,2021.1.4,Win32,59.85873339,6135e006383e6ea6c3d06a28,61364f7a621bf8ddf0e13580,"[""comma""]",0,[0.26389999997616087],59,0,59,0,1
,,,,,,,5e6a1590d7a9eb000a1cca0e,,,,,,5e6a1590d7a9eb000a1cca0e,Mężczyzna,18,2021-09-06_19h28.24.219,rantool2,2021.1.4,Win32,59.85873339,6135e006383e6ea6c3d06a28,61364f7a621bf8ddf0e13580,"[""period""]",0,[0.26779999995233084],60,0,60,0,1
,,,,,,,5e6a1590d7a9eb000a1cca0e,,,,,,5e6a1590d7a9eb000a1cca0e,Mężczyzna,18,2021-09-06_19h28.24.219,rantool2,2021.1.4,Win32,59.85873339,6135e006383e6ea6c3d06a28,61364f7a621bf8ddf0e13580,"[""period""]",0,[0.23569999998807134],61,0,61,0,1
,,,,,,,5e6a1590d7a9eb000a1cca0e,,,,,,5e6a1590d7a9eb000a1cca0e,Mężczyzna,18,2021-09-06_19h28.24.219,rantool2,2021.1.4,Win32,59.85873339,6135e006383e6ea6c3d06a28,61364f7a621bf8ddf0e13580,"[""comma""]",0,[0.2376999999880809],62,0,62,0,1
,,,,,,,5e6a1590d7a9eb000a1cca0e,,,,,,5e6a1590d7a9eb000a1cca0e,Mężczyzna,18,2021-09-06_19h28.24.219,rantool2,2021.1.4,Win32,59.85873339,6135e006383e6ea6c3d06a28,61364f7a621bf8ddf0e13580,"[""comma""]",0,[0.2446999999880859],63,0,63,0,1
,,,,,,,5e6a1590d7a9eb000a1cca0e,,,,,,5e6a1590d7a9eb000a1cca0e,Mężczyzna,18,2021-09-06_19h28.24.219,rantool2,2021.1.4,Win32,59.85873339,6135e006383e6ea6c3d06a28,61364f7a621bf8ddf0e13580,"[""comma""]",0,[0.04859999996421038],64,0,64,0,1
,,,,,,,5e6a1590d7a9eb000a1cca0e,,,,,,5e6a1590d7a9eb000a1cca0e,Mężczyzna,18,2021-09-06_19h28.24.219,rantool2,2021.1.4,Win32,59.85873339,6135e006383e6ea6c3d06a28,61364f7a621bf8ddf0e13580,"[""period""]",0,[0.2895000000000323],65,0,65,0,1
,,,,,,,5e6a1590d7a9eb000a1cca0e,,,,,,5e6a1590d7a9eb000a1cca0e,Mężczyzna,18,2021-09-06_19h28.24.219,rantool2,2021.1.4,Win32,59.85873339,6135e006383e6ea6c3d06a28,61364f7a621bf8ddf0e13580,"[""comma""]",0,[0.28659999996420993],66,0,66,0,1
,,,,,,,5e6a1590d7a9eb000a1cca0e,,,,,,5e6a1590d7a9eb000a1cca0e,Mężczyzna,18,2021-09-06_19h28.24.219,rantool2,2021.1.4,Win32,59.85873339,6135e006383e6ea6c3d06a28,61364f7a621bf8ddf0e13580,"[""period""]",0,[0.2938000000119132],67,0,67,0,1
,,,,,,,5e6a1590d7a9eb000a1cca0e,,,,,,5e6a1590d7a9eb000a1cca0e,Mężczyzna,18,2021-09-06_19h28.24.219,rantool2,2021.1.4,Win32,59.85873339,6135e006383e6ea6c3d06a28,61364f7a621bf8ddf0e13580,"[""period""]",0,[0.2193000000119696],68,0,68,0,1
,,,,,,,5e6a1590d7a9eb000a1cca0e,,,,,,5e6a1590d7a9eb000a1cca0e,Mężczyzna,18,2021-09-06_19h28.24.219,rantool2,2021.1.4,Win32,59.85873339,6135e006383e6ea6c3d06a28,61364f7a621bf8ddf0e13580,"[""comma""]",0,[0.2371999999880927],69,0,69,0,1
,,,,,,,5e6a1590d7a9eb000a1cca0e,,,,,,5e6a1590d7a9eb000a1cca0e,Mężczyzna,18,2021-09-06_19h28.24.219,rantool2,2021.1.4,Win32,59.85873339,6135e006383e6ea6c3d06a28,61364f7a621bf8ddf0e13580,"[""comma""]",0,[0.25649999999996],70,0,70,0,1
,,,,,,,5e6a1590d7a9eb000a1cca0e,,,,,,5e6a1590d7a9eb000a1cca0e,Mężczyzna,18,2021-09-06_19h28.24.219,rantool2,2021.1.4,Win32,59.85873339,6135e006383e6ea6c3d06a28,61364f7a621bf8ddf0e13580,"[""comma""]",0,[0.2785000000000082],71,0,71,0,1
,,,,,,,5e6a1590d7a9eb000a1cca0e,,,,,,5e6a1590d7a9eb000a1cca0e,Mężczyzna,18,2021-09-06_19h28.24.219,rantool2,2021.1.4,Win32,59.85873339,6135e006383e6ea6c3d06a28,61364f7a621bf8ddf0e13580,"[""comma""]",0,[0.2489999999999668],72,0,72,0,1
,,,,,,,5e6a1590d7a9eb000a1cca0e,,,,,,5e6a1590d7a9eb000a1cca0e,Mężczyzna,18,2021-09-06_19h28.24.219,rantool2,2021.1.4,Win32,59.85873339,6135e006383e6ea6c3d06a28,61364f7a621bf8ddf0e13580,"[""period""]",0,[0.2839999999999918],73,0,73,0,1
,,,,,,,5e6a1590d7a9eb000a1cca0e,,,,,,5e6a1590d7a9eb000a1cca0e,Mężczyzna,18,2021-09-06_19h28.24.219,rantool2,2021.1.4,Win32,59.85873339,6135e006383e6ea6c3d06a28,61364f7a621bf8ddf0e13580,"[""period""]",0,[0.3416000000238455],74,0,74,0,1
,,,,,,,5e6a1590d7a9eb000a1cca0e,,,,,,5e6a1590d7a9eb000a1cca0e,Mężczyzna,18,2021-09-06_19h28.24.219,rantool2,2021.1.4,Win32,59.85873339,6135e006383e6ea6c3d06a28,61364f7a621bf8ddf0e13580,"[""comma""]",0,[0.2884000000357787],75,0,75,0,1
,,,,,,,5e6a1590d7a9eb000a1cca0e,,,,,,5e6a1590d7a9eb000a1cca0e,Mężczyzna,18,2021-09-06_19h28.24.219,rantool2,2021.1.4,Win32,59.85873339,6135e006383e6ea6c3d06a28,61364f7a621bf8ddf0e13580,"[""period""]",0,[0.23649999999997817],76,0,76,0,1
,,,,,,,5e6a1590d7a9eb000a1cca0e,,,,,,5e6a1590d7a9eb000a1cca0e,Mężczyzna,18,2021-09-06_19h28.24.219,rantool2,2021.1.4,Win32,59.85873339,6135e006383e6ea6c3d06a28,61364f7a621bf8ddf0e13580,"[""comma""]",0,[0.28419999998806134],77,0,77,0,1
,,,,,,,5e6a1590d7a9eb000a1cca0e,,,,,,5e6a1590d7a9eb000a1cca0e,Mężczyzna,18,2021-09-06_19h28.24.219,rantool2,2021.1.4,Win32,59.85873339,6135e006383e6ea6c3d06a28,61364f7a621bf8ddf0e13580,"[""comma""]",0,[0.27230000001191],78,0,78,0,1
,,,,,,,5e6a1590d7a9eb000a1cca0e,,,,,,5e6a1590d7a9eb000a1cca0e,Mężczyzna,18,2021-09-06_19h28.24.219,rantool2,2021.1.4,Win32,59.85873339,6135e006383e6ea6c3d06a28,61364f7a621bf8ddf0e13580,"[""period""]",0,[0.2643000000118718],79,0,79,0,1
,,,,,,,5e6a1590d7a9eb000a1cca0e,,,,,,5e6a1590d7a9eb000a1cca0e,Mężczyzna,18,2021-09-06_19h28.24.219,rantool2,2021.1.4,Win32,59.85873339,6135e006383e6ea6c3d06a28,61364f7a621bf8ddf0e13580,"[""period""]",0,[0.2880000000000109],80,0,80,0,1
,,,,,,,5e6a1590d7a9eb000a1cca0e,,,,,,5e6a1590d7a9eb000a1cca0e,Mężczyzna,18,2021-09-06_19h28.24.219,rantool2,2021.1.4,Win32,59.85873339,6135e006383e6ea6c3d06a28,61364f7a621bf8ddf0e13580,"[""comma""]",0,[0.5361000000238505],81,0,81,0,1
,,,,,,,5e6a1590d7a9eb000a1cca0e,,,,,,5e6a1590d7a9eb000a1cca0e,Mężczyzna,18,2021-09-06_19h28.24.219,rantool2,2021.1.4,Win32,59.85873339,6135e006383e6ea6c3d06a28,61364f7a621bf8ddf0e13580,"[""period""]",0,[0.3071999999880859],82,0,82,0,1
,,,,,,,5e6a1590d7a9eb000a1cca0e,,,,,,5e6a1590d7a9eb000a1cca0e,Mężczyzna,18,2021-09-06_19h28.24.219,rantool2,2021.1.4,Win32,59.85873339,6135e006383e6ea6c3d06a28,61364f7a621bf8ddf0e13580,"[""period""]",0,[0.28510000002387414],83,0,83,0,1
,,,,,,,5e6a1590d7a9eb000a1cca0e,,,,,,5e6a1590d7a9eb000a1cca0e,Mężczyzna,18,2021-09-06_19h28.24.219,rantool2,2021.1.4,Win32,59.85873339,6135e006383e6ea6c3d06a28,61364f7a621bf8ddf0e13580,"[""comma""]",0,[0.45419999998807725],84,0,84,0,1
,,,,,,,5e6a1590d7a9eb000a1cca0e,,,,,,5e6a1590d7a9eb000a1cca0e,Mężczyzna,18,2021-09-06_19h28.24.219,rantool2,2021.1.4,Win32,59.85873339,6135e006383e6ea6c3d06a28,61364f7a621bf8ddf0e13580,"[""comma""]",0,[0.2809000000357287],85,0,85,0,1
,,,,,,,5e6a1590d7a9eb000a1cca0e,,,,,,5e6a1590d7a9eb000a1cca0e,Mężczyzna,18,2021-09-06_19h28.24.219,rantool2,2021.1.4,Win32,59.85873339,6135e006383e6ea6c3d06a28,61364f7a621bf8ddf0e13580,"[""period""]",0,[0.30939999997616496],86,0,86,0,1
,,,,,,,5e6a1590d7a9eb000a1cca0e,,,,,,5e6a1590d7a9eb000a1cca0e,Mężczyzna,18,2021-09-06_19h28.24.219,rantool2,2021.1.4,Win32,59.85873339,6135e006383e6ea6c3d06a28,61364f7a621bf8ddf0e13580,"[""comma""]",0,[0.3100000000000023],87,0,87,0,1
,,,,,,,5e6a1590d7a9eb000a1cca0e,,,,,,5e6a1590d7a9eb000a1cca0e,Mężczyzna,18,2021-09-06_19h28.24.219,rantool2,2021.1.4,Win32,59.85873339,6135e006383e6ea6c3d06a28,61364f7a621bf8ddf0e13580,"[""comma""]",0,[0.39110000002381184],88,0,88,0,1
,,,,,,,5e6a1590d7a9eb000a1cca0e,,,,,,5e6a1590d7a9eb000a1cca0e,Mężczyzna,18,2021-09-06_19h28.24.219,rantool2,2021.1.4,Win32,59.85873339,6135e006383e6ea6c3d06a28,61364f7a621bf8ddf0e13580,"[""period""]",0,[0.26280000001196413],89,0,89,0,1
,,,,,,,5e6a1590d7a9eb000a1cca0e,,,,,,5e6a1590d7a9eb000a1cca0e,Mężczyzna,18,2021-09-06_19h28.24.219,rantool2,2021.1.4,Win32,59.85873339,6135e006383e6ea6c3d06a28,61364f7a621bf8ddf0e13580,"[""period""]",0,[0.313800000011895],90,0,90,0,1
,,,,,,,5e6a1590d7a9eb000a1cca0e,,,,,,5e6a1590d7a9eb000a1cca0e,Mężczyzna,18,2021-09-06_19h28.24.219,rantool2,2021.1.4,Win32,59.85873339,6135e006383e6ea6c3d06a28,61364f7a621bf8ddf0e13580,"[""period""]",0,[0.25680000001187864],91,0,91,0,1
,,,,,,,5e6a1590d7a9eb000a1cca0e,,,,,,5e6a1590d7a9eb000a1cca0e,Mężczyzna,18,2021-09-06_19h28.24.219,rantool2,2021.1.4,Win32,59.85873339,6135e006383e6ea6c3d06a28,61364f7a621bf8ddf0e13580,"[""comma""]",0,[0.2701999999881082],92,0,92,0,1
,,,,,,,5e6a1590d7a9eb000a1cca0e,,,,,,5e6a1590d7a9eb000a1cca0e,Mężczyzna,18,2021-09-06_19h28.24.219,rantool2,2021.1.4,Win32,59.85873339,6135e006383e6ea6c3d06a28,61364f7a621bf8ddf0e13580,"[""period""]",0,[0.28589999997615223],93,0,93,0,1
,,,,,,,5e6a1590d7a9eb000a1cca0e,,,,,,5e6a1590d7a9eb000a1cca0e,Mężczyzna,18,2021-09-06_19h28.24.219,rantool2,2021.1.4,Win32,59.85873339,6135e006383e6ea6c3d06a28,61364f7a621bf8ddf0e13580,"[""comma""]",0,[0.30469999998808817],94,0,94,0,1
,,,,,,,5e6a1590d7a9eb000a1cca0e,,,,,,5e6a1590d7a9eb000a1cca0e,Mężczyzna,18,2021-09-06_19h28.24.219,rantool2,2021.1.4,Win32,59.85873339,6135e006383e6ea6c3d06a28,61364f7a621bf8ddf0e13580,"[""comma""]",0,[0.2966999999881068],95,0,95,0,1
,,,,,,,5e6a1590d7a9eb000a1cca0e,,,,,,5e6a1590d7a9eb000a1cca0e,Mężczyzna,18,2021-09-06_19h28.24.219,rantool2,2021.1.4,Win32,59.85873339,6135e006383e6ea6c3d06a28,61364f7a621bf8ddf0e13580,"[""comma""]",0,[0.3678000000119255],96,0,96,0,1
,,,,,,,5e6a1590d7a9eb000a1cca0e,,,,,,5e6a1590d7a9eb000a1cca0e,Mężczyzna,18,2021-09-06_19h28.24.219,rantool2,2021.1.4,Win32,59.85873339,6135e006383e6ea6c3d06a28,61364f7a621bf8ddf0e13580,"[""period""]",0,[0.3173999999761463],97,0,97,0,1
,,,,,,,5e6a1590d7a9eb000a1cca0e,,,,,,5e6a1590d7a9eb000a1cca0e,Mężczyzna,18,2021-09-06_19h28.24.219,rantool2,2021.1.4,Win32,59.85873339,6135e006383e6ea6c3d06a28,61364f7a621bf8ddf0e13580,"[""period""]",0,[0.2506000000238373],98,0,98,0,1
,,,,,,,5e6a1590d7a9eb000a1cca0e,,,,,,5e6a1590d7a9eb000a1cca0e,Mężczyzna,18,2021-09-06_19h28.24.219,rantool2,2021.1.4,Win32,59.85873339,6135e006383e6ea6c3d06a28,61364f7a621bf8ddf0e13580,"[""period""]",0,[0.2674999999999841],99,0,99,0,1
,,,,,,,5e6a1590d7a9eb000a1cca0e,,,,,,5e6a1590d7a9eb000a1cca0e,Mężczyzna,18,2021-09-06_19h28.24.219,rantool2,2021.1.4,Win32,59.85873339,6135e006383e6ea6c3d06a28,61364f7a621bf8ddf0e13580,"[""period""]",0,[0.25569999998811],100,0,100,0,1
,,,,,,,5e6a1590d7a9eb000a1cca0e,,,,,,5e6a1590d7a9eb000a1cca0e,Mężczyzna,18,2021-09-06_19h28.24.219,rantool2,2021.1.4,Win32,59.85873339,6135e006383e6ea6c3d06a28,61364f7a621bf8ddf0e13580,"[""period""]",0,[0.25739999997614404],101,0,101,0,1
,,,,,,,5e6a1590d7a9eb000a1cca0e,,,,,,5e6a1590d7a9eb000a1cca0e,Mężczyzna,18,2021-09-06_19h28.24.219,rantool2,2021.1.4,Win32,59.85873339,6135e006383e6ea6c3d06a28,61364f7a621bf8ddf0e13580,"[""comma""]",0,[0.2664000000357305],102,0,102,0,1
,,,,,,,5e6a1590d7a9eb000a1cca0e,,,,,,5e6a1590d7a9eb000a1cca0e,Mężczyzna,18,2021-09-06_19h28.24.219,rantool2,2021.1.4,Win32,59.85873339,6135e006383e6ea6c3d06a28,61364f7a621bf8ddf0e13580,"[""comma""]",0,[0.2721000000238405],103,0,103,0,1
,,,,,,,5e6a1590d7a9eb000a1cca0e,,,,,,5e6a1590d7a9eb000a1cca0e,Mężczyzna,18,2021-09-06_19h28.24.219,rantool2,2021.1.4,Win32,59.85873339,6135e006383e6ea6c3d06a28,61364f7a621bf8ddf0e13580,"[""comma""]",0,[0.2238999999761404],104,0,104,0,1
,,,,,,,5e6a1590d7a9eb000a1cca0e,,,,,,5e6a1590d7a9eb000a1cca0e,Mężczyzna,18,2021-09-06_19h28.24.219,rantool2,2021.1.4,Win32,59.85873339,6135e006383e6ea6c3d06a28,61364f7a621bf8ddf0e13580,"[""period""]",0,[0.24099999999998545],105,0,105,0,1
,,,,,,,5e6a1590d7a9eb000a1cca0e,,,,,,5e6a1590d7a9eb000a1cca0e,Mężczyzna,18,2021-09-06_19h28.24.219,rantool2,2021.1.4,Win32,59.85873339,6135e006383e6ea6c3d06a28,61364f7a621bf8ddf0e13580,"[""comma""]",0,[0.26969999998812],106,0,106,0,1
,,,,,,,5e6a1590d7a9eb000a1cca0e,,,,,,5e6a1590d7a9eb000a1cca0e,Mężczyzna,18,2021-09-06_19h28.24.219,rantool2,2021.1.4,Win32,59.85873339,6135e006383e6ea6c3d06a28,61364f7a621bf8ddf0e13580,"[""period""]",0,[0.26719999998806543],107,0,107,0,1
,,,,,,,5e6a1590d7a9eb000a1cca0e,,,,,,5e6a1590d7a9eb000a1cca0e,Mężczyzna,18,2021-09-06_19h28.24.219,rantool2,2021.1.4,Win32,59.85873339,6135e006383e6ea6c3d06a28,61364f7a621bf8ddf0e13580,"[""comma""]",0,[0.2088999999762109],108,0,108,0,1
,,,,,,,5e6a1590d7a9eb000a1cca0e,,,,,,5e6a1590d7a9eb000a1cca0e,Mężczyzna,18,2021-09-06_19h28.24.219,rantool2,2021.1.4,Win32,59.85873339,6135e006383e6ea6c3d06a28,61364f7a621bf8ddf0e13580,"[""period""]",0,[0.24719999998808362],109,0,109,0,1
,,,,,,,5e6a1590d7a9eb000a1cca0e,,,,,,5e6a1590d7a9eb000a1cca0e,Mężczyzna,18,2021-09-06_19h28.24.219,rantool2,2021.1.4,Win32,59.85873339,6135e006383e6ea6c3d06a28,61364f7a621bf8ddf0e13580,"[""period""]",0,[0.25059999996420856],110,0,110,0,1
,,,,,,,5e6a1590d7a9eb000a1cca0e,,,,,,5e6a1590d7a9eb000a1cca0e,Mężczyzna,18,2021-09-06_19h28.24.219,rantool2,2021.1.4,Win32,59.85873339,6135e006383e6ea6c3d06a28,61364f7a621bf8ddf0e13580,"[""comma""]",0,[0.21769999998804224],111,0,111,0,1
,,,,,,,5e6a1590d7a9eb000a1cca0e,,,,,,5e6a1590d7a9eb000a1cca0e,Mężczyzna,18,2021-09-06_19h28.24.219,rantool2,2021.1.4,Win32,59.85873339,6135e006383e6ea6c3d06a28,61364f7a621bf8ddf0e13580,"[""comma""]",0,[0.25369999998810044],112,0,112,0,1
,,,,,,,5e6a1590d7a9eb000a1cca0e,,,,,,5e6a1590d7a9eb000a1cca0e,Mężczyzna,18,2021-09-06_19h28.24.219,rantool2,2021.1.4,Win32,59.85873339,6135e006383e6ea6c3d06a28,61364f7a621bf8ddf0e13580,"[""period""]",0,[0.2907000000477069],113,0,113,0,1
,,,,,,,5e6a1590d7a9eb000a1cca0e,,,,,,5e6a1590d7a9eb000a1cca0e,Mężczyzna,18,2021-09-06_19h28.24.219,rantool2,2021.1.4,Win32,59.85873339,6135e006383e6ea6c3d06a28,61364f7a621bf8ddf0e13580,"[""comma""]",0,[0.30920000004766734],114,0,114,0,1
,,,,,,,5e6a1590d7a9eb000a1cca0e,,,,,,5e6a1590d7a9eb000a1cca0e,Mężczyzna,18,2021-09-06_19h28.24.219,rantool2,2021.1.4,Win32,59.85873339,6135e006383e6ea6c3d06a28,61364f7a621bf8ddf0e13580,"[""period""]",0,[0.31150000000002365],115,0,115,0,1
,,,,,,,5e6a1590d7a9eb000a1cca0e,,,,,,5e6a1590d7a9eb000a1cca0e,Mężczyzna,18,2021-09-06_19h28.24.219,rantool2,2021.1.4,Win32,59.85873339,6135e006383e6ea6c3d06a28,61364f7a621bf8ddf0e13580,"[""period""]",0,[0.26960000002384277],116,0,116,0,1
,,,,,,,5e6a1590d7a9eb000a1cca0e,,,,,,5e6a1590d7a9eb000a1cca0e,Mężczyzna,18,2021-09-06_19h28.24.219,rantool2,2021.1.4,Win32,59.85873339,6135e006383e6ea6c3d06a28,61364f7a621bf8ddf0e13580,"[""period""]",0,[0.2626000000237809],117,0,117,0,1
,,,,,,,5e6a1590d7a9eb000a1cca0e,,,,,,5e6a1590d7a9eb000a1cca0e,Mężczyzna,18,2021-09-06_19h28.24.219,rantool2,2021.1.4,Win32,59.85873339,6135e006383e6ea6c3d06a28,61364f7a621bf8ddf0e13580,"[""comma""]",0,[0.2937000000476928],118,0,118,0,1
,,,,,,,5e6a1590d7a9eb000a1cca0e,,,,,,5e6a1590d7a9eb000a1cca0e,Mężczyzna,18,2021-09-06_19h28.24.219,rantool2,2021.1.4,Win32,59.85873339,6135e006383e6ea6c3d06a28,61364f7a621bf8ddf0e13580,"[""comma""]",0,[0.38430000001199005],119,0,119,0,1
