key_resp_7.keys,key_resp_7.rt,trials_2.thisRepN,trials_2.thisTrialN,trials_2.thisN,trials_2.thisIndex,trials_2.ran,id,series_0,series_1,acss_0,acss_1,comparison,id*,Płeć*,Wiek*,date,expName,psychopyVersion,OS,frameRate,STUDY_ID,SESSION_ID,key_resp_5.keys,key_resp_5.corr,key_resp_5.rt,trials.thisRepN,trials.thisTrialN,trials.thisN,trials.thisIndex,trials.ran
f,4.9581,0,0,0,41,1,6022f510c6f21e104b2cf527,ROROORO,ROROORR,20.42602454,21.71443381,series_1,6022f510c6f21e104b2cf527,Kobieta,23,2021-09-06_19h18.48.859,rantool2,2021.1.4,Win32,120.0192031,6135e006383e6ea6c3d06a28,61364ceca9855f00b78c5ea9,,,,,,,,
j,1.8095,0,1,1,53,1,6022f510c6f21e104b2cf527,RRORORO,RRORORR,20.71309134,21.90565814,series_1,6022f510c6f21e104b2cf527,Kobieta,23,2021-09-06_19h18.48.859,rantool2,2021.1.4,Win32,120.0192031,6135e006383e6ea6c3d06a28,61364ceca9855f00b78c5ea9,,,,,,,,
f,1.9853,0,2,2,18,1,6022f510c6f21e104b2cf527,OROOROO,OROOROR,20.84860893,21.22513037,series_1,6022f510c6f21e104b2cf527,Kobieta,23,2021-09-06_19h18.48.859,rantool2,2021.1.4,Win32,120.0192031,6135e006383e6ea6c3d06a28,61364ceca9855f00b78c5ea9,,,,,,,,
j,1.1632,0,3,3,29,1,6022f510c6f21e104b2cf527,ORRRORO,ORRRORR,22.00300695,22.12173012,series_1,6022f510c6f21e104b2cf527,Kobieta,23,2021-09-06_19h18.48.859,rantool2,2021.1.4,Win32,120.0192031,6135e006383e6ea6c3d06a28,61364ceca9855f00b78c5ea9,,,,,,,,
j,1.5788,0,4,4,31,1,6022f510c6f21e104b2cf527,ORRRRRO,ORRRRRR,22.16413392,20.74050628,series_0,6022f510c6f21e104b2cf527,Kobieta,23,2021-09-06_19h18.48.859,rantool2,2021.1.4,Win32,120.0192031,6135e006383e6ea6c3d06a28,61364ceca9855f00b78c5ea9,,,,,,,,
j,0.935,0,5,5,9,1,6022f510c6f21e104b2cf527,OOROORO,OOROORR,21.07991943,22.2428857,series_1,6022f510c6f21e104b2cf527,Kobieta,23,2021-09-06_19h18.48.859,rantool2,2021.1.4,Win32,120.0192031,6135e006383e6ea6c3d06a28,61364ceca9855f00b78c5ea9,,,,,,,,
j,1.3993,0,6,6,19,1,6022f510c6f21e104b2cf527,OROORRO,OROORRR,21.73568164,22.11181017,series_1,6022f510c6f21e104b2cf527,Kobieta,23,2021-09-06_19h18.48.859,rantool2,2021.1.4,Win32,120.0192031,6135e006383e6ea6c3d06a28,61364ceca9855f00b78c5ea9,,,,,,,,
f,1.6753,0,7,7,36,1,6022f510c6f21e104b2cf527,ROOROOO,ROOROOR,21.07991943,20.9984461,series_0,6022f510c6f21e104b2cf527,Kobieta,23,2021-09-06_19h18.48.859,rantool2,2021.1.4,Win32,120.0192031,6135e006383e6ea6c3d06a28,61364ceca9855f00b78c5ea9,,,,,,,,
j,2.3833,0,8,8,8,1,6022f510c6f21e104b2cf527,OOROOOO,OOROOOR,19.91402015,20.89823192,series_1,6022f510c6f21e104b2cf527,Kobieta,23,2021-09-06_19h18.48.859,rantool2,2021.1.4,Win32,120.0192031,6135e006383e6ea6c3d06a28,61364ceca9855f00b78c5ea9,,,,,,,,
j,1.4254,0,9,9,61,1,6022f510c6f21e104b2cf527,RRRRORO,RRRRORR,21.81333602,21.17347734,series_0,6022f510c6f21e104b2cf527,Kobieta,23,2021-09-06_19h18.48.859,rantool2,2021.1.4,Win32,120.0192031,6135e006383e6ea6c3d06a28,61364ceca9855f00b78c5ea9,,,,,,,,
j,2.6829,0,10,10,4,1,6022f510c6f21e104b2cf527,OOOROOO,OOOROOR,19.91402015,21.21223021,series_1,6022f510c6f21e104b2cf527,Kobieta,23,2021-09-06_19h18.48.859,rantool2,2021.1.4,Win32,120.0192031,6135e006383e6ea6c3d06a28,61364ceca9855f00b78c5ea9,,,,,,,,
f,1.6868,0,11,11,51,1,6022f510c6f21e104b2cf527,RROORRO,RROORRR,21.89852628,22.02786418,series_1,6022f510c6f21e104b2cf527,Kobieta,23,2021-09-06_19h18.48.859,rantool2,2021.1.4,Win32,120.0192031,6135e006383e6ea6c3d06a28,61364ceca9855f00b78c5ea9,,,,,,,,
f,0.8291,0,12,12,55,1,6022f510c6f21e104b2cf527,RRORRRO,RRORRRR,21.56657303,21.21223021,series_0,6022f510c6f21e104b2cf527,Kobieta,23,2021-09-06_19h18.48.859,rantool2,2021.1.4,Win32,120.0192031,6135e006383e6ea6c3d06a28,61364ceca9855f00b78c5ea9,,,,,,,,
j,0.9589,0,13,13,57,1,6022f510c6f21e104b2cf527,RRROORO,RRROORR,21.82425538,22.07102821,series_1,6022f510c6f21e104b2cf527,Kobieta,23,2021-09-06_19h18.48.859,rantool2,2021.1.4,Win32,120.0192031,6135e006383e6ea6c3d06a28,61364ceca9855f00b78c5ea9,,,,,,,,
j,0.7098,0,14,14,54,1,6022f510c6f21e104b2cf527,RRORROO,RRORROR,21.55250791,20.9984461,series_0,6022f510c6f21e104b2cf527,Kobieta,23,2021-09-06_19h18.48.859,rantool2,2021.1.4,Win32,120.0192031,6135e006383e6ea6c3d06a28,61364ceca9855f00b78c5ea9,,,,,,,,
f,2.5842,0,15,15,56,1,6022f510c6f21e104b2cf527,RRROOOO,RRROOOR,21.6194508,22.31681875,series_1,6022f510c6f21e104b2cf527,Kobieta,23,2021-09-06_19h18.48.859,rantool2,2021.1.4,Win32,120.0192031,6135e006383e6ea6c3d06a28,61364ceca9855f00b78c5ea9,,,,,,,,
j,1.0697,0,16,16,27,1,6022f510c6f21e104b2cf527,ORRORRO,ORRORRR,21.55250791,22.2428857,series_1,6022f510c6f21e104b2cf527,Kobieta,23,2021-09-06_19h18.48.859,rantool2,2021.1.4,Win32,120.0192031,6135e006383e6ea6c3d06a28,61364ceca9855f00b78c5ea9,,,,,,,,
f,1.4256,0,17,17,50,1,6022f510c6f21e104b2cf527,RROOROO,RROOROR,21.73568164,22.02566557,series_1,6022f510c6f21e104b2cf527,Kobieta,23,2021-09-06_19h18.48.859,rantool2,2021.1.4,Win32,120.0192031,6135e006383e6ea6c3d06a28,61364ceca9855f00b78c5ea9,,,,,,,,
j,3.1615,0,18,18,60,1,6022f510c6f21e104b2cf527,RRRROOO,RRRROOR,22.10108823,22.15934078,series_1,6022f510c6f21e104b2cf527,Kobieta,23,2021-09-06_19h18.48.859,rantool2,2021.1.4,Win32,120.0192031,6135e006383e6ea6c3d06a28,61364ceca9855f00b78c5ea9,,,,,,,,
j,0.0093,0,19,19,59,1,6022f510c6f21e104b2cf527,RRRORRO,RRRORRR,21.56657303,20.89823192,series_0,6022f510c6f21e104b2cf527,Kobieta,23,2021-09-06_19h18.48.859,rantool2,2021.1.4,Win32,120.0192031,6135e006383e6ea6c3d06a28,61364ceca9855f00b78c5ea9,,,,,,,,
j,2.0921,0,20,20,30,1,6022f510c6f21e104b2cf527,ORRRROO,ORRRROR,22.46748491,22.03072203,series_0,6022f510c6f21e104b2cf527,Kobieta,23,2021-09-06_19h18.48.859,rantool2,2021.1.4,Win32,120.0192031,6135e006383e6ea6c3d06a28,61364ceca9855f00b78c5ea9,,,,,,,,
j,2.2779,0,21,21,58,1,6022f510c6f21e104b2cf527,RRROROO,RRROROR,22.1285618,21.37121559,series_0,6022f510c6f21e104b2cf527,Kobieta,23,2021-09-06_19h18.48.859,rantool2,2021.1.4,Win32,120.0192031,6135e006383e6ea6c3d06a28,61364ceca9855f00b78c5ea9,,,,,,,,
j,1.1589,0,22,22,37,1,6022f510c6f21e104b2cf527,ROORORO,ROORORR,20.42602454,21.57657071,series_1,6022f510c6f21e104b2cf527,Kobieta,23,2021-09-06_19h18.48.859,rantool2,2021.1.4,Win32,120.0192031,6135e006383e6ea6c3d06a28,61364ceca9855f00b78c5ea9,,,,,,,,
f,3.9684,0,23,23,15,1,6022f510c6f21e104b2cf527,OORRRRO,OORRRRR,22.10108823,21.74922619,series_0,6022f510c6f21e104b2cf527,Kobieta,23,2021-09-06_19h18.48.859,rantool2,2021.1.4,Win32,120.0192031,6135e006383e6ea6c3d06a28,61364ceca9855f00b78c5ea9,,,,,,,,
f,2.1552,0,24,24,17,1,6022f510c6f21e104b2cf527,OROOORO,OROOORR,21.03750787,22.12173012,series_1,6022f510c6f21e104b2cf527,Kobieta,23,2021-09-06_19h18.48.859,rantool2,2021.1.4,Win32,120.0192031,6135e006383e6ea6c3d06a28,61364ceca9855f00b78c5ea9,,,,,,,,
f,1.4339,0,25,25,2,1,6022f510c6f21e104b2cf527,OOOOROO,OOOOROR,20.43051175,21.02936224,series_1,6022f510c6f21e104b2cf527,Kobieta,23,2021-09-06_19h18.48.859,rantool2,2021.1.4,Win32,120.0192031,6135e006383e6ea6c3d06a28,61364ceca9855f00b78c5ea9,,,,,,,,
j,2.0386,0,26,26,23,1,6022f510c6f21e104b2cf527,ORORRRO,ORORRRR,22.1285618,21.9921709,series_0,6022f510c6f21e104b2cf527,Kobieta,23,2021-09-06_19h18.48.859,rantool2,2021.1.4,Win32,120.0192031,6135e006383e6ea6c3d06a28,61364ceca9855f00b78c5ea9,,,,,,,,
j,1.5258,0,27,27,45,1,6022f510c6f21e104b2cf527,RORRORO,RORRORR,20.78182524,21.22513037,series_1,6022f510c6f21e104b2cf527,Kobieta,23,2021-09-06_19h18.48.859,rantool2,2021.1.4,Win32,120.0192031,6135e006383e6ea6c3d06a28,61364ceca9855f00b78c5ea9,,,,,,,,
j,0.9535,0,28,28,28,1,6022f510c6f21e104b2cf527,ORRROOO,ORRROOR,22.24142883,22.53364006,series_1,6022f510c6f21e104b2cf527,Kobieta,23,2021-09-06_19h18.48.859,rantool2,2021.1.4,Win32,120.0192031,6135e006383e6ea6c3d06a28,61364ceca9855f00b78c5ea9,,,,,,,,
f,2.1702,0,29,29,38,1,6022f510c6f21e104b2cf527,ROORROO,ROORROR,21.79500819,21.36812781,series_0,6022f510c6f21e104b2cf527,Kobieta,23,2021-09-06_19h18.48.859,rantool2,2021.1.4,Win32,120.0192031,6135e006383e6ea6c3d06a28,61364ceca9855f00b78c5ea9,,,,,,,,
j,1.2684,0,30,30,40,1,6022f510c6f21e104b2cf527,ROROOOO,ROROOOR,20.87963819,21.37121559,series_1,6022f510c6f21e104b2cf527,Kobieta,23,2021-09-06_19h18.48.859,rantool2,2021.1.4,Win32,120.0192031,6135e006383e6ea6c3d06a28,61364ceca9855f00b78c5ea9,,,,,,,,
f,1.2892,0,31,31,16,1,6022f510c6f21e104b2cf527,OROOOOO,OROOOOR,20.43051175,21.17347734,series_1,6022f510c6f21e104b2cf527,Kobieta,23,2021-09-06_19h18.48.859,rantool2,2021.1.4,Win32,120.0192031,6135e006383e6ea6c3d06a28,61364ceca9855f00b78c5ea9,,,,,,,,
j,1.1133,0,32,32,24,1,6022f510c6f21e104b2cf527,ORROOOO,ORROOOR,21.12383932,22.07102821,series_1,6022f510c6f21e104b2cf527,Kobieta,23,2021-09-06_19h18.48.859,rantool2,2021.1.4,Win32,120.0192031,6135e006383e6ea6c3d06a28,61364ceca9855f00b78c5ea9,,,,,,,,
f,1.4341,0,33,33,32,1,6022f510c6f21e104b2cf527,ROOOOOO,ROOOOOR,19.92253567,21.27974287,series_1,6022f510c6f21e104b2cf527,Kobieta,23,2021-09-06_19h18.48.859,rantool2,2021.1.4,Win32,120.0192031,6135e006383e6ea6c3d06a28,61364ceca9855f00b78c5ea9,,,,,,,,
j,1.6575,0,34,34,47,1,6022f510c6f21e104b2cf527,RORRRRO,RORRRRR,21.81333602,21.02936224,series_0,6022f510c6f21e104b2cf527,Kobieta,23,2021-09-06_19h18.48.859,rantool2,2021.1.4,Win32,120.0192031,6135e006383e6ea6c3d06a28,61364ceca9855f00b78c5ea9,,,,,,,,
f,0.9108,0,35,35,20,1,6022f510c6f21e104b2cf527,OROROOO,OROROOR,21.31236711,21.90565814,series_1,6022f510c6f21e104b2cf527,Kobieta,23,2021-09-06_19h18.48.859,rantool2,2021.1.4,Win32,120.0192031,6135e006383e6ea6c3d06a28,61364ceca9855f00b78c5ea9,,,,,,,,
j,1.2019,0,36,36,48,1,6022f510c6f21e104b2cf527,RROOOOO,RROOOOR,20.90986523,22.15934078,series_1,6022f510c6f21e104b2cf527,Kobieta,23,2021-09-06_19h18.48.859,rantool2,2021.1.4,Win32,120.0192031,6135e006383e6ea6c3d06a28,61364ceca9855f00b78c5ea9,,,,,,,,
f,1.8004,0,37,37,49,1,6022f510c6f21e104b2cf527,RROOORO,RROOORR,21.76276513,22.53364006,series_1,6022f510c6f21e104b2cf527,Kobieta,23,2021-09-06_19h18.48.859,rantool2,2021.1.4,Win32,120.0192031,6135e006383e6ea6c3d06a28,61364ceca9855f00b78c5ea9,,,,,,,,
j,0.9745,0,38,38,12,1,6022f510c6f21e104b2cf527,OORROOO,OORROOR,21.30250474,22.02786418,series_1,6022f510c6f21e104b2cf527,Kobieta,23,2021-09-06_19h18.48.859,rantool2,2021.1.4,Win32,120.0192031,6135e006383e6ea6c3d06a28,61364ceca9855f00b78c5ea9,,,,,,,,
f,1.9065,0,39,39,5,1,6022f510c6f21e104b2cf527,OOORORO,OOORORR,20.87963819,21.9921709,series_1,6022f510c6f21e104b2cf527,Kobieta,23,2021-09-06_19h18.48.859,rantool2,2021.1.4,Win32,120.0192031,6135e006383e6ea6c3d06a28,61364ceca9855f00b78c5ea9,,,,,,,,
f,2.2599,0,40,40,1,1,6022f510c6f21e104b2cf527,OOOOORO,OOOOORR,19.92253567,20.74050628,series_1,6022f510c6f21e104b2cf527,Kobieta,23,2021-09-06_19h18.48.859,rantool2,2021.1.4,Win32,120.0192031,6135e006383e6ea6c3d06a28,61364ceca9855f00b78c5ea9,,,,,,,,
f,1.3467,0,41,41,63,1,6022f510c6f21e104b2cf527,RRRRRRO,RRRRRRR,21.35278725,19.62521613,series_0,6022f510c6f21e104b2cf527,Kobieta,23,2021-09-06_19h18.48.859,rantool2,2021.1.4,Win32,120.0192031,6135e006383e6ea6c3d06a28,61364ceca9855f00b78c5ea9,,,,,,,,
j,1.5845,0,42,42,13,1,6022f510c6f21e104b2cf527,OORRORO,OORRORR,21.66733484,22.11181017,series_1,6022f510c6f21e104b2cf527,Kobieta,23,2021-09-06_19h18.48.859,rantool2,2021.1.4,Win32,120.0192031,6135e006383e6ea6c3d06a28,61364ceca9855f00b78c5ea9,,,,,,,,
f,1.4625,0,43,43,42,1,6022f510c6f21e104b2cf527,ROROROO,ROROROR,20.39515459,19.8361834,series_0,6022f510c6f21e104b2cf527,Kobieta,23,2021-09-06_19h18.48.859,rantool2,2021.1.4,Win32,120.0192031,6135e006383e6ea6c3d06a28,61364ceca9855f00b78c5ea9,,,,,,,,
j,2.0091,0,44,44,10,1,6022f510c6f21e104b2cf527,OOROROO,OOROROR,21.31236711,21.07490964,series_0,6022f510c6f21e104b2cf527,Kobieta,23,2021-09-06_19h18.48.859,rantool2,2021.1.4,Win32,120.0192031,6135e006383e6ea6c3d06a28,61364ceca9855f00b78c5ea9,,,,,,,,
f,1.5178,0,45,45,52,1,6022f510c6f21e104b2cf527,RROROOO,RROROOR,22.18365867,22.11097995,series_0,6022f510c6f21e104b2cf527,Kobieta,23,2021-09-06_19h18.48.859,rantool2,2021.1.4,Win32,120.0192031,6135e006383e6ea6c3d06a28,61364ceca9855f00b78c5ea9,,,,,,,,
j,1.6486,0,46,46,34,1,6022f510c6f21e104b2cf527,ROOOROO,ROOOROR,21.03750787,21.24781509,series_1,6022f510c6f21e104b2cf527,Kobieta,23,2021-09-06_19h18.48.859,rantool2,2021.1.4,Win32,120.0192031,6135e006383e6ea6c3d06a28,61364ceca9855f00b78c5ea9,,,,,,,,
j,2.6322,0,47,47,39,1,6022f510c6f21e104b2cf527,ROORRRO,ROORRRR,21.82425538,21.38562617,series_0,6022f510c6f21e104b2cf527,Kobieta,23,2021-09-06_19h18.48.859,rantool2,2021.1.4,Win32,120.0192031,6135e006383e6ea6c3d06a28,61364ceca9855f00b78c5ea9,,,,,,,,
j,2.6638,0,48,48,7,1,6022f510c6f21e104b2cf527,OOORRRO,OOORRRR,21.6194508,21.899017,series_1,6022f510c6f21e104b2cf527,Kobieta,23,2021-09-06_19h18.48.859,rantool2,2021.1.4,Win32,120.0192031,6135e006383e6ea6c3d06a28,61364ceca9855f00b78c5ea9,,,,,,,,
f,1.937,0,49,49,35,1,6022f510c6f21e104b2cf527,ROOORRO,ROOORRR,21.76276513,22.16977179,series_1,6022f510c6f21e104b2cf527,Kobieta,23,2021-09-06_19h18.48.859,rantool2,2021.1.4,Win32,120.0192031,6135e006383e6ea6c3d06a28,61364ceca9855f00b78c5ea9,,,,,,,,
j,1.1377,0,50,50,3,1,6022f510c6f21e104b2cf527,OOOORRO,OOOORRR,20.90986523,21.74922619,series_1,6022f510c6f21e104b2cf527,Kobieta,23,2021-09-06_19h18.48.859,rantool2,2021.1.4,Win32,120.0192031,6135e006383e6ea6c3d06a28,61364ceca9855f00b78c5ea9,,,,,,,,
f,1.2434,0,51,51,6,1,6022f510c6f21e104b2cf527,OOORROO,OOORROR,21.12383932,21.38562617,series_1,6022f510c6f21e104b2cf527,Kobieta,23,2021-09-06_19h18.48.859,rantool2,2021.1.4,Win32,120.0192031,6135e006383e6ea6c3d06a28,61364ceca9855f00b78c5ea9,,,,,,,,
f,1.2155,0,52,52,21,1,6022f510c6f21e104b2cf527,ORORORO,ORORORR,20.39515459,22.06781359,series_1,6022f510c6f21e104b2cf527,Kobieta,23,2021-09-06_19h18.48.859,rantool2,2021.1.4,Win32,120.0192031,6135e006383e6ea6c3d06a28,61364ceca9855f00b78c5ea9,,,,,,,,
f,1.3446,0,53,53,26,1,6022f510c6f21e104b2cf527,ORROROO,ORROROR,22.02732763,21.71443381,series_0,6022f510c6f21e104b2cf527,Kobieta,23,2021-09-06_19h18.48.859,rantool2,2021.1.4,Win32,120.0192031,6135e006383e6ea6c3d06a28,61364ceca9855f00b78c5ea9,,,,,,,,
j,1.095,0,54,54,33,1,6022f510c6f21e104b2cf527,ROOOORO,ROOOORR,20.83779602,22.03072203,series_1,6022f510c6f21e104b2cf527,Kobieta,23,2021-09-06_19h18.48.859,rantool2,2021.1.4,Win32,120.0192031,6135e006383e6ea6c3d06a28,61364ceca9855f00b78c5ea9,,,,,,,,
f,1.1607,0,55,55,0,1,6022f510c6f21e104b2cf527,OOOOOOO,OOOOOOR,18.52739004,19.62521613,series_1,6022f510c6f21e104b2cf527,Kobieta,23,2021-09-06_19h18.48.859,rantool2,2021.1.4,Win32,120.0192031,6135e006383e6ea6c3d06a28,61364ceca9855f00b78c5ea9,,,,,,,,
j,0.9341,0,56,56,44,1,6022f510c6f21e104b2cf527,RORROOO,RORROOR,21.66733484,22.02566557,series_1,6022f510c6f21e104b2cf527,Kobieta,23,2021-09-06_19h18.48.859,rantool2,2021.1.4,Win32,120.0192031,6135e006383e6ea6c3d06a28,61364ceca9855f00b78c5ea9,,,,,,,,
j,1.5149,0,57,57,11,1,6022f510c6f21e104b2cf527,OORORRO,OORORRR,22.18365867,22.6797523,series_1,6022f510c6f21e104b2cf527,Kobieta,23,2021-09-06_19h18.48.859,rantool2,2021.1.4,Win32,120.0192031,6135e006383e6ea6c3d06a28,61364ceca9855f00b78c5ea9,,,,,,,,
j,1.3709,0,58,58,22,1,6022f510c6f21e104b2cf527,ORORROO,ORORROR,22.02732763,21.57657071,series_0,6022f510c6f21e104b2cf527,Kobieta,23,2021-09-06_19h18.48.859,rantool2,2021.1.4,Win32,120.0192031,6135e006383e6ea6c3d06a28,61364ceca9855f00b78c5ea9,,,,,,,,
f,1.0577,0,59,59,43,1,6022f510c6f21e104b2cf527,RORORRO,RORORRR,20.71309134,21.07490964,series_1,6022f510c6f21e104b2cf527,Kobieta,23,2021-09-06_19h18.48.859,rantool2,2021.1.4,Win32,120.0192031,6135e006383e6ea6c3d06a28,61364ceca9855f00b78c5ea9,,,,,,,,
j,0.8457,0,60,60,14,1,6022f510c6f21e104b2cf527,OORRROO,OORRROR,22.24142883,22.16977179,series_0,6022f510c6f21e104b2cf527,Kobieta,23,2021-09-06_19h18.48.859,rantool2,2021.1.4,Win32,120.0192031,6135e006383e6ea6c3d06a28,61364ceca9855f00b78c5ea9,,,,,,,,
f,0.8555,0,61,61,25,1,6022f510c6f21e104b2cf527,ORROORO,ORROORR,21.79500819,22.61624387,series_1,6022f510c6f21e104b2cf527,Kobieta,23,2021-09-06_19h18.48.859,rantool2,2021.1.4,Win32,120.0192031,6135e006383e6ea6c3d06a28,61364ceca9855f00b78c5ea9,,,,,,,,
j,0.8682,0,62,62,46,1,6022f510c6f21e104b2cf527,RORRROO,RORRROR,22.00300695,21.24781509,series_0,6022f510c6f21e104b2cf527,Kobieta,23,2021-09-06_19h18.48.859,rantool2,2021.1.4,Win32,120.0192031,6135e006383e6ea6c3d06a28,61364ceca9855f00b78c5ea9,,,,,,,,
j,0.9352,0,63,63,62,1,6022f510c6f21e104b2cf527,RRRRROO,RRRRROR,22.16413392,21.27974287,series_0,6022f510c6f21e104b2cf527,Kobieta,23,2021-09-06_19h18.48.859,rantool2,2021.1.4,Win32,120.0192031,6135e006383e6ea6c3d06a28,61364ceca9855f00b78c5ea9,,,,,,,,
,,,,,,,6022f510c6f21e104b2cf527,,,,,,6022f510c6f21e104b2cf527,Kobieta,23,2021-09-06_19h18.48.859,rantool2,2021.1.4,Win32,120.0192031,6135e006383e6ea6c3d06a28,61364ceca9855f00b78c5ea9,"[""comma""]",0,[1.1054000000953863],0,0,0,0,1
,,,,,,,6022f510c6f21e104b2cf527,,,,,,6022f510c6f21e104b2cf527,Kobieta,23,2021-09-06_19h18.48.859,rantool2,2021.1.4,Win32,120.0192031,6135e006383e6ea6c3d06a28,61364ceca9855f00b78c5ea9,"[""comma""]",0,[0.3837000000476678],1,0,1,0,1
,,,,,,,6022f510c6f21e104b2cf527,,,,,,6022f510c6f21e104b2cf527,Kobieta,23,2021-09-06_19h18.48.859,rantool2,2021.1.4,Win32,120.0192031,6135e006383e6ea6c3d06a28,61364ceca9855f00b78c5ea9,"[""period""]",0,[0.38800000000000523],2,0,2,0,1
,,,,,,,6022f510c6f21e104b2cf527,,,,,,6022f510c6f21e104b2cf527,Kobieta,23,2021-09-06_19h18.48.859,rantool2,2021.1.4,Win32,120.0192031,6135e006383e6ea6c3d06a28,61364ceca9855f00b78c5ea9,"[""period""]",0,[0.24420000004769804],3,0,3,0,1
,,,,,,,6022f510c6f21e104b2cf527,,,,,,6022f510c6f21e104b2cf527,Kobieta,23,2021-09-06_19h18.48.859,rantool2,2021.1.4,Win32,120.0192031,6135e006383e6ea6c3d06a28,61364ceca9855f00b78c5ea9,"[""comma""]",0,[0.22529999995234107],4,0,4,0,1
,,,,,,,6022f510c6f21e104b2cf527,,,,,,6022f510c6f21e104b2cf527,Kobieta,23,2021-09-06_19h18.48.859,rantool2,2021.1.4,Win32,120.0192031,6135e006383e6ea6c3d06a28,61364ceca9855f00b78c5ea9,"[""comma""]",0,[0.36090000009536993],5,0,5,0,1
,,,,,,,6022f510c6f21e104b2cf527,,,,,,6022f510c6f21e104b2cf527,Kobieta,23,2021-09-06_19h18.48.859,rantool2,2021.1.4,Win32,120.0192031,6135e006383e6ea6c3d06a28,61364ceca9855f00b78c5ea9,"[""period""]",0,[0.4673000001907326],6,0,6,0,1
,,,,,,,6022f510c6f21e104b2cf527,,,,,,6022f510c6f21e104b2cf527,Kobieta,23,2021-09-06_19h18.48.859,rantool2,2021.1.4,Win32,120.0192031,6135e006383e6ea6c3d06a28,61364ceca9855f00b78c5ea9,"[""comma""]",0,[0.23599999999999],7,0,7,0,1
,,,,,,,6022f510c6f21e104b2cf527,,,,,,6022f510c6f21e104b2cf527,Kobieta,23,2021-09-06_19h18.48.859,rantool2,2021.1.4,Win32,120.0192031,6135e006383e6ea6c3d06a28,61364ceca9855f00b78c5ea9,"[""comma""]",0,[0.4271000001430707],8,0,8,0,1
,,,,,,,6022f510c6f21e104b2cf527,,,,,,6022f510c6f21e104b2cf527,Kobieta,23,2021-09-06_19h18.48.859,rantool2,2021.1.4,Win32,120.0192031,6135e006383e6ea6c3d06a28,61364ceca9855f00b78c5ea9,"[""period""]",0,[0.20820000004766825],9,0,9,0,1
,,,,,,,6022f510c6f21e104b2cf527,,,,,,6022f510c6f21e104b2cf527,Kobieta,23,2021-09-06_19h18.48.859,rantool2,2021.1.4,Win32,120.0192031,6135e006383e6ea6c3d06a28,61364ceca9855f00b78c5ea9,"[""comma""]",0,[0.21970000004768053],10,0,10,0,1
,,,,,,,6022f510c6f21e104b2cf527,,,,,,6022f510c6f21e104b2cf527,Kobieta,23,2021-09-06_19h18.48.859,rantool2,2021.1.4,Win32,120.0192031,6135e006383e6ea6c3d06a28,61364ceca9855f00b78c5ea9,"[""period""]",0,[0.4231000001430516],11,0,11,0,1
,,,,,,,6022f510c6f21e104b2cf527,,,,,,6022f510c6f21e104b2cf527,Kobieta,23,2021-09-06_19h18.48.859,rantool2,2021.1.4,Win32,120.0192031,6135e006383e6ea6c3d06a28,61364ceca9855f00b78c5ea9,"[""period""]",0,[0.23460000014304683],12,0,12,0,1
,,,,,,,6022f510c6f21e104b2cf527,,,,,,6022f510c6f21e104b2cf527,Kobieta,23,2021-09-06_19h18.48.859,rantool2,2021.1.4,Win32,120.0192031,6135e006383e6ea6c3d06a28,61364ceca9855f00b78c5ea9,"[""comma""]",0,[0.2920000000000016],13,0,13,0,1
,,,,,,,6022f510c6f21e104b2cf527,,,,,,6022f510c6f21e104b2cf527,Kobieta,23,2021-09-06_19h18.48.859,rantool2,2021.1.4,Win32,120.0192031,6135e006383e6ea6c3d06a28,61364ceca9855f00b78c5ea9,"[""period""]",0,[0.3344000000953713],14,0,14,0,1
,,,,,,,6022f510c6f21e104b2cf527,,,,,,6022f510c6f21e104b2cf527,Kobieta,23,2021-09-06_19h18.48.859,rantool2,2021.1.4,Win32,120.0192031,6135e006383e6ea6c3d06a28,61364ceca9855f00b78c5ea9,"[""comma""]",0,[0.2342000000476787],15,0,15,0,1
,,,,,,,6022f510c6f21e104b2cf527,,,,,,6022f510c6f21e104b2cf527,Kobieta,23,2021-09-06_19h18.48.859,rantool2,2021.1.4,Win32,120.0192031,6135e006383e6ea6c3d06a28,61364ceca9855f00b78c5ea9,"[""comma""]",0,[0.1779000000953488],16,0,16,0,1
,,,,,,,6022f510c6f21e104b2cf527,,,,,,6022f510c6f21e104b2cf527,Kobieta,23,2021-09-06_19h18.48.859,rantool2,2021.1.4,Win32,120.0192031,6135e006383e6ea6c3d06a28,61364ceca9855f00b78c5ea9,"[""period""]",0,[0.2702000000476801],17,0,17,0,1
,,,,,,,6022f510c6f21e104b2cf527,,,,,,6022f510c6f21e104b2cf527,Kobieta,23,2021-09-06_19h18.48.859,rantool2,2021.1.4,Win32,120.0192031,6135e006383e6ea6c3d06a28,61364ceca9855f00b78c5ea9,"[""period""]",0,[0.175099999904603],18,0,18,0,1
,,,,,,,6022f510c6f21e104b2cf527,,,,,,6022f510c6f21e104b2cf527,Kobieta,23,2021-09-06_19h18.48.859,rantool2,2021.1.4,Win32,120.0192031,6135e006383e6ea6c3d06a28,61364ceca9855f00b78c5ea9,"[""comma""]",0,[0.20890000009541154],19,0,19,0,1
,,,,,,,6022f510c6f21e104b2cf527,,,,,,6022f510c6f21e104b2cf527,Kobieta,23,2021-09-06_19h18.48.859,rantool2,2021.1.4,Win32,120.0192031,6135e006383e6ea6c3d06a28,61364ceca9855f00b78c5ea9,"[""comma""]",0,[0.21370000004765188],20,0,20,0,1
,,,,,,,6022f510c6f21e104b2cf527,,,,,,6022f510c6f21e104b2cf527,Kobieta,23,2021-09-06_19h18.48.859,rantool2,2021.1.4,Win32,120.0192031,6135e006383e6ea6c3d06a28,61364ceca9855f00b78c5ea9,"[""period""]",0,[0.2189999999999941],21,0,21,0,1
,,,,,,,6022f510c6f21e104b2cf527,,,,,,6022f510c6f21e104b2cf527,Kobieta,23,2021-09-06_19h18.48.859,rantool2,2021.1.4,Win32,120.0192031,6135e006383e6ea6c3d06a28,61364ceca9855f00b78c5ea9,"[""comma""]",0,[0.258599999904618],22,0,22,0,1
,,,,,,,6022f510c6f21e104b2cf527,,,,,,6022f510c6f21e104b2cf527,Kobieta,23,2021-09-06_19h18.48.859,rantool2,2021.1.4,Win32,120.0192031,6135e006383e6ea6c3d06a28,61364ceca9855f00b78c5ea9,"[""period""]",0,[0.25070000004768644],23,0,23,0,1
,,,,,,,6022f510c6f21e104b2cf527,,,,,,6022f510c6f21e104b2cf527,Kobieta,23,2021-09-06_19h18.48.859,rantool2,2021.1.4,Win32,120.0192031,6135e006383e6ea6c3d06a28,61364ceca9855f00b78c5ea9,"[""period""]",0,[0.393299999952319],24,0,24,0,1
,,,,,,,6022f510c6f21e104b2cf527,,,,,,6022f510c6f21e104b2cf527,Kobieta,23,2021-09-06_19h18.48.859,rantool2,2021.1.4,Win32,120.0192031,6135e006383e6ea6c3d06a28,61364ceca9855f00b78c5ea9,"[""period""]",0,[0.22550000000001091],25,0,25,0,1
,,,,,,,6022f510c6f21e104b2cf527,,,,,,6022f510c6f21e104b2cf527,Kobieta,23,2021-09-06_19h18.48.859,rantool2,2021.1.4,Win32,120.0192031,6135e006383e6ea6c3d06a28,61364ceca9855f00b78c5ea9,"[""comma""]",0,[0.24420000004772646],26,0,26,0,1
,,,,,,,6022f510c6f21e104b2cf527,,,,,,6022f510c6f21e104b2cf527,Kobieta,23,2021-09-06_19h18.48.859,rantool2,2021.1.4,Win32,120.0192031,6135e006383e6ea6c3d06a28,61364ceca9855f00b78c5ea9,"[""comma""]",0,[0.1872000000477101],27,0,27,0,1
,,,,,,,6022f510c6f21e104b2cf527,,,,,,6022f510c6f21e104b2cf527,Kobieta,23,2021-09-06_19h18.48.859,rantool2,2021.1.4,Win32,120.0192031,6135e006383e6ea6c3d06a28,61364ceca9855f00b78c5ea9,"[""comma""]",0,[0.23359999990464075],28,0,28,0,1
,,,,,,,6022f510c6f21e104b2cf527,,,,,,6022f510c6f21e104b2cf527,Kobieta,23,2021-09-06_19h18.48.859,rantool2,2021.1.4,Win32,120.0192031,6135e006383e6ea6c3d06a28,61364ceca9855f00b78c5ea9,"[""period""]",0,[0.24239999985695704],29,0,29,0,1
,,,,,,,6022f510c6f21e104b2cf527,,,,,,6022f510c6f21e104b2cf527,Kobieta,23,2021-09-06_19h18.48.859,rantool2,2021.1.4,Win32,120.0192031,6135e006383e6ea6c3d06a28,61364ceca9855f00b78c5ea9,"[""comma""]",0,[0.18429999995231583],30,0,30,0,1
,,,,,,,6022f510c6f21e104b2cf527,,,,,,6022f510c6f21e104b2cf527,Kobieta,23,2021-09-06_19h18.48.859,rantool2,2021.1.4,Win32,120.0192031,6135e006383e6ea6c3d06a28,61364ceca9855f00b78c5ea9,"[""period""]",0,[0.24379999995232993],31,0,31,0,1
,,,,,,,6022f510c6f21e104b2cf527,,,,,,6022f510c6f21e104b2cf527,Kobieta,23,2021-09-06_19h18.48.859,rantool2,2021.1.4,Win32,120.0192031,6135e006383e6ea6c3d06a28,61364ceca9855f00b78c5ea9,"[""comma""]",0,[0.22240000009537653],32,0,32,0,1
,,,,,,,6022f510c6f21e104b2cf527,,,,,,6022f510c6f21e104b2cf527,Kobieta,23,2021-09-06_19h18.48.859,rantool2,2021.1.4,Win32,120.0192031,6135e006383e6ea6c3d06a28,61364ceca9855f00b78c5ea9,"[""period""]",0,[0.2669999999999959],33,0,33,0,1
,,,,,,,6022f510c6f21e104b2cf527,,,,,,6022f510c6f21e104b2cf527,Kobieta,23,2021-09-06_19h18.48.859,rantool2,2021.1.4,Win32,120.0192031,6135e006383e6ea6c3d06a28,61364ceca9855f00b78c5ea9,"[""comma""]",0,[0.38729999995229036],34,0,34,0,1
,,,,,,,6022f510c6f21e104b2cf527,,,,,,6022f510c6f21e104b2cf527,Kobieta,23,2021-09-06_19h18.48.859,rantool2,2021.1.4,Win32,120.0192031,6135e006383e6ea6c3d06a28,61364ceca9855f00b78c5ea9,"[""comma""]",0,[0.32279999995233766],35,0,35,0,1
,,,,,,,6022f510c6f21e104b2cf527,,,,,,6022f510c6f21e104b2cf527,Kobieta,23,2021-09-06_19h18.48.859,rantool2,2021.1.4,Win32,120.0192031,6135e006383e6ea6c3d06a28,61364ceca9855f00b78c5ea9,"[""period""]",0,[0.2503999998569384],36,0,36,0,1
,,,,,,,6022f510c6f21e104b2cf527,,,,,,6022f510c6f21e104b2cf527,Kobieta,23,2021-09-06_19h18.48.859,rantool2,2021.1.4,Win32,120.0192031,6135e006383e6ea6c3d06a28,61364ceca9855f00b78c5ea9,"[""comma""]",0,[0.23779999995230128],37,0,37,0,1
,,,,,,,6022f510c6f21e104b2cf527,,,,,,6022f510c6f21e104b2cf527,Kobieta,23,2021-09-06_19h18.48.859,rantool2,2021.1.4,Win32,120.0192031,6135e006383e6ea6c3d06a28,61364ceca9855f00b78c5ea9,"[""period""]",0,[0.24719999980931107],38,0,38,0,1
,,,,,,,6022f510c6f21e104b2cf527,,,,,,6022f510c6f21e104b2cf527,Kobieta,23,2021-09-06_19h18.48.859,rantool2,2021.1.4,Win32,120.0192031,6135e006383e6ea6c3d06a28,61364ceca9855f00b78c5ea9,"[""comma""]",0,[0.22179999995228172],39,0,39,0,1
,,,,,,,6022f510c6f21e104b2cf527,,,,,,6022f510c6f21e104b2cf527,Kobieta,23,2021-09-06_19h18.48.859,rantool2,2021.1.4,Win32,120.0192031,6135e006383e6ea6c3d06a28,61364ceca9855f00b78c5ea9,"[""period""]",0,[0.21050000000002456],40,0,40,0,1
,,,,,,,6022f510c6f21e104b2cf527,,,,,,6022f510c6f21e104b2cf527,Kobieta,23,2021-09-06_19h18.48.859,rantool2,2021.1.4,Win32,120.0192031,6135e006383e6ea6c3d06a28,61364ceca9855f00b78c5ea9,"[""comma""]",0,[0.2389999999999759],41,0,41,0,1
,,,,,,,6022f510c6f21e104b2cf527,,,,,,6022f510c6f21e104b2cf527,Kobieta,23,2021-09-06_19h18.48.859,rantool2,2021.1.4,Win32,120.0192031,6135e006383e6ea6c3d06a28,61364ceca9855f00b78c5ea9,"[""period""]",0,[0.31760000014304524],42,0,42,0,1
,,,,,,,6022f510c6f21e104b2cf527,,,,,,6022f510c6f21e104b2cf527,Kobieta,23,2021-09-06_19h18.48.859,rantool2,2021.1.4,Win32,120.0192031,6135e006383e6ea6c3d06a28,61364ceca9855f00b78c5ea9,"[""comma""]",0,[0.42549999999999955],43,0,43,0,1
,,,,,,,6022f510c6f21e104b2cf527,,,,,,6022f510c6f21e104b2cf527,Kobieta,23,2021-09-06_19h18.48.859,rantool2,2021.1.4,Win32,120.0192031,6135e006383e6ea6c3d06a28,61364ceca9855f00b78c5ea9,"[""comma""]",0,[0.24590000009538926],44,0,44,0,1
,,,,,,,6022f510c6f21e104b2cf527,,,,,,6022f510c6f21e104b2cf527,Kobieta,23,2021-09-06_19h18.48.859,rantool2,2021.1.4,Win32,120.0192031,6135e006383e6ea6c3d06a28,61364ceca9855f00b78c5ea9,"[""comma""]",0,[0.467099999904633],45,0,45,0,1
,,,,,,,6022f510c6f21e104b2cf527,,,,,,6022f510c6f21e104b2cf527,Kobieta,23,2021-09-06_19h18.48.859,rantool2,2021.1.4,Win32,120.0192031,6135e006383e6ea6c3d06a28,61364ceca9855f00b78c5ea9,"[""period""]",0,[0.272599999904628],46,0,46,0,1
,,,,,,,6022f510c6f21e104b2cf527,,,,,,6022f510c6f21e104b2cf527,Kobieta,23,2021-09-06_19h18.48.859,rantool2,2021.1.4,Win32,120.0192031,6135e006383e6ea6c3d06a28,61364ceca9855f00b78c5ea9,"[""comma""]",0,[0.5115999999046039],47,0,47,0,1
,,,,,,,6022f510c6f21e104b2cf527,,,,,,6022f510c6f21e104b2cf527,Kobieta,23,2021-09-06_19h18.48.859,rantool2,2021.1.4,Win32,120.0192031,6135e006383e6ea6c3d06a28,61364ceca9855f00b78c5ea9,"[""comma""]",0,[0.3421000001430343],48,0,48,0,1
,,,,,,,6022f510c6f21e104b2cf527,,,,,,6022f510c6f21e104b2cf527,Kobieta,23,2021-09-06_19h18.48.859,rantool2,2021.1.4,Win32,120.0192031,6135e006383e6ea6c3d06a28,61364ceca9855f00b78c5ea9,"[""comma""]",0,[0.4672999999523313],49,0,49,0,1
,,,,,,,6022f510c6f21e104b2cf527,,,,,,6022f510c6f21e104b2cf527,Kobieta,23,2021-09-06_19h18.48.859,rantool2,2021.1.4,Win32,120.0192031,6135e006383e6ea6c3d06a28,61364ceca9855f00b78c5ea9,"[""period""]",0,[0.28770000004766416],50,0,50,0,1
,,,,,,,6022f510c6f21e104b2cf527,,,,,,6022f510c6f21e104b2cf527,Kobieta,23,2021-09-06_19h18.48.859,rantool2,2021.1.4,Win32,120.0192031,6135e006383e6ea6c3d06a28,61364ceca9855f00b78c5ea9,"[""period""]",0,[0.36910000014302113],51,0,51,0,1
,,,,,,,6022f510c6f21e104b2cf527,,,,,,6022f510c6f21e104b2cf527,Kobieta,23,2021-09-06_19h18.48.859,rantool2,2021.1.4,Win32,120.0192031,6135e006383e6ea6c3d06a28,61364ceca9855f00b78c5ea9,"[""comma""]",0,[0.39999999999997726],52,0,52,0,1
,,,,,,,6022f510c6f21e104b2cf527,,,,,,6022f510c6f21e104b2cf527,Kobieta,23,2021-09-06_19h18.48.859,rantool2,2021.1.4,Win32,120.0192031,6135e006383e6ea6c3d06a28,61364ceca9855f00b78c5ea9,"[""comma""]",0,[0.28779999995231265],53,0,53,0,1
,,,,,,,6022f510c6f21e104b2cf527,,,,,,6022f510c6f21e104b2cf527,Kobieta,23,2021-09-06_19h18.48.859,rantool2,2021.1.4,Win32,120.0192031,6135e006383e6ea6c3d06a28,61364ceca9855f00b78c5ea9,"[""comma""]",0,[0.3713000001907858],54,0,54,0,1
,,,,,,,6022f510c6f21e104b2cf527,,,,,,6022f510c6f21e104b2cf527,Kobieta,23,2021-09-06_19h18.48.859,rantool2,2021.1.4,Win32,120.0192031,6135e006383e6ea6c3d06a28,61364ceca9855f00b78c5ea9,"[""comma"",""period""]",0,"[0.9558000001907772,1.694200000047715]",55,0,55,0,1
,,,,,,,6022f510c6f21e104b2cf527,,,,,,6022f510c6f21e104b2cf527,Kobieta,23,2021-09-06_19h18.48.859,rantool2,2021.1.4,Win32,120.0192031,6135e006383e6ea6c3d06a28,61364ceca9855f00b78c5ea9,"[""period""]",0,[0.3005999999045912],56,0,56,0,1
,,,,,,,6022f510c6f21e104b2cf527,,,,,,6022f510c6f21e104b2cf527,Kobieta,23,2021-09-06_19h18.48.859,rantool2,2021.1.4,Win32,120.0192031,6135e006383e6ea6c3d06a28,61364ceca9855f00b78c5ea9,"[""comma""]",0,[0.21730000019078943],57,0,57,0,1
,,,,,,,6022f510c6f21e104b2cf527,,,,,,6022f510c6f21e104b2cf527,Kobieta,23,2021-09-06_19h18.48.859,rantool2,2021.1.4,Win32,120.0192031,6135e006383e6ea6c3d06a28,61364ceca9855f00b78c5ea9,"[""period""]",0,[0.24579999995228263],58,0,58,0,1
,,,,,,,6022f510c6f21e104b2cf527,,,,,,6022f510c6f21e104b2cf527,Kobieta,23,2021-09-06_19h18.48.859,rantool2,2021.1.4,Win32,120.0192031,6135e006383e6ea6c3d06a28,61364ceca9855f00b78c5ea9,"[""comma""]",0,[0.23520000004765507],59,0,59,0,1
,,,,,,,6022f510c6f21e104b2cf527,,,,,,6022f510c6f21e104b2cf527,Kobieta,23,2021-09-06_19h18.48.859,rantool2,2021.1.4,Win32,120.0192031,6135e006383e6ea6c3d06a28,61364ceca9855f00b78c5ea9,"[""period""]",0,[0.24239999985695704],60,0,60,0,1
,,,,,,,6022f510c6f21e104b2cf527,,,,,,6022f510c6f21e104b2cf527,Kobieta,23,2021-09-06_19h18.48.859,rantool2,2021.1.4,Win32,120.0192031,6135e006383e6ea6c3d06a28,61364ceca9855f00b78c5ea9,"[""comma""]",0,[0.2415999999046221],61,0,61,0,1
,,,,,,,6022f510c6f21e104b2cf527,,,,,,6022f510c6f21e104b2cf527,Kobieta,23,2021-09-06_19h18.48.859,rantool2,2021.1.4,Win32,120.0192031,6135e006383e6ea6c3d06a28,61364ceca9855f00b78c5ea9,"[""period""]",0,[0.2529000000953374],62,0,62,0,1
,,,,,,,6022f510c6f21e104b2cf527,,,,,,6022f510c6f21e104b2cf527,Kobieta,23,2021-09-06_19h18.48.859,rantool2,2021.1.4,Win32,120.0192031,6135e006383e6ea6c3d06a28,61364ceca9855f00b78c5ea9,"[""comma""]",0,[0.358799999952339],63,0,63,0,1
,,,,,,,6022f510c6f21e104b2cf527,,,,,,6022f510c6f21e104b2cf527,Kobieta,23,2021-09-06_19h18.48.859,rantool2,2021.1.4,Win32,120.0192031,6135e006383e6ea6c3d06a28,61364ceca9855f00b78c5ea9,"[""period""]",0,[0.47310000014306297],64,0,64,0,1
,,,,,,,6022f510c6f21e104b2cf527,,,,,,6022f510c6f21e104b2cf527,Kobieta,23,2021-09-06_19h18.48.859,rantool2,2021.1.4,Win32,120.0192031,6135e006383e6ea6c3d06a28,61364ceca9855f00b78c5ea9,"[""comma""]",0,[0.4925000000000068],65,0,65,0,1
,,,,,,,6022f510c6f21e104b2cf527,,,,,,6022f510c6f21e104b2cf527,Kobieta,23,2021-09-06_19h18.48.859,rantool2,2021.1.4,Win32,120.0192031,6135e006383e6ea6c3d06a28,61364ceca9855f00b78c5ea9,"[""period""]",0,[0.4105000000000132],66,0,66,0,1
,,,,,,,6022f510c6f21e104b2cf527,,,,,,6022f510c6f21e104b2cf527,Kobieta,23,2021-09-06_19h18.48.859,rantool2,2021.1.4,Win32,120.0192031,6135e006383e6ea6c3d06a28,61364ceca9855f00b78c5ea9,"[""comma""]",0,[0.41910000014308935],67,0,67,0,1
,,,,,,,6022f510c6f21e104b2cf527,,,,,,6022f510c6f21e104b2cf527,Kobieta,23,2021-09-06_19h18.48.859,rantool2,2021.1.4,Win32,120.0192031,6135e006383e6ea6c3d06a28,61364ceca9855f00b78c5ea9,"[""period""]",0,[0.28709999990468305],68,0,68,0,1
,,,,,,,6022f510c6f21e104b2cf527,,,,,,6022f510c6f21e104b2cf527,Kobieta,23,2021-09-06_19h18.48.859,rantool2,2021.1.4,Win32,120.0192031,6135e006383e6ea6c3d06a28,61364ceca9855f00b78c5ea9,"[""comma""]",0,[0.2041999998093047],69,0,69,0,1
,,,,,,,6022f510c6f21e104b2cf527,,,,,,6022f510c6f21e104b2cf527,Kobieta,23,2021-09-06_19h18.48.859,rantool2,2021.1.4,Win32,120.0192031,6135e006383e6ea6c3d06a28,61364ceca9855f00b78c5ea9,"[""period""]",0,[0.22540000009541927],70,0,70,0,1
,,,,,,,6022f510c6f21e104b2cf527,,,,,,6022f510c6f21e104b2cf527,Kobieta,23,2021-09-06_19h18.48.859,rantool2,2021.1.4,Win32,120.0192031,6135e006383e6ea6c3d06a28,61364ceca9855f00b78c5ea9,"[""period""]",0,[0.20829999995231674],71,0,71,0,1
,,,,,,,6022f510c6f21e104b2cf527,,,,,,6022f510c6f21e104b2cf527,Kobieta,23,2021-09-06_19h18.48.859,rantool2,2021.1.4,Win32,120.0192031,6135e006383e6ea6c3d06a28,61364ceca9855f00b78c5ea9,"[""period""]",0,[-0.016100000143012494],72,0,72,0,1
,,,,,,,6022f510c6f21e104b2cf527,,,,,,6022f510c6f21e104b2cf527,Kobieta,23,2021-09-06_19h18.48.859,rantool2,2021.1.4,Win32,120.0192031,6135e006383e6ea6c3d06a28,61364ceca9855f00b78c5ea9,"[""period""]",0,[0.18470000004771236],73,0,73,0,1
,,,,,,,6022f510c6f21e104b2cf527,,,,,,6022f510c6f21e104b2cf527,Kobieta,23,2021-09-06_19h18.48.859,rantool2,2021.1.4,Win32,120.0192031,6135e006383e6ea6c3d06a28,61364ceca9855f00b78c5ea9,"[""period""]",0,[0.19609999990461802],74,0,74,0,1
,,,,,,,6022f510c6f21e104b2cf527,,,,,,6022f510c6f21e104b2cf527,Kobieta,23,2021-09-06_19h18.48.859,rantool2,2021.1.4,Win32,120.0192031,6135e006383e6ea6c3d06a28,61364ceca9855f00b78c5ea9,"[""comma""]",0,[0.24989999985695022],75,0,75,0,1
,,,,,,,6022f510c6f21e104b2cf527,,,,,,6022f510c6f21e104b2cf527,Kobieta,23,2021-09-06_19h18.48.859,rantool2,2021.1.4,Win32,120.0192031,6135e006383e6ea6c3d06a28,61364ceca9855f00b78c5ea9,"[""comma""]",0,[0.1493999998569393],76,0,76,0,1
,,,,,,,6022f510c6f21e104b2cf527,,,,,,6022f510c6f21e104b2cf527,Kobieta,23,2021-09-06_19h18.48.859,rantool2,2021.1.4,Win32,120.0192031,6135e006383e6ea6c3d06a28,61364ceca9855f00b78c5ea9,"[""comma""]",0,[0.20039999985698387],77,0,77,0,1
,,,,,,,6022f510c6f21e104b2cf527,,,,,,6022f510c6f21e104b2cf527,Kobieta,23,2021-09-06_19h18.48.859,rantool2,2021.1.4,Win32,120.0192031,6135e006383e6ea6c3d06a28,61364ceca9855f00b78c5ea9,"[""period""]",0,[0.083500000000015],78,0,78,0,1
,,,,,,,6022f510c6f21e104b2cf527,,,,,,6022f510c6f21e104b2cf527,Kobieta,23,2021-09-06_19h18.48.859,rantool2,2021.1.4,Win32,120.0192031,6135e006383e6ea6c3d06a28,61364ceca9855f00b78c5ea9,"[""comma""]",0,[0.20100000000002183],79,0,79,0,1
,,,,,,,6022f510c6f21e104b2cf527,,,,,,6022f510c6f21e104b2cf527,Kobieta,23,2021-09-06_19h18.48.859,rantool2,2021.1.4,Win32,120.0192031,6135e006383e6ea6c3d06a28,61364ceca9855f00b78c5ea9,"[""period""]",0,[0.14219999980929288],80,0,80,0,1
,,,,,,,6022f510c6f21e104b2cf527,,,,,,6022f510c6f21e104b2cf527,Kobieta,23,2021-09-06_19h18.48.859,rantool2,2021.1.4,Win32,120.0192031,6135e006383e6ea6c3d06a28,61364ceca9855f00b78c5ea9,"[""comma""]",0,[0.19520000004769145],81,0,81,0,1
,,,,,,,6022f510c6f21e104b2cf527,,,,,,6022f510c6f21e104b2cf527,Kobieta,23,2021-09-06_19h18.48.859,rantool2,2021.1.4,Win32,120.0192031,6135e006383e6ea6c3d06a28,61364ceca9855f00b78c5ea9,"[""period""]",0,[0.20029999995233538],82,0,82,0,1
,,,,,,,6022f510c6f21e104b2cf527,,,,,,6022f510c6f21e104b2cf527,Kobieta,23,2021-09-06_19h18.48.859,rantool2,2021.1.4,Win32,120.0192031,6135e006383e6ea6c3d06a28,61364ceca9855f00b78c5ea9,"[""comma""]",0,[0.14229999995228582],83,0,83,0,1
,,,,,,,6022f510c6f21e104b2cf527,,,,,,6022f510c6f21e104b2cf527,Kobieta,23,2021-09-06_19h18.48.859,rantool2,2021.1.4,Win32,120.0192031,6135e006383e6ea6c3d06a28,61364ceca9855f00b78c5ea9,"[""period""]",0,[0.22540000009536243],84,0,84,0,1
,,,,,,,6022f510c6f21e104b2cf527,,,,,,6022f510c6f21e104b2cf527,Kobieta,23,2021-09-06_19h18.48.859,rantool2,2021.1.4,Win32,120.0192031,6135e006383e6ea6c3d06a28,61364ceca9855f00b78c5ea9,"[""comma""]",0,[0.20499999999998408],85,0,85,0,1
,,,,,,,6022f510c6f21e104b2cf527,,,,,,6022f510c6f21e104b2cf527,Kobieta,23,2021-09-06_19h18.48.859,rantool2,2021.1.4,Win32,120.0192031,6135e006383e6ea6c3d06a28,61364ceca9855f00b78c5ea9,"[""period""]",0,[0.2025000000000432],86,0,86,0,1
,,,,,,,6022f510c6f21e104b2cf527,,,,,,6022f510c6f21e104b2cf527,Kobieta,23,2021-09-06_19h18.48.859,rantool2,2021.1.4,Win32,120.0192031,6135e006383e6ea6c3d06a28,61364ceca9855f00b78c5ea9,"[""period""]",0,[0.24190000009537016],87,0,87,0,1
,,,,,,,6022f510c6f21e104b2cf527,,,,,,6022f510c6f21e104b2cf527,Kobieta,23,2021-09-06_19h18.48.859,rantool2,2021.1.4,Win32,120.0192031,6135e006383e6ea6c3d06a28,61364ceca9855f00b78c5ea9,"[""comma""]",0,[0.2259000000953506],88,0,88,0,1
,,,,,,,6022f510c6f21e104b2cf527,,,,,,6022f510c6f21e104b2cf527,Kobieta,23,2021-09-06_19h18.48.859,rantool2,2021.1.4,Win32,120.0192031,6135e006383e6ea6c3d06a28,61364ceca9855f00b78c5ea9,"[""period""]",0,[0.1975999999046394],89,0,89,0,1
,,,,,,,6022f510c6f21e104b2cf527,,,,,,6022f510c6f21e104b2cf527,Kobieta,23,2021-09-06_19h18.48.859,rantool2,2021.1.4,Win32,120.0192031,6135e006383e6ea6c3d06a28,61364ceca9855f00b78c5ea9,"[""comma""]",0,[0.25890000009536607],90,0,90,0,1
,,,,,,,6022f510c6f21e104b2cf527,,,,,,6022f510c6f21e104b2cf527,Kobieta,23,2021-09-06_19h18.48.859,rantool2,2021.1.4,Win32,120.0192031,6135e006383e6ea6c3d06a28,61364ceca9855f00b78c5ea9,"[""period""]",0,[0.22509999990461438],91,0,91,0,1
,,,,,,,6022f510c6f21e104b2cf527,,,,,,6022f510c6f21e104b2cf527,Kobieta,23,2021-09-06_19h18.48.859,rantool2,2021.1.4,Win32,120.0192031,6135e006383e6ea6c3d06a28,61364ceca9855f00b78c5ea9,"[""comma""]",0,[0.24189999985691202],92,0,92,0,1
,,,,,,,6022f510c6f21e104b2cf527,,,,,,6022f510c6f21e104b2cf527,Kobieta,23,2021-09-06_19h18.48.859,rantool2,2021.1.4,Win32,120.0192031,6135e006383e6ea6c3d06a28,61364ceca9855f00b78c5ea9,"[""period""]",0,[0.24330000019074305],93,0,93,0,1
,,,,,,,6022f510c6f21e104b2cf527,,,,,,6022f510c6f21e104b2cf527,Kobieta,23,2021-09-06_19h18.48.859,rantool2,2021.1.4,Win32,120.0192031,6135e006383e6ea6c3d06a28,61364ceca9855f00b78c5ea9,"[""period""]",0,[0.15099999999995362],94,0,94,0,1
,,,,,,,6022f510c6f21e104b2cf527,,,,,,6022f510c6f21e104b2cf527,Kobieta,23,2021-09-06_19h18.48.859,rantool2,2021.1.4,Win32,120.0192031,6135e006383e6ea6c3d06a28,61364ceca9855f00b78c5ea9,"[""comma""]",0,[0.20409999990459937],95,0,95,0,1
,,,,,,,6022f510c6f21e104b2cf527,,,,,,6022f510c6f21e104b2cf527,Kobieta,23,2021-09-06_19h18.48.859,rantool2,2021.1.4,Win32,120.0192031,6135e006383e6ea6c3d06a28,61364ceca9855f00b78c5ea9,"[""period""]",0,[0.07559999990462529],96,0,96,0,1
,,,,,,,6022f510c6f21e104b2cf527,,,,,,6022f510c6f21e104b2cf527,Kobieta,23,2021-09-06_19h18.48.859,rantool2,2021.1.4,Win32,120.0192031,6135e006383e6ea6c3d06a28,61364ceca9855f00b78c5ea9,"[""comma""]",0,[0.24239999985695704],97,0,97,0,1
,,,,,,,6022f510c6f21e104b2cf527,,,,,,6022f510c6f21e104b2cf527,Kobieta,23,2021-09-06_19h18.48.859,rantool2,2021.1.4,Win32,120.0192031,6135e006383e6ea6c3d06a28,61364ceca9855f00b78c5ea9,"[""period""]",0,[0.2202999999523172],98,0,98,0,1
,,,,,,,6022f510c6f21e104b2cf527,,,,,,6022f510c6f21e104b2cf527,Kobieta,23,2021-09-06_19h18.48.859,rantool2,2021.1.4,Win32,120.0192031,6135e006383e6ea6c3d06a28,61364ceca9855f00b78c5ea9,"[""comma""]",0,[0.2432999999522849],99,0,99,0,1
,,,,,,,6022f510c6f21e104b2cf527,,,,,,6022f510c6f21e104b2cf527,Kobieta,23,2021-09-06_19h18.48.859,rantool2,2021.1.4,Win32,120.0192031,6135e006383e6ea6c3d06a28,61364ceca9855f00b78c5ea9,"[""period""]",0,[0.2044999999999959],100,0,100,0,1
,,,,,,,6022f510c6f21e104b2cf527,,,,,,6022f510c6f21e104b2cf527,Kobieta,23,2021-09-06_19h18.48.859,rantool2,2021.1.4,Win32,120.0192031,6135e006383e6ea6c3d06a28,61364ceca9855f00b78c5ea9,"[""comma""]",0,[0.20199999999999818],101,0,101,0,1
,,,,,,,6022f510c6f21e104b2cf527,,,,,,6022f510c6f21e104b2cf527,Kobieta,23,2021-09-06_19h18.48.859,rantool2,2021.1.4,Win32,120.0192031,6135e006383e6ea6c3d06a28,61364ceca9855f00b78c5ea9,"[""period""]",0,[0.21100000000001273],102,0,102,0,1
,,,,,,,6022f510c6f21e104b2cf527,,,,,,6022f510c6f21e104b2cf527,Kobieta,23,2021-09-06_19h18.48.859,rantool2,2021.1.4,Win32,120.0192031,6135e006383e6ea6c3d06a28,61364ceca9855f00b78c5ea9,"[""comma""]",0,[0.22509999990461438],103,0,103,0,1
,,,,,,,6022f510c6f21e104b2cf527,,,,,,6022f510c6f21e104b2cf527,Kobieta,23,2021-09-06_19h18.48.859,rantool2,2021.1.4,Win32,120.0192031,6135e006383e6ea6c3d06a28,61364ceca9855f00b78c5ea9,"[""period""]",0,[0.1861999998092756],104,0,104,0,1
,,,,,,,6022f510c6f21e104b2cf527,,,,,,6022f510c6f21e104b2cf527,Kobieta,23,2021-09-06_19h18.48.859,rantool2,2021.1.4,Win32,120.0192031,6135e006383e6ea6c3d06a28,61364ceca9855f00b78c5ea9,"[""comma""]",0,[0.2672000000476942],105,0,105,0,1
,,,,,,,6022f510c6f21e104b2cf527,,,,,,6022f510c6f21e104b2cf527,Kobieta,23,2021-09-06_19h18.48.859,rantool2,2021.1.4,Win32,120.0192031,6135e006383e6ea6c3d06a28,61364ceca9855f00b78c5ea9,"[""period""]",0,[0.1968000001907626],106,0,106,0,1
,,,,,,,6022f510c6f21e104b2cf527,,,,,,6022f510c6f21e104b2cf527,Kobieta,23,2021-09-06_19h18.48.859,rantool2,2021.1.4,Win32,120.0192031,6135e006383e6ea6c3d06a28,61364ceca9855f00b78c5ea9,"[""comma""]",0,[0.2186000001430557],107,0,107,0,1
,,,,,,,6022f510c6f21e104b2cf527,,,,,,6022f510c6f21e104b2cf527,Kobieta,23,2021-09-06_19h18.48.859,rantool2,2021.1.4,Win32,120.0192031,6135e006383e6ea6c3d06a28,61364ceca9855f00b78c5ea9,"[""period""]",0,[0.2095000000000482],108,0,108,0,1
,,,,,,,6022f510c6f21e104b2cf527,,,,,,6022f510c6f21e104b2cf527,Kobieta,23,2021-09-06_19h18.48.859,rantool2,2021.1.4,Win32,120.0192031,6135e006383e6ea6c3d06a28,61364ceca9855f00b78c5ea9,"[""comma""]",0,[0.2088999998569534],109,0,109,0,1
,,,,,,,6022f510c6f21e104b2cf527,,,,,,6022f510c6f21e104b2cf527,Kobieta,23,2021-09-06_19h18.48.859,rantool2,2021.1.4,Win32,120.0192031,6135e006383e6ea6c3d06a28,61364ceca9855f00b78c5ea9,"[""period""]",0,[0.16729999995231992],110,0,110,0,1
,,,,,,,6022f510c6f21e104b2cf527,,,,,,6022f510c6f21e104b2cf527,Kobieta,23,2021-09-06_19h18.48.859,rantool2,2021.1.4,Win32,120.0192031,6135e006383e6ea6c3d06a28,61364ceca9855f00b78c5ea9,"[""comma""]",0,[0.23359999990464075],111,0,111,0,1
,,,,,,,6022f510c6f21e104b2cf527,,,,,,6022f510c6f21e104b2cf527,Kobieta,23,2021-09-06_19h18.48.859,rantool2,2021.1.4,Win32,120.0192031,6135e006383e6ea6c3d06a28,61364ceca9855f00b78c5ea9,"[""comma""]",0,[0.254299999952309],112,0,112,0,1
,,,,,,,6022f510c6f21e104b2cf527,,,,,,6022f510c6f21e104b2cf527,Kobieta,23,2021-09-06_19h18.48.859,rantool2,2021.1.4,Win32,120.0192031,6135e006383e6ea6c3d06a28,61364ceca9855f00b78c5ea9,"[""period""]",0,[0.25290000009539426],113,0,113,0,1
,,,,,,,6022f510c6f21e104b2cf527,,,,,,6022f510c6f21e104b2cf527,Kobieta,23,2021-09-06_19h18.48.859,rantool2,2021.1.4,Win32,120.0192031,6135e006383e6ea6c3d06a28,61364ceca9855f00b78c5ea9,"[""comma""]",0,[0.2757999999523122],114,0,114,0,1
,,,,,,,6022f510c6f21e104b2cf527,,,,,,6022f510c6f21e104b2cf527,Kobieta,23,2021-09-06_19h18.48.859,rantool2,2021.1.4,Win32,120.0192031,6135e006383e6ea6c3d06a28,61364ceca9855f00b78c5ea9,"[""comma""]",0,[0.3276999998092265],115,0,115,0,1
,,,,,,,6022f510c6f21e104b2cf527,,,,,,6022f510c6f21e104b2cf527,Kobieta,23,2021-09-06_19h18.48.859,rantool2,2021.1.4,Win32,120.0192031,6135e006383e6ea6c3d06a28,61364ceca9855f00b78c5ea9,"[""comma""]",0,[0.2961999998092324],116,0,116,0,1
,,,,,,,6022f510c6f21e104b2cf527,,,,,,6022f510c6f21e104b2cf527,Kobieta,23,2021-09-06_19h18.48.859,rantool2,2021.1.4,Win32,120.0192031,6135e006383e6ea6c3d06a28,61364ceca9855f00b78c5ea9,"[""period""]",0,[0.25109999990462484],117,0,117,0,1
,,,,,,,6022f510c6f21e104b2cf527,,,,,,6022f510c6f21e104b2cf527,Kobieta,23,2021-09-06_19h18.48.859,rantool2,2021.1.4,Win32,120.0192031,6135e006383e6ea6c3d06a28,61364ceca9855f00b78c5ea9,"[""comma""]",0,[0.359400000095377],118,0,118,0,1
,,,,,,,6022f510c6f21e104b2cf527,,,,,,6022f510c6f21e104b2cf527,Kobieta,23,2021-09-06_19h18.48.859,rantool2,2021.1.4,Win32,120.0192031,6135e006383e6ea6c3d06a28,61364ceca9855f00b78c5ea9,"[""period""]",0,[0.272599999904628],119,0,119,0,1
