key_resp_5.keys,key_resp_5.corr,key_resp_5.rt,trials.thisRepN,trials.thisTrialN,trials.thisN,trials.thisIndex,trials.ran,id*,Płeć*,Wiek*,date,expName,psychopyVersion,OS,frameRate,id,STUDY_ID,SESSION_ID,key_resp_7.keys,key_resp_7.rt,trials_2.thisRepN,trials_2.thisTrialN,trials_2.thisN,trials_2.thisIndex,trials_2.ran,series_0,series_1,acss_0,acss_1,comparison
"[""comma""]",0,[0.6909799999993993],0,0,0,0,1,60d23f408cd2fe8c8d46a3ec,Mężczyzna,21,2021-07-13_21h37.54.298,rantool2,2021.1.4,Win32,59.87665409,60d23f408cd2fe8c8d46a3ec,60d9d14f4a8a35a482e0d9bf,60edeb6dbf103288f2e57bc6,,,,,,,,,,,,
"[""period""]",0,[0.6480650000012247],1,0,1,0,1,60d23f408cd2fe8c8d46a3ec,Mężczyzna,21,2021-07-13_21h37.54.298,rantool2,2021.1.4,Win32,59.87665409,60d23f408cd2fe8c8d46a3ec,60d9d14f4a8a35a482e0d9bf,60edeb6dbf103288f2e57bc6,,,,,,,,,,,,
"[""period""]",0,[0.5999699999993027],2,0,2,0,1,60d23f408cd2fe8c8d46a3ec,Mężczyzna,21,2021-07-13_21h37.54.298,rantool2,2021.1.4,Win32,59.87665409,60d23f408cd2fe8c8d46a3ec,60d9d14f4a8a35a482e0d9bf,60edeb6dbf103288f2e57bc6,,,,,,,,,,,,
"[""comma""]",0,[0.39134999999805586],3,0,3,0,1,60d23f408cd2fe8c8d46a3ec,Mężczyzna,21,2021-07-13_21h37.54.298,rantool2,2021.1.4,Win32,59.87665409,60d23f408cd2fe8c8d46a3ec,60d9d14f4a8a35a482e0d9bf,60edeb6dbf103288f2e57bc6,,,,,,,,,,,,
"[""period""]",0,[0.4721750000026077],4,0,4,0,1,60d23f408cd2fe8c8d46a3ec,Mężczyzna,21,2021-07-13_21h37.54.298,rantool2,2021.1.4,Win32,59.87665409,60d23f408cd2fe8c8d46a3ec,60d9d14f4a8a35a482e0d9bf,60edeb6dbf103288f2e57bc6,,,,,,,,,,,,
"[""period""]",0,[0.3859699999993609],5,0,5,0,1,60d23f408cd2fe8c8d46a3ec,Mężczyzna,21,2021-07-13_21h37.54.298,rantool2,2021.1.4,Win32,59.87665409,60d23f408cd2fe8c8d46a3ec,60d9d14f4a8a35a482e0d9bf,60edeb6dbf103288f2e57bc6,,,,,,,,,,,,
"[""comma""]",0,[0.31796500000200467],6,0,6,0,1,60d23f408cd2fe8c8d46a3ec,Mężczyzna,21,2021-07-13_21h37.54.298,rantool2,2021.1.4,Win32,59.87665409,60d23f408cd2fe8c8d46a3ec,60d9d14f4a8a35a482e0d9bf,60edeb6dbf103288f2e57bc6,,,,,,,,,,,,
"[""comma""]",0,[0.3031599999994796],7,0,7,0,1,60d23f408cd2fe8c8d46a3ec,Mężczyzna,21,2021-07-13_21h37.54.298,rantool2,2021.1.4,Win32,59.87665409,60d23f408cd2fe8c8d46a3ec,60d9d14f4a8a35a482e0d9bf,60edeb6dbf103288f2e57bc6,,,,,,,,,,,,
"[""period""]",0,[0.2871149999991758],8,0,8,0,1,60d23f408cd2fe8c8d46a3ec,Mężczyzna,21,2021-07-13_21h37.54.298,rantool2,2021.1.4,Win32,59.87665409,60d23f408cd2fe8c8d46a3ec,60d9d14f4a8a35a482e0d9bf,60edeb6dbf103288f2e57bc6,,,,,,,,,,,,
"[""comma""]",0,[0.2707250000021304],9,0,9,0,1,60d23f408cd2fe8c8d46a3ec,Mężczyzna,21,2021-07-13_21h37.54.298,rantool2,2021.1.4,Win32,59.87665409,60d23f408cd2fe8c8d46a3ec,60d9d14f4a8a35a482e0d9bf,60edeb6dbf103288f2e57bc6,,,,,,,,,,,,
"[""period""]",0,[0.25649999999950523],10,0,10,0,1,60d23f408cd2fe8c8d46a3ec,Mężczyzna,21,2021-07-13_21h37.54.298,rantool2,2021.1.4,Win32,59.87665409,60d23f408cd2fe8c8d46a3ec,60d9d14f4a8a35a482e0d9bf,60edeb6dbf103288f2e57bc6,,,,,,,,,,,,
"[""comma""]",0,[0.26235499999893364],11,0,11,0,1,60d23f408cd2fe8c8d46a3ec,Mężczyzna,21,2021-07-13_21h37.54.298,rantool2,2021.1.4,Win32,59.87665409,60d23f408cd2fe8c8d46a3ec,60d9d14f4a8a35a482e0d9bf,60edeb6dbf103288f2e57bc6,,,,,,,,,,,,
"[""comma""]",0,[0.24844500000108383],12,0,12,0,1,60d23f408cd2fe8c8d46a3ec,Mężczyzna,21,2021-07-13_21h37.54.298,rantool2,2021.1.4,Win32,59.87665409,60d23f408cd2fe8c8d46a3ec,60d9d14f4a8a35a482e0d9bf,60edeb6dbf103288f2e57bc6,,,,,,,,,,,,
"[""period""]",0,[0.27109000000200467],13,0,13,0,1,60d23f408cd2fe8c8d46a3ec,Mężczyzna,21,2021-07-13_21h37.54.298,rantool2,2021.1.4,Win32,59.87665409,60d23f408cd2fe8c8d46a3ec,60d9d14f4a8a35a482e0d9bf,60edeb6dbf103288f2e57bc6,,,,,,,,,,,,
"[""comma""]",0,[0.25609999999869615],14,0,14,0,1,60d23f408cd2fe8c8d46a3ec,Mężczyzna,21,2021-07-13_21h37.54.298,rantool2,2021.1.4,Win32,59.87665409,60d23f408cd2fe8c8d46a3ec,60d9d14f4a8a35a482e0d9bf,60edeb6dbf103288f2e57bc6,,,,,,,,,,,,
"[""comma""]",0,[0.24023500000112108],15,0,15,0,1,60d23f408cd2fe8c8d46a3ec,Mężczyzna,21,2021-07-13_21h37.54.298,rantool2,2021.1.4,Win32,59.87665409,60d23f408cd2fe8c8d46a3ec,60d9d14f4a8a35a482e0d9bf,60edeb6dbf103288f2e57bc6,,,,,,,,,,,,
"[""comma""]",0,[0.25600500000291504],16,0,16,0,1,60d23f408cd2fe8c8d46a3ec,Mężczyzna,21,2021-07-13_21h37.54.298,rantool2,2021.1.4,Win32,59.87665409,60d23f408cd2fe8c8d46a3ec,60d9d14f4a8a35a482e0d9bf,60edeb6dbf103288f2e57bc6,,,,,,,,,,,,
"[""period""]",0,[0.016794999999547144],17,0,17,0,1,60d23f408cd2fe8c8d46a3ec,Mężczyzna,21,2021-07-13_21h37.54.298,rantool2,2021.1.4,Win32,59.87665409,60d23f408cd2fe8c8d46a3ec,60d9d14f4a8a35a482e0d9bf,60edeb6dbf103288f2e57bc6,,,,,,,,,,,,
"[""comma""]",0,[0.28791500000079395],18,0,18,0,1,60d23f408cd2fe8c8d46a3ec,Mężczyzna,21,2021-07-13_21h37.54.298,rantool2,2021.1.4,Win32,59.87665409,60d23f408cd2fe8c8d46a3ec,60d9d14f4a8a35a482e0d9bf,60edeb6dbf103288f2e57bc6,,,,,,,,,,,,
"[""period""]",0,[0.3362249999991036],19,0,19,0,1,60d23f408cd2fe8c8d46a3ec,Mężczyzna,21,2021-07-13_21h37.54.298,rantool2,2021.1.4,Win32,59.87665409,60d23f408cd2fe8c8d46a3ec,60d9d14f4a8a35a482e0d9bf,60edeb6dbf103288f2e57bc6,,,,,,,,,,,,
"[""period""]",0,[0.3199849999982689],20,0,20,0,1,60d23f408cd2fe8c8d46a3ec,Mężczyzna,21,2021-07-13_21h37.54.298,rantool2,2021.1.4,Win32,59.87665409,60d23f408cd2fe8c8d46a3ec,60d9d14f4a8a35a482e0d9bf,60edeb6dbf103288f2e57bc6,,,,,,,,,,,,
"[""period""]",0,[0.26851999999780674],21,0,21,0,1,60d23f408cd2fe8c8d46a3ec,Mężczyzna,21,2021-07-13_21h37.54.298,rantool2,2021.1.4,Win32,59.87665409,60d23f408cd2fe8c8d46a3ec,60d9d14f4a8a35a482e0d9bf,60edeb6dbf103288f2e57bc6,,,,,,,,,,,,
"[""period""]",0,[0.2245249999978114],22,0,22,0,1,60d23f408cd2fe8c8d46a3ec,Mężczyzna,21,2021-07-13_21h37.54.298,rantool2,2021.1.4,Win32,59.87665409,60d23f408cd2fe8c8d46a3ec,60d9d14f4a8a35a482e0d9bf,60edeb6dbf103288f2e57bc6,,,,,,,,,,,,
"[""comma""]",0,[0.3036400000019057],23,0,23,0,1,60d23f408cd2fe8c8d46a3ec,Mężczyzna,21,2021-07-13_21h37.54.298,rantool2,2021.1.4,Win32,59.87665409,60d23f408cd2fe8c8d46a3ec,60d9d14f4a8a35a482e0d9bf,60edeb6dbf103288f2e57bc6,,,,,,,,,,,,
"[""period""]",0,[0.5108300000028976],24,0,24,0,1,60d23f408cd2fe8c8d46a3ec,Mężczyzna,21,2021-07-13_21h37.54.298,rantool2,2021.1.4,Win32,59.87665409,60d23f408cd2fe8c8d46a3ec,60d9d14f4a8a35a482e0d9bf,60edeb6dbf103288f2e57bc6,,,,,,,,,,,,
"[""period""]",0,[0.43386499999905936],25,0,25,0,1,60d23f408cd2fe8c8d46a3ec,Mężczyzna,21,2021-07-13_21h37.54.298,rantool2,2021.1.4,Win32,59.87665409,60d23f408cd2fe8c8d46a3ec,60d9d14f4a8a35a482e0d9bf,60edeb6dbf103288f2e57bc6,,,,,,,,,,,,
"[""comma""]",0,[0.31920999999783817],26,0,26,0,1,60d23f408cd2fe8c8d46a3ec,Mężczyzna,21,2021-07-13_21h37.54.298,rantool2,2021.1.4,Win32,59.87665409,60d23f408cd2fe8c8d46a3ec,60d9d14f4a8a35a482e0d9bf,60edeb6dbf103288f2e57bc6,,,,,,,,,,,,
"[""period""]",0,[0.6166599999996834],27,0,27,0,1,60d23f408cd2fe8c8d46a3ec,Mężczyzna,21,2021-07-13_21h37.54.298,rantool2,2021.1.4,Win32,59.87665409,60d23f408cd2fe8c8d46a3ec,60d9d14f4a8a35a482e0d9bf,60edeb6dbf103288f2e57bc6,,,,,,,,,,,,
"[""period""]",0,[0.4162499999983993],28,0,28,0,1,60d23f408cd2fe8c8d46a3ec,Mężczyzna,21,2021-07-13_21h37.54.298,rantool2,2021.1.4,Win32,59.87665409,60d23f408cd2fe8c8d46a3ec,60d9d14f4a8a35a482e0d9bf,60edeb6dbf103288f2e57bc6,,,,,,,,,,,,
"[""period""]",0,[0.6237999999975727],29,0,29,0,1,60d23f408cd2fe8c8d46a3ec,Mężczyzna,21,2021-07-13_21h37.54.298,rantool2,2021.1.4,Win32,59.87665409,60d23f408cd2fe8c8d46a3ec,60d9d14f4a8a35a482e0d9bf,60edeb6dbf103288f2e57bc6,,,,,,,,,,,,
"[""period""]",0,[0.6718499999988126],30,0,30,0,1,60d23f408cd2fe8c8d46a3ec,Mężczyzna,21,2021-07-13_21h37.54.298,rantool2,2021.1.4,Win32,59.87665409,60d23f408cd2fe8c8d46a3ec,60d9d14f4a8a35a482e0d9bf,60edeb6dbf103288f2e57bc6,,,,,,,,,,,,
"[""period""]",0,[0.6562649999978021],31,0,31,0,1,60d23f408cd2fe8c8d46a3ec,Mężczyzna,21,2021-07-13_21h37.54.298,rantool2,2021.1.4,Win32,59.87665409,60d23f408cd2fe8c8d46a3ec,60d9d14f4a8a35a482e0d9bf,60edeb6dbf103288f2e57bc6,,,,,,,,,,,,
"[""comma""]",0,[0.44803999999930966],32,0,32,0,1,60d23f408cd2fe8c8d46a3ec,Mężczyzna,21,2021-07-13_21h37.54.298,rantool2,2021.1.4,Win32,59.87665409,60d23f408cd2fe8c8d46a3ec,60d9d14f4a8a35a482e0d9bf,60edeb6dbf103288f2e57bc6,,,,,,,,,,,,
"[""period""]",0,[0.3372749999980442],33,0,33,0,1,60d23f408cd2fe8c8d46a3ec,Mężczyzna,21,2021-07-13_21h37.54.298,rantool2,2021.1.4,Win32,59.87665409,60d23f408cd2fe8c8d46a3ec,60d9d14f4a8a35a482e0d9bf,60edeb6dbf103288f2e57bc6,,,,,,,,,,,,
"[""comma""]",0,[0.6711099999993166],34,0,34,0,1,60d23f408cd2fe8c8d46a3ec,Mężczyzna,21,2021-07-13_21h37.54.298,rantool2,2021.1.4,Win32,59.87665409,60d23f408cd2fe8c8d46a3ec,60d9d14f4a8a35a482e0d9bf,60edeb6dbf103288f2e57bc6,,,,,,,,,,,,
"[""comma""]",0,[0.6228899999987334],35,0,35,0,1,60d23f408cd2fe8c8d46a3ec,Mężczyzna,21,2021-07-13_21h37.54.298,rantool2,2021.1.4,Win32,59.87665409,60d23f408cd2fe8c8d46a3ec,60d9d14f4a8a35a482e0d9bf,60edeb6dbf103288f2e57bc6,,,,,,,,,,,,
"[""comma""]",0,[0.6017850000025646],36,0,36,0,1,60d23f408cd2fe8c8d46a3ec,Mężczyzna,21,2021-07-13_21h37.54.298,rantool2,2021.1.4,Win32,59.87665409,60d23f408cd2fe8c8d46a3ec,60d9d14f4a8a35a482e0d9bf,60edeb6dbf103288f2e57bc6,,,,,,,,,,,,
"[""period""]",0,[0.8496650000015507],37,0,37,0,1,60d23f408cd2fe8c8d46a3ec,Mężczyzna,21,2021-07-13_21h37.54.298,rantool2,2021.1.4,Win32,59.87665409,60d23f408cd2fe8c8d46a3ec,60d9d14f4a8a35a482e0d9bf,60edeb6dbf103288f2e57bc6,,,,,,,,,,,,
"[""comma""]",0,[0.7689700000009907],38,0,38,0,1,60d23f408cd2fe8c8d46a3ec,Mężczyzna,21,2021-07-13_21h37.54.298,rantool2,2021.1.4,Win32,59.87665409,60d23f408cd2fe8c8d46a3ec,60d9d14f4a8a35a482e0d9bf,60edeb6dbf103288f2e57bc6,,,,,,,,,,,,
"[""comma""]",0,[0.75030500000139],39,0,39,0,1,60d23f408cd2fe8c8d46a3ec,Mężczyzna,21,2021-07-13_21h37.54.298,rantool2,2021.1.4,Win32,59.87665409,60d23f408cd2fe8c8d46a3ec,60d9d14f4a8a35a482e0d9bf,60edeb6dbf103288f2e57bc6,,,,,,,,,,,,
"[""comma""]",0,[0.6728949999996985],40,0,40,0,1,60d23f408cd2fe8c8d46a3ec,Mężczyzna,21,2021-07-13_21h37.54.298,rantool2,2021.1.4,Win32,59.87665409,60d23f408cd2fe8c8d46a3ec,60d9d14f4a8a35a482e0d9bf,60edeb6dbf103288f2e57bc6,,,,,,,,,,,,
"[""comma""]",0,[0.4006550000012794],41,0,41,0,1,60d23f408cd2fe8c8d46a3ec,Mężczyzna,21,2021-07-13_21h37.54.298,rantool2,2021.1.4,Win32,59.87665409,60d23f408cd2fe8c8d46a3ec,60d9d14f4a8a35a482e0d9bf,60edeb6dbf103288f2e57bc6,,,,,,,,,,,,
"[""period""]",0,[0.6410199999991164],42,0,42,0,1,60d23f408cd2fe8c8d46a3ec,Mężczyzna,21,2021-07-13_21h37.54.298,rantool2,2021.1.4,Win32,59.87665409,60d23f408cd2fe8c8d46a3ec,60d9d14f4a8a35a482e0d9bf,60edeb6dbf103288f2e57bc6,,,,,,,,,,,,
"[""comma""]",0,[0.6868050000011863],43,0,43,0,1,60d23f408cd2fe8c8d46a3ec,Mężczyzna,21,2021-07-13_21h37.54.298,rantool2,2021.1.4,Win32,59.87665409,60d23f408cd2fe8c8d46a3ec,60d9d14f4a8a35a482e0d9bf,60edeb6dbf103288f2e57bc6,,,,,,,,,,,,
"[""period""]",0,[0.7052499999990687],44,0,44,0,1,60d23f408cd2fe8c8d46a3ec,Mężczyzna,21,2021-07-13_21h37.54.298,rantool2,2021.1.4,Win32,59.87665409,60d23f408cd2fe8c8d46a3ec,60d9d14f4a8a35a482e0d9bf,60edeb6dbf103288f2e57bc6,,,,,,,,,,,,
"[""comma""]",0,[0.6907749999991211],45,0,45,0,1,60d23f408cd2fe8c8d46a3ec,Mężczyzna,21,2021-07-13_21h37.54.298,rantool2,2021.1.4,Win32,59.87665409,60d23f408cd2fe8c8d46a3ec,60d9d14f4a8a35a482e0d9bf,60edeb6dbf103288f2e57bc6,,,,,,,,,,,,
"[""period""]",0,[0.6405049999993935],46,0,46,0,1,60d23f408cd2fe8c8d46a3ec,Mężczyzna,21,2021-07-13_21h37.54.298,rantool2,2021.1.4,Win32,59.87665409,60d23f408cd2fe8c8d46a3ec,60d9d14f4a8a35a482e0d9bf,60edeb6dbf103288f2e57bc6,,,,,,,,,,,,
"[""period""]",0,[0.659429999999702],47,0,47,0,1,60d23f408cd2fe8c8d46a3ec,Mężczyzna,21,2021-07-13_21h37.54.298,rantool2,2021.1.4,Win32,59.87665409,60d23f408cd2fe8c8d46a3ec,60d9d14f4a8a35a482e0d9bf,60edeb6dbf103288f2e57bc6,,,,,,,,,,,,
"[""period""]",0,[0.6347850000020117],48,0,48,0,1,60d23f408cd2fe8c8d46a3ec,Mężczyzna,21,2021-07-13_21h37.54.298,rantool2,2021.1.4,Win32,59.87665409,60d23f408cd2fe8c8d46a3ec,60d9d14f4a8a35a482e0d9bf,60edeb6dbf103288f2e57bc6,,,,,,,,,,,,
"[""comma""]",0,[0.5263400000003458],49,0,49,0,1,60d23f408cd2fe8c8d46a3ec,Mężczyzna,21,2021-07-13_21h37.54.298,rantool2,2021.1.4,Win32,59.87665409,60d23f408cd2fe8c8d46a3ec,60d9d14f4a8a35a482e0d9bf,60edeb6dbf103288f2e57bc6,,,,,,,,,,,,
"[""period""]",0,[0.609440000000177],50,0,50,0,1,60d23f408cd2fe8c8d46a3ec,Mężczyzna,21,2021-07-13_21h37.54.298,rantool2,2021.1.4,Win32,59.87665409,60d23f408cd2fe8c8d46a3ec,60d9d14f4a8a35a482e0d9bf,60edeb6dbf103288f2e57bc6,,,,,,,,,,,,
"[""period""]",0,[0.5610650000016904],51,0,51,0,1,60d23f408cd2fe8c8d46a3ec,Mężczyzna,21,2021-07-13_21h37.54.298,rantool2,2021.1.4,Win32,59.87665409,60d23f408cd2fe8c8d46a3ec,60d9d14f4a8a35a482e0d9bf,60edeb6dbf103288f2e57bc6,,,,,,,,,,,,
"[""comma""]",0,[0.45015500000226893],52,0,52,0,1,60d23f408cd2fe8c8d46a3ec,Mężczyzna,21,2021-07-13_21h37.54.298,rantool2,2021.1.4,Win32,59.87665409,60d23f408cd2fe8c8d46a3ec,60d9d14f4a8a35a482e0d9bf,60edeb6dbf103288f2e57bc6,,,,,,,,,,,,
"[""comma""]",0,[0.36845499999981257],53,0,53,0,1,60d23f408cd2fe8c8d46a3ec,Mężczyzna,21,2021-07-13_21h37.54.298,rantool2,2021.1.4,Win32,59.87665409,60d23f408cd2fe8c8d46a3ec,60d9d14f4a8a35a482e0d9bf,60edeb6dbf103288f2e57bc6,,,,,,,,,,,,
"[""comma""]",0,[0.545429999998305],54,0,54,0,1,60d23f408cd2fe8c8d46a3ec,Mężczyzna,21,2021-07-13_21h37.54.298,rantool2,2021.1.4,Win32,59.87665409,60d23f408cd2fe8c8d46a3ec,60d9d14f4a8a35a482e0d9bf,60edeb6dbf103288f2e57bc6,,,,,,,,,,,,
"[""comma""]",0,[0.30548499999713385],55,0,55,0,1,60d23f408cd2fe8c8d46a3ec,Mężczyzna,21,2021-07-13_21h37.54.298,rantool2,2021.1.4,Win32,59.87665409,60d23f408cd2fe8c8d46a3ec,60d9d14f4a8a35a482e0d9bf,60edeb6dbf103288f2e57bc6,,,,,,,,,,,,
"[""period""]",0,[0.3216949999987264],56,0,56,0,1,60d23f408cd2fe8c8d46a3ec,Mężczyzna,21,2021-07-13_21h37.54.298,rantool2,2021.1.4,Win32,59.87665409,60d23f408cd2fe8c8d46a3ec,60d9d14f4a8a35a482e0d9bf,60edeb6dbf103288f2e57bc6,,,,,,,,,,,,
"[""comma""]",0,[0.30569000000105007],57,0,57,0,1,60d23f408cd2fe8c8d46a3ec,Mężczyzna,21,2021-07-13_21h37.54.298,rantool2,2021.1.4,Win32,59.87665409,60d23f408cd2fe8c8d46a3ec,60d9d14f4a8a35a482e0d9bf,60edeb6dbf103288f2e57bc6,,,,,,,,,,,,
"[""period""]",0,[0.25270000000091386],58,0,58,0,1,60d23f408cd2fe8c8d46a3ec,Mężczyzna,21,2021-07-13_21h37.54.298,rantool2,2021.1.4,Win32,59.87665409,60d23f408cd2fe8c8d46a3ec,60d9d14f4a8a35a482e0d9bf,60edeb6dbf103288f2e57bc6,,,,,,,,,,,,
"[""period""]",0,[0.4078449999979057],59,0,59,0,1,60d23f408cd2fe8c8d46a3ec,Mężczyzna,21,2021-07-13_21h37.54.298,rantool2,2021.1.4,Win32,59.87665409,60d23f408cd2fe8c8d46a3ec,60d9d14f4a8a35a482e0d9bf,60edeb6dbf103288f2e57bc6,,,,,,,,,,,,
"[""period""]",0,[0.45720499999879394],60,0,60,0,1,60d23f408cd2fe8c8d46a3ec,Mężczyzna,21,2021-07-13_21h37.54.298,rantool2,2021.1.4,Win32,59.87665409,60d23f408cd2fe8c8d46a3ec,60d9d14f4a8a35a482e0d9bf,60edeb6dbf103288f2e57bc6,,,,,,,,,,,,
"[""comma""]",0,[0.3458649999993213],61,0,61,0,1,60d23f408cd2fe8c8d46a3ec,Mężczyzna,21,2021-07-13_21h37.54.298,rantool2,2021.1.4,Win32,59.87665409,60d23f408cd2fe8c8d46a3ec,60d9d14f4a8a35a482e0d9bf,60edeb6dbf103288f2e57bc6,,,,,,,,,,,,
"[""period""]",0,[0.3596250000009604],62,0,62,0,1,60d23f408cd2fe8c8d46a3ec,Mężczyzna,21,2021-07-13_21h37.54.298,rantool2,2021.1.4,Win32,59.87665409,60d23f408cd2fe8c8d46a3ec,60d9d14f4a8a35a482e0d9bf,60edeb6dbf103288f2e57bc6,,,,,,,,,,,,
"[""comma""]",0,[0.31389000000126543],63,0,63,0,1,60d23f408cd2fe8c8d46a3ec,Mężczyzna,21,2021-07-13_21h37.54.298,rantool2,2021.1.4,Win32,59.87665409,60d23f408cd2fe8c8d46a3ec,60d9d14f4a8a35a482e0d9bf,60edeb6dbf103288f2e57bc6,,,,,,,,,,,,
"[""period""]",0,[0.36115000000063446],64,0,64,0,1,60d23f408cd2fe8c8d46a3ec,Mężczyzna,21,2021-07-13_21h37.54.298,rantool2,2021.1.4,Win32,59.87665409,60d23f408cd2fe8c8d46a3ec,60d9d14f4a8a35a482e0d9bf,60edeb6dbf103288f2e57bc6,,,,,,,,,,,,
"[""comma""]",0,[0.281169999998383],65,0,65,0,1,60d23f408cd2fe8c8d46a3ec,Mężczyzna,21,2021-07-13_21h37.54.298,rantool2,2021.1.4,Win32,59.87665409,60d23f408cd2fe8c8d46a3ec,60d9d14f4a8a35a482e0d9bf,60edeb6dbf103288f2e57bc6,,,,,,,,,,,,
"[""comma""]",0,[0.29602000000159023],66,0,66,0,1,60d23f408cd2fe8c8d46a3ec,Mężczyzna,21,2021-07-13_21h37.54.298,rantool2,2021.1.4,Win32,59.87665409,60d23f408cd2fe8c8d46a3ec,60d9d14f4a8a35a482e0d9bf,60edeb6dbf103288f2e57bc6,,,,,,,,,,,,
"[""comma""]",0,[0.3136500000000524],67,0,67,0,1,60d23f408cd2fe8c8d46a3ec,Mężczyzna,21,2021-07-13_21h37.54.298,rantool2,2021.1.4,Win32,59.87665409,60d23f408cd2fe8c8d46a3ec,60d9d14f4a8a35a482e0d9bf,60edeb6dbf103288f2e57bc6,,,,,,,,,,,,
"[""period""]",0,[0.29883500000141794],68,0,68,0,1,60d23f408cd2fe8c8d46a3ec,Mężczyzna,21,2021-07-13_21h37.54.298,rantool2,2021.1.4,Win32,59.87665409,60d23f408cd2fe8c8d46a3ec,60d9d14f4a8a35a482e0d9bf,60edeb6dbf103288f2e57bc6,,,,,,,,,,,,
"[""period""]",0,[0.28346500000043306],69,0,69,0,1,60d23f408cd2fe8c8d46a3ec,Mężczyzna,21,2021-07-13_21h37.54.298,rantool2,2021.1.4,Win32,59.87665409,60d23f408cd2fe8c8d46a3ec,60d9d14f4a8a35a482e0d9bf,60edeb6dbf103288f2e57bc6,,,,,,,,,,,,
"[""period""]",0,[0.26648500000010245],70,0,70,0,1,60d23f408cd2fe8c8d46a3ec,Mężczyzna,21,2021-07-13_21h37.54.298,rantool2,2021.1.4,Win32,59.87665409,60d23f408cd2fe8c8d46a3ec,60d9d14f4a8a35a482e0d9bf,60edeb6dbf103288f2e57bc6,,,,,,,,,,,,
"[""period""]",0,[0.25002999999924214],71,0,71,0,1,60d23f408cd2fe8c8d46a3ec,Mężczyzna,21,2021-07-13_21h37.54.298,rantool2,2021.1.4,Win32,59.87665409,60d23f408cd2fe8c8d46a3ec,60d9d14f4a8a35a482e0d9bf,60edeb6dbf103288f2e57bc6,,,,,,,,,,,,
"[""period""]",0,[0.23277999999845633],72,0,72,0,1,60d23f408cd2fe8c8d46a3ec,Mężczyzna,21,2021-07-13_21h37.54.298,rantool2,2021.1.4,Win32,59.87665409,60d23f408cd2fe8c8d46a3ec,60d9d14f4a8a35a482e0d9bf,60edeb6dbf103288f2e57bc6,,,,,,,,,,,,
"[""period""]",0,[0.186520000002929],73,0,73,0,1,60d23f408cd2fe8c8d46a3ec,Mężczyzna,21,2021-07-13_21h37.54.298,rantool2,2021.1.4,Win32,59.87665409,60d23f408cd2fe8c8d46a3ec,60d9d14f4a8a35a482e0d9bf,60edeb6dbf103288f2e57bc6,,,,,,,,,,,,
"[""period""]",0,[0.29809500000197886],74,0,74,0,1,60d23f408cd2fe8c8d46a3ec,Mężczyzna,21,2021-07-13_21h37.54.298,rantool2,2021.1.4,Win32,59.87665409,60d23f408cd2fe8c8d46a3ec,60d9d14f4a8a35a482e0d9bf,60edeb6dbf103288f2e57bc6,,,,,,,,,,,,
"[""comma""]",0,[0.18344000000070082],75,0,75,0,1,60d23f408cd2fe8c8d46a3ec,Mężczyzna,21,2021-07-13_21h37.54.298,rantool2,2021.1.4,Win32,59.87665409,60d23f408cd2fe8c8d46a3ec,60d9d14f4a8a35a482e0d9bf,60edeb6dbf103288f2e57bc6,,,,,,,,,,,,
"[""period""]",0,[0.2021799999966447],76,0,76,0,1,60d23f408cd2fe8c8d46a3ec,Mężczyzna,21,2021-07-13_21h37.54.298,rantool2,2021.1.4,Win32,59.87665409,60d23f408cd2fe8c8d46a3ec,60d9d14f4a8a35a482e0d9bf,60edeb6dbf103288f2e57bc6,,,,,,,,,,,,
"[""comma""]",0,[0.21823500000016338],77,0,77,0,1,60d23f408cd2fe8c8d46a3ec,Mężczyzna,21,2021-07-13_21h37.54.298,rantool2,2021.1.4,Win32,59.87665409,60d23f408cd2fe8c8d46a3ec,60d9d14f4a8a35a482e0d9bf,60edeb6dbf103288f2e57bc6,,,,,,,,,,,,
"[""period""]",0,[0.23365999999805354],78,0,78,0,1,60d23f408cd2fe8c8d46a3ec,Mężczyzna,21,2021-07-13_21h37.54.298,rantool2,2021.1.4,Win32,59.87665409,60d23f408cd2fe8c8d46a3ec,60d9d14f4a8a35a482e0d9bf,60edeb6dbf103288f2e57bc6,,,,,,,,,,,,
"[""comma""]",0,[0.18412499999976717],79,0,79,0,1,60d23f408cd2fe8c8d46a3ec,Mężczyzna,21,2021-07-13_21h37.54.298,rantool2,2021.1.4,Win32,59.87665409,60d23f408cd2fe8c8d46a3ec,60d9d14f4a8a35a482e0d9bf,60edeb6dbf103288f2e57bc6,,,,,,,,,,,,
"[""comma""]",0,[0.1357449999995879],80,0,80,0,1,60d23f408cd2fe8c8d46a3ec,Mężczyzna,21,2021-07-13_21h37.54.298,rantool2,2021.1.4,Win32,59.87665409,60d23f408cd2fe8c8d46a3ec,60d9d14f4a8a35a482e0d9bf,60edeb6dbf103288f2e57bc6,,,,,,,,,,,,
"[""period""]",0,[-0.00821999999976697],81,0,81,0,1,60d23f408cd2fe8c8d46a3ec,Mężczyzna,21,2021-07-13_21h37.54.298,rantool2,2021.1.4,Win32,59.87665409,60d23f408cd2fe8c8d46a3ec,60d9d14f4a8a35a482e0d9bf,60edeb6dbf103288f2e57bc6,,,,,,,,,,,,
"[""comma""]",0,[0.328994999999793],82,0,82,0,1,60d23f408cd2fe8c8d46a3ec,Mężczyzna,21,2021-07-13_21h37.54.298,rantool2,2021.1.4,Win32,59.87665409,60d23f408cd2fe8c8d46a3ec,60d9d14f4a8a35a482e0d9bf,60edeb6dbf103288f2e57bc6,,,,,,,,,,,,
"[""period""]",0,[0.3771100000012666],83,0,83,0,1,60d23f408cd2fe8c8d46a3ec,Mężczyzna,21,2021-07-13_21h37.54.298,rantool2,2021.1.4,Win32,59.87665409,60d23f408cd2fe8c8d46a3ec,60d9d14f4a8a35a482e0d9bf,60edeb6dbf103288f2e57bc6,,,,,,,,,,,,
"[""comma""]",0,[0.29460500000277534],84,0,84,0,1,60d23f408cd2fe8c8d46a3ec,Mężczyzna,21,2021-07-13_21h37.54.298,rantool2,2021.1.4,Win32,59.87665409,60d23f408cd2fe8c8d46a3ec,60d9d14f4a8a35a482e0d9bf,60edeb6dbf103288f2e57bc6,,,,,,,,,,,,
"[""comma""]",0,[0.3757599999990475],85,0,85,0,1,60d23f408cd2fe8c8d46a3ec,Mężczyzna,21,2021-07-13_21h37.54.298,rantool2,2021.1.4,Win32,59.87665409,60d23f408cd2fe8c8d46a3ec,60d9d14f4a8a35a482e0d9bf,60edeb6dbf103288f2e57bc6,,,,,,,,,,,,
"[""comma""]",0,[0.3265499999979511],86,0,86,0,1,60d23f408cd2fe8c8d46a3ec,Mężczyzna,21,2021-07-13_21h37.54.298,rantool2,2021.1.4,Win32,59.87665409,60d23f408cd2fe8c8d46a3ec,60d9d14f4a8a35a482e0d9bf,60edeb6dbf103288f2e57bc6,,,,,,,,,,,,
"[""comma""]",0,[0.1522049999985029],87,0,87,0,1,60d23f408cd2fe8c8d46a3ec,Mężczyzna,21,2021-07-13_21h37.54.298,rantool2,2021.1.4,Win32,59.87665409,60d23f408cd2fe8c8d46a3ec,60d9d14f4a8a35a482e0d9bf,60edeb6dbf103288f2e57bc6,,,,,,,,,,,,
"[""period""]",0,[0.42542999999938047],88,0,88,0,1,60d23f408cd2fe8c8d46a3ec,Mężczyzna,21,2021-07-13_21h37.54.298,rantool2,2021.1.4,Win32,59.87665409,60d23f408cd2fe8c8d46a3ec,60d9d14f4a8a35a482e0d9bf,60edeb6dbf103288f2e57bc6,,,,,,,,,,,,
"[""comma""]",0,[0.34470000000146683],89,0,89,0,1,60d23f408cd2fe8c8d46a3ec,Mężczyzna,21,2021-07-13_21h37.54.298,rantool2,2021.1.4,Win32,59.87665409,60d23f408cd2fe8c8d46a3ec,60d9d14f4a8a35a482e0d9bf,60edeb6dbf103288f2e57bc6,,,,,,,,,,,,
"[""period""]",0,[0.2977499999979045],90,0,90,0,1,60d23f408cd2fe8c8d46a3ec,Mężczyzna,21,2021-07-13_21h37.54.298,rantool2,2021.1.4,Win32,59.87665409,60d23f408cd2fe8c8d46a3ec,60d9d14f4a8a35a482e0d9bf,60edeb6dbf103288f2e57bc6,,,,,,,,,,,,
"[""period""]",0,[0.28371500000145033],91,0,91,0,1,60d23f408cd2fe8c8d46a3ec,Mężczyzna,21,2021-07-13_21h37.54.298,rantool2,2021.1.4,Win32,59.87665409,60d23f408cd2fe8c8d46a3ec,60d9d14f4a8a35a482e0d9bf,60edeb6dbf103288f2e57bc6,,,,,,,,,,,,
"[""period""]",0,[0.30092499999949496],92,0,92,0,1,60d23f408cd2fe8c8d46a3ec,Mężczyzna,21,2021-07-13_21h37.54.298,rantool2,2021.1.4,Win32,59.87665409,60d23f408cd2fe8c8d46a3ec,60d9d14f4a8a35a482e0d9bf,60edeb6dbf103288f2e57bc6,,,,,,,,,,,,
"[""period""]",0,[0.25048500000053764],93,0,93,0,1,60d23f408cd2fe8c8d46a3ec,Mężczyzna,21,2021-07-13_21h37.54.298,rantool2,2021.1.4,Win32,59.87665409,60d23f408cd2fe8c8d46a3ec,60d9d14f4a8a35a482e0d9bf,60edeb6dbf103288f2e57bc6,,,,,,,,,,,,
"[""comma""]",0,[0.32894500000111293],94,0,94,0,1,60d23f408cd2fe8c8d46a3ec,Mężczyzna,21,2021-07-13_21h37.54.298,rantool2,2021.1.4,Win32,59.87665409,60d23f408cd2fe8c8d46a3ec,60d9d14f4a8a35a482e0d9bf,60edeb6dbf103288f2e57bc6,,,,,,,,,,,,
"[""period""]",0,[0.28431000000273343],95,0,95,0,1,60d23f408cd2fe8c8d46a3ec,Mężczyzna,21,2021-07-13_21h37.54.298,rantool2,2021.1.4,Win32,59.87665409,60d23f408cd2fe8c8d46a3ec,60d9d14f4a8a35a482e0d9bf,60edeb6dbf103288f2e57bc6,,,,,,,,,,,,
"[""period""]",0,[0.32823500000097283],96,0,96,0,1,60d23f408cd2fe8c8d46a3ec,Mężczyzna,21,2021-07-13_21h37.54.298,rantool2,2021.1.4,Win32,59.87665409,60d23f408cd2fe8c8d46a3ec,60d9d14f4a8a35a482e0d9bf,60edeb6dbf103288f2e57bc6,,,,,,,,,,,,
"[""period""]",0,[0.2506000000029758],97,0,97,0,1,60d23f408cd2fe8c8d46a3ec,Mężczyzna,21,2021-07-13_21h37.54.298,rantool2,2021.1.4,Win32,59.87665409,60d23f408cd2fe8c8d46a3ec,60d9d14f4a8a35a482e0d9bf,60edeb6dbf103288f2e57bc6,,,,,,,,,,,,
"[""period""]",0,[0.32927500000010923],98,0,98,0,1,60d23f408cd2fe8c8d46a3ec,Mężczyzna,21,2021-07-13_21h37.54.298,rantool2,2021.1.4,Win32,59.87665409,60d23f408cd2fe8c8d46a3ec,60d9d14f4a8a35a482e0d9bf,60edeb6dbf103288f2e57bc6,,,,,,,,,,,,
"[""comma""]",0,[0.3160850000022606],99,0,99,0,1,60d23f408cd2fe8c8d46a3ec,Mężczyzna,21,2021-07-13_21h37.54.298,rantool2,2021.1.4,Win32,59.87665409,60d23f408cd2fe8c8d46a3ec,60d9d14f4a8a35a482e0d9bf,60edeb6dbf103288f2e57bc6,,,,,,,,,,,,
"[""comma""]",0,[0.3014949999997043],100,0,100,0,1,60d23f408cd2fe8c8d46a3ec,Mężczyzna,21,2021-07-13_21h37.54.298,rantool2,2021.1.4,Win32,59.87665409,60d23f408cd2fe8c8d46a3ec,60d9d14f4a8a35a482e0d9bf,60edeb6dbf103288f2e57bc6,,,,,,,,,,,,
"[""period""]",0,[0.3112600000022212],101,0,101,0,1,60d23f408cd2fe8c8d46a3ec,Mężczyzna,21,2021-07-13_21h37.54.298,rantool2,2021.1.4,Win32,59.87665409,60d23f408cd2fe8c8d46a3ec,60d9d14f4a8a35a482e0d9bf,60edeb6dbf103288f2e57bc6,,,,,,,,,,,,
"[""period""]",0,[0.3923149999972111],102,0,102,0,1,60d23f408cd2fe8c8d46a3ec,Mężczyzna,21,2021-07-13_21h37.54.298,rantool2,2021.1.4,Win32,59.87665409,60d23f408cd2fe8c8d46a3ec,60d9d14f4a8a35a482e0d9bf,60edeb6dbf103288f2e57bc6,,,,,,,,,,,,
"[""period""]",0,[0.34455499999961603],103,0,103,0,1,60d23f408cd2fe8c8d46a3ec,Mężczyzna,21,2021-07-13_21h37.54.298,rantool2,2021.1.4,Win32,59.87665409,60d23f408cd2fe8c8d46a3ec,60d9d14f4a8a35a482e0d9bf,60edeb6dbf103288f2e57bc6,,,,,,,,,,,,
"[""period""]",0,[0.3598700000002282],104,0,104,0,1,60d23f408cd2fe8c8d46a3ec,Mężczyzna,21,2021-07-13_21h37.54.298,rantool2,2021.1.4,Win32,59.87665409,60d23f408cd2fe8c8d46a3ec,60d9d14f4a8a35a482e0d9bf,60edeb6dbf103288f2e57bc6,,,,,,,,,,,,
"[""comma""]",0,[0.28683500000255435],105,0,105,0,1,60d23f408cd2fe8c8d46a3ec,Mężczyzna,21,2021-07-13_21h37.54.298,rantool2,2021.1.4,Win32,59.87665409,60d23f408cd2fe8c8d46a3ec,60d9d14f4a8a35a482e0d9bf,60edeb6dbf103288f2e57bc6,,,,,,,,,,,,
"[""period""]",0,[0.39327499999848214],106,0,106,0,1,60d23f408cd2fe8c8d46a3ec,Mężczyzna,21,2021-07-13_21h37.54.298,rantool2,2021.1.4,Win32,59.87665409,60d23f408cd2fe8c8d46a3ec,60d9d14f4a8a35a482e0d9bf,60edeb6dbf103288f2e57bc6,,,,,,,,,,,,
"[""comma""]",0,[0.37656499999866355],107,0,107,0,1,60d23f408cd2fe8c8d46a3ec,Mężczyzna,21,2021-07-13_21h37.54.298,rantool2,2021.1.4,Win32,59.87665409,60d23f408cd2fe8c8d46a3ec,60d9d14f4a8a35a482e0d9bf,60edeb6dbf103288f2e57bc6,,,,,,,,,,,,
"[""comma""]",0,[0.39208999999749494],108,0,108,0,1,60d23f408cd2fe8c8d46a3ec,Mężczyzna,21,2021-07-13_21h37.54.298,rantool2,2021.1.4,Win32,59.87665409,60d23f408cd2fe8c8d46a3ec,60d9d14f4a8a35a482e0d9bf,60edeb6dbf103288f2e57bc6,,,,,,,,,,,,
"[""comma""]",0,[0.4405899999983376],109,0,109,0,1,60d23f408cd2fe8c8d46a3ec,Mężczyzna,21,2021-07-13_21h37.54.298,rantool2,2021.1.4,Win32,59.87665409,60d23f408cd2fe8c8d46a3ec,60d9d14f4a8a35a482e0d9bf,60edeb6dbf103288f2e57bc6,,,,,,,,,,,,
"[""comma""]",0,[0.4252950000010287],110,0,110,0,1,60d23f408cd2fe8c8d46a3ec,Mężczyzna,21,2021-07-13_21h37.54.298,rantool2,2021.1.4,Win32,59.87665409,60d23f408cd2fe8c8d46a3ec,60d9d14f4a8a35a482e0d9bf,60edeb6dbf103288f2e57bc6,,,,,,,,,,,,
"[""comma""]",0,[0.3140999999995415],111,0,111,0,1,60d23f408cd2fe8c8d46a3ec,Mężczyzna,21,2021-07-13_21h37.54.298,rantool2,2021.1.4,Win32,59.87665409,60d23f408cd2fe8c8d46a3ec,60d9d14f4a8a35a482e0d9bf,60edeb6dbf103288f2e57bc6,,,,,,,,,,,,
"[""period""]",0,[0.2998950000001628],112,0,112,0,1,60d23f408cd2fe8c8d46a3ec,Mężczyzna,21,2021-07-13_21h37.54.298,rantool2,2021.1.4,Win32,59.87665409,60d23f408cd2fe8c8d46a3ec,60d9d14f4a8a35a482e0d9bf,60edeb6dbf103288f2e57bc6,,,,,,,,,,,,
"[""comma""]",0,[0.3769500000016137],113,0,113,0,1,60d23f408cd2fe8c8d46a3ec,Mężczyzna,21,2021-07-13_21h37.54.298,rantool2,2021.1.4,Win32,59.87665409,60d23f408cd2fe8c8d46a3ec,60d9d14f4a8a35a482e0d9bf,60edeb6dbf103288f2e57bc6,,,,,,,,,,,,
"[""period""]",0,[0.4248700000025565],114,0,114,0,1,60d23f408cd2fe8c8d46a3ec,Mężczyzna,21,2021-07-13_21h37.54.298,rantool2,2021.1.4,Win32,59.87665409,60d23f408cd2fe8c8d46a3ec,60d9d14f4a8a35a482e0d9bf,60edeb6dbf103288f2e57bc6,,,,,,,,,,,,
"[""comma""]",0,[0.5702550000024189],115,0,115,0,1,60d23f408cd2fe8c8d46a3ec,Mężczyzna,21,2021-07-13_21h37.54.298,rantool2,2021.1.4,Win32,59.87665409,60d23f408cd2fe8c8d46a3ec,60d9d14f4a8a35a482e0d9bf,60edeb6dbf103288f2e57bc6,,,,,,,,,,,,
"[""period""]",0,[0.6138549999996599],116,0,116,0,1,60d23f408cd2fe8c8d46a3ec,Mężczyzna,21,2021-07-13_21h37.54.298,rantool2,2021.1.4,Win32,59.87665409,60d23f408cd2fe8c8d46a3ec,60d9d14f4a8a35a482e0d9bf,60edeb6dbf103288f2e57bc6,,,,,,,,,,,,
"[""comma""]",0,[0.3779299999987984],117,0,117,0,1,60d23f408cd2fe8c8d46a3ec,Mężczyzna,21,2021-07-13_21h37.54.298,rantool2,2021.1.4,Win32,59.87665409,60d23f408cd2fe8c8d46a3ec,60d9d14f4a8a35a482e0d9bf,60edeb6dbf103288f2e57bc6,,,,,,,,,,,,
"[""period""]",0,[0.4333950000000186],118,0,118,0,1,60d23f408cd2fe8c8d46a3ec,Mężczyzna,21,2021-07-13_21h37.54.298,rantool2,2021.1.4,Win32,59.87665409,60d23f408cd2fe8c8d46a3ec,60d9d14f4a8a35a482e0d9bf,60edeb6dbf103288f2e57bc6,,,,,,,,,,,,
"[""period""]",0,[0.38729500000044936],119,0,119,0,1,60d23f408cd2fe8c8d46a3ec,Mężczyzna,21,2021-07-13_21h37.54.298,rantool2,2021.1.4,Win32,59.87665409,60d23f408cd2fe8c8d46a3ec,60d9d14f4a8a35a482e0d9bf,60edeb6dbf103288f2e57bc6,,,,,,,,,,,,
,,,,,,,,60d23f408cd2fe8c8d46a3ec,Mężczyzna,21,2021-07-13_21h37.54.298,rantool2,2021.1.4,Win32,59.87665409,60d23f408cd2fe8c8d46a3ec,60d9d14f4a8a35a482e0d9bf,60edeb6dbf103288f2e57bc6,j,1.170645,0,0,0,22,1,ORORROO,ORORROR,22.02732763,21.57657071,series_0
,,,,,,,,60d23f408cd2fe8c8d46a3ec,Mężczyzna,21,2021-07-13_21h37.54.298,rantool2,2021.1.4,Win32,59.87665409,60d23f408cd2fe8c8d46a3ec,60d9d14f4a8a35a482e0d9bf,60edeb6dbf103288f2e57bc6,f,1.30593,0,1,1,39,1,ROORRRO,ROORRRR,21.82425538,21.38562617,series_0
,,,,,,,,60d23f408cd2fe8c8d46a3ec,Mężczyzna,21,2021-07-13_21h37.54.298,rantool2,2021.1.4,Win32,59.87665409,60d23f408cd2fe8c8d46a3ec,60d9d14f4a8a35a482e0d9bf,60edeb6dbf103288f2e57bc6,j,1.75229,0,2,2,36,1,ROOROOO,ROOROOR,21.07991943,20.9984461,series_0
,,,,,,,,60d23f408cd2fe8c8d46a3ec,Mężczyzna,21,2021-07-13_21h37.54.298,rantool2,2021.1.4,Win32,59.87665409,60d23f408cd2fe8c8d46a3ec,60d9d14f4a8a35a482e0d9bf,60edeb6dbf103288f2e57bc6,j,1.42479,0,3,3,5,1,OOORORO,OOORORR,20.87963819,21.9921709,series_1
,,,,,,,,60d23f408cd2fe8c8d46a3ec,Mężczyzna,21,2021-07-13_21h37.54.298,rantool2,2021.1.4,Win32,59.87665409,60d23f408cd2fe8c8d46a3ec,60d9d14f4a8a35a482e0d9bf,60edeb6dbf103288f2e57bc6,f,1.817115,0,4,4,13,1,OORRORO,OORRORR,21.66733484,22.11181017,series_1
,,,,,,,,60d23f408cd2fe8c8d46a3ec,Mężczyzna,21,2021-07-13_21h37.54.298,rantool2,2021.1.4,Win32,59.87665409,60d23f408cd2fe8c8d46a3ec,60d9d14f4a8a35a482e0d9bf,60edeb6dbf103288f2e57bc6,j,1.548525,0,5,5,56,1,RRROOOO,RRROOOR,21.6194508,22.31681875,series_1
,,,,,,,,60d23f408cd2fe8c8d46a3ec,Mężczyzna,21,2021-07-13_21h37.54.298,rantool2,2021.1.4,Win32,59.87665409,60d23f408cd2fe8c8d46a3ec,60d9d14f4a8a35a482e0d9bf,60edeb6dbf103288f2e57bc6,j,1.487175,0,6,6,29,1,ORRRORO,ORRRORR,22.00300695,22.12173012,series_1
,,,,,,,,60d23f408cd2fe8c8d46a3ec,Mężczyzna,21,2021-07-13_21h37.54.298,rantool2,2021.1.4,Win32,59.87665409,60d23f408cd2fe8c8d46a3ec,60d9d14f4a8a35a482e0d9bf,60edeb6dbf103288f2e57bc6,j,1.27039,0,7,7,14,1,OORRROO,OORRROR,22.24142883,22.16977179,series_0
,,,,,,,,60d23f408cd2fe8c8d46a3ec,Mężczyzna,21,2021-07-13_21h37.54.298,rantool2,2021.1.4,Win32,59.87665409,60d23f408cd2fe8c8d46a3ec,60d9d14f4a8a35a482e0d9bf,60edeb6dbf103288f2e57bc6,j,1.51971,0,8,8,61,1,RRRRORO,RRRRORR,21.81333602,21.17347734,series_0
,,,,,,,,60d23f408cd2fe8c8d46a3ec,Mężczyzna,21,2021-07-13_21h37.54.298,rantool2,2021.1.4,Win32,59.87665409,60d23f408cd2fe8c8d46a3ec,60d9d14f4a8a35a482e0d9bf,60edeb6dbf103288f2e57bc6,f,1.58599,0,9,9,42,1,ROROROO,ROROROR,20.39515459,19.8361834,series_0
,,,,,,,,60d23f408cd2fe8c8d46a3ec,Mężczyzna,21,2021-07-13_21h37.54.298,rantool2,2021.1.4,Win32,59.87665409,60d23f408cd2fe8c8d46a3ec,60d9d14f4a8a35a482e0d9bf,60edeb6dbf103288f2e57bc6,f,1.55307,0,10,10,33,1,ROOOORO,ROOOORR,20.83779602,22.03072203,series_1
,,,,,,,,60d23f408cd2fe8c8d46a3ec,Mężczyzna,21,2021-07-13_21h37.54.298,rantool2,2021.1.4,Win32,59.87665409,60d23f408cd2fe8c8d46a3ec,60d9d14f4a8a35a482e0d9bf,60edeb6dbf103288f2e57bc6,f,1.555245,0,11,11,46,1,RORRROO,RORRROR,22.00300695,21.24781509,series_0
,,,,,,,,60d23f408cd2fe8c8d46a3ec,Mężczyzna,21,2021-07-13_21h37.54.298,rantool2,2021.1.4,Win32,59.87665409,60d23f408cd2fe8c8d46a3ec,60d9d14f4a8a35a482e0d9bf,60edeb6dbf103288f2e57bc6,f,1.268945,0,12,12,47,1,RORRRRO,RORRRRR,21.81333602,21.02936224,series_0
,,,,,,,,60d23f408cd2fe8c8d46a3ec,Mężczyzna,21,2021-07-13_21h37.54.298,rantool2,2021.1.4,Win32,59.87665409,60d23f408cd2fe8c8d46a3ec,60d9d14f4a8a35a482e0d9bf,60edeb6dbf103288f2e57bc6,j,1.457575,0,13,13,32,1,ROOOOOO,ROOOOOR,19.92253567,21.27974287,series_1
,,,,,,,,60d23f408cd2fe8c8d46a3ec,Mężczyzna,21,2021-07-13_21h37.54.298,rantool2,2021.1.4,Win32,59.87665409,60d23f408cd2fe8c8d46a3ec,60d9d14f4a8a35a482e0d9bf,60edeb6dbf103288f2e57bc6,f,1.558725,0,14,14,15,1,OORRRRO,OORRRRR,22.10108823,21.74922619,series_0
,,,,,,,,60d23f408cd2fe8c8d46a3ec,Mężczyzna,21,2021-07-13_21h37.54.298,rantool2,2021.1.4,Win32,59.87665409,60d23f408cd2fe8c8d46a3ec,60d9d14f4a8a35a482e0d9bf,60edeb6dbf103288f2e57bc6,j,1.499805,0,15,15,27,1,ORRORRO,ORRORRR,21.55250791,22.2428857,series_1
,,,,,,,,60d23f408cd2fe8c8d46a3ec,Mężczyzna,21,2021-07-13_21h37.54.298,rantool2,2021.1.4,Win32,59.87665409,60d23f408cd2fe8c8d46a3ec,60d9d14f4a8a35a482e0d9bf,60edeb6dbf103288f2e57bc6,j,1.520515,0,16,16,54,1,RRORROO,RRORROR,21.55250791,20.9984461,series_0
,,,,,,,,60d23f408cd2fe8c8d46a3ec,Mężczyzna,21,2021-07-13_21h37.54.298,rantool2,2021.1.4,Win32,59.87665409,60d23f408cd2fe8c8d46a3ec,60d9d14f4a8a35a482e0d9bf,60edeb6dbf103288f2e57bc6,j,1.57958,0,17,17,57,1,RRROORO,RRROORR,21.82425538,22.07102821,series_1
,,,,,,,,60d23f408cd2fe8c8d46a3ec,Mężczyzna,21,2021-07-13_21h37.54.298,rantool2,2021.1.4,Win32,59.87665409,60d23f408cd2fe8c8d46a3ec,60d9d14f4a8a35a482e0d9bf,60edeb6dbf103288f2e57bc6,f,1.323935,0,18,18,18,1,OROOROO,OROOROR,20.84860893,21.22513037,series_1
,,,,,,,,60d23f408cd2fe8c8d46a3ec,Mężczyzna,21,2021-07-13_21h37.54.298,rantool2,2021.1.4,Win32,59.87665409,60d23f408cd2fe8c8d46a3ec,60d9d14f4a8a35a482e0d9bf,60edeb6dbf103288f2e57bc6,f,1.432705,0,19,19,17,1,OROOORO,OROOORR,21.03750787,22.12173012,series_1
,,,,,,,,60d23f408cd2fe8c8d46a3ec,Mężczyzna,21,2021-07-13_21h37.54.298,rantool2,2021.1.4,Win32,59.87665409,60d23f408cd2fe8c8d46a3ec,60d9d14f4a8a35a482e0d9bf,60edeb6dbf103288f2e57bc6,f,1.359685,0,20,20,0,1,OOOOOOO,OOOOOOR,18.52739004,19.62521613,series_1
,,,,,,,,60d23f408cd2fe8c8d46a3ec,Mężczyzna,21,2021-07-13_21h37.54.298,rantool2,2021.1.4,Win32,59.87665409,60d23f408cd2fe8c8d46a3ec,60d9d14f4a8a35a482e0d9bf,60edeb6dbf103288f2e57bc6,f,1.624775,0,21,21,19,1,OROORRO,OROORRR,21.73568164,22.11181017,series_1
,,,,,,,,60d23f408cd2fe8c8d46a3ec,Mężczyzna,21,2021-07-13_21h37.54.298,rantool2,2021.1.4,Win32,59.87665409,60d23f408cd2fe8c8d46a3ec,60d9d14f4a8a35a482e0d9bf,60edeb6dbf103288f2e57bc6,j,1.205475,0,22,22,4,1,OOOROOO,OOOROOR,19.91402015,21.21223021,series_1
,,,,,,,,60d23f408cd2fe8c8d46a3ec,Mężczyzna,21,2021-07-13_21h37.54.298,rantool2,2021.1.4,Win32,59.87665409,60d23f408cd2fe8c8d46a3ec,60d9d14f4a8a35a482e0d9bf,60edeb6dbf103288f2e57bc6,j,1.68643,0,23,23,60,1,RRRROOO,RRRROOR,22.10108823,22.15934078,series_1
,,,,,,,,60d23f408cd2fe8c8d46a3ec,Mężczyzna,21,2021-07-13_21h37.54.298,rantool2,2021.1.4,Win32,59.87665409,60d23f408cd2fe8c8d46a3ec,60d9d14f4a8a35a482e0d9bf,60edeb6dbf103288f2e57bc6,f,1.49147,0,24,24,38,1,ROORROO,ROORROR,21.79500819,21.36812781,series_0
,,,,,,,,60d23f408cd2fe8c8d46a3ec,Mężczyzna,21,2021-07-13_21h37.54.298,rantool2,2021.1.4,Win32,59.87665409,60d23f408cd2fe8c8d46a3ec,60d9d14f4a8a35a482e0d9bf,60edeb6dbf103288f2e57bc6,j,1.333805,0,25,25,35,1,ROOORRO,ROOORRR,21.76276513,22.16977179,series_1
,,,,,,,,60d23f408cd2fe8c8d46a3ec,Mężczyzna,21,2021-07-13_21h37.54.298,rantool2,2021.1.4,Win32,59.87665409,60d23f408cd2fe8c8d46a3ec,60d9d14f4a8a35a482e0d9bf,60edeb6dbf103288f2e57bc6,f,1.649975,0,26,26,7,1,OOORRRO,OOORRRR,21.6194508,21.899017,series_1
,,,,,,,,60d23f408cd2fe8c8d46a3ec,Mężczyzna,21,2021-07-13_21h37.54.298,rantool2,2021.1.4,Win32,59.87665409,60d23f408cd2fe8c8d46a3ec,60d9d14f4a8a35a482e0d9bf,60edeb6dbf103288f2e57bc6,f,1.80647,0,27,27,28,1,ORRROOO,ORRROOR,22.24142883,22.53364006,series_1
,,,,,,,,60d23f408cd2fe8c8d46a3ec,Mężczyzna,21,2021-07-13_21h37.54.298,rantool2,2021.1.4,Win32,59.87665409,60d23f408cd2fe8c8d46a3ec,60d9d14f4a8a35a482e0d9bf,60edeb6dbf103288f2e57bc6,j,1.555865,0,28,28,37,1,ROORORO,ROORORR,20.42602454,21.57657071,series_1
,,,,,,,,60d23f408cd2fe8c8d46a3ec,Mężczyzna,21,2021-07-13_21h37.54.298,rantool2,2021.1.4,Win32,59.87665409,60d23f408cd2fe8c8d46a3ec,60d9d14f4a8a35a482e0d9bf,60edeb6dbf103288f2e57bc6,f,1.55791,0,29,29,62,1,RRRRROO,RRRRROR,22.16413392,21.27974287,series_0
,,,,,,,,60d23f408cd2fe8c8d46a3ec,Mężczyzna,21,2021-07-13_21h37.54.298,rantool2,2021.1.4,Win32,59.87665409,60d23f408cd2fe8c8d46a3ec,60d9d14f4a8a35a482e0d9bf,60edeb6dbf103288f2e57bc6,f,1.719835,0,30,30,34,1,ROOOROO,ROOOROR,21.03750787,21.24781509,series_1
,,,,,,,,60d23f408cd2fe8c8d46a3ec,Mężczyzna,21,2021-07-13_21h37.54.298,rantool2,2021.1.4,Win32,59.87665409,60d23f408cd2fe8c8d46a3ec,60d9d14f4a8a35a482e0d9bf,60edeb6dbf103288f2e57bc6,j,1.23445,0,31,31,26,1,ORROROO,ORROROR,22.02732763,21.71443381,series_0
,,,,,,,,60d23f408cd2fe8c8d46a3ec,Mężczyzna,21,2021-07-13_21h37.54.298,rantool2,2021.1.4,Win32,59.87665409,60d23f408cd2fe8c8d46a3ec,60d9d14f4a8a35a482e0d9bf,60edeb6dbf103288f2e57bc6,f,1.553325,0,32,32,21,1,ORORORO,ORORORR,20.39515459,22.06781359,series_1
,,,,,,,,60d23f408cd2fe8c8d46a3ec,Mężczyzna,21,2021-07-13_21h37.54.298,rantool2,2021.1.4,Win32,59.87665409,60d23f408cd2fe8c8d46a3ec,60d9d14f4a8a35a482e0d9bf,60edeb6dbf103288f2e57bc6,f,1.55524,0,33,33,52,1,RROROOO,RROROOR,22.18365867,22.11097995,series_0
,,,,,,,,60d23f408cd2fe8c8d46a3ec,Mężczyzna,21,2021-07-13_21h37.54.298,rantool2,2021.1.4,Win32,59.87665409,60d23f408cd2fe8c8d46a3ec,60d9d14f4a8a35a482e0d9bf,60edeb6dbf103288f2e57bc6,f,1.55303,0,34,34,16,1,OROOOOO,OROOOOR,20.43051175,21.17347734,series_1
,,,,,,,,60d23f408cd2fe8c8d46a3ec,Mężczyzna,21,2021-07-13_21h37.54.298,rantool2,2021.1.4,Win32,59.87665409,60d23f408cd2fe8c8d46a3ec,60d9d14f4a8a35a482e0d9bf,60edeb6dbf103288f2e57bc6,j,1.714205,0,35,35,11,1,OORORRO,OORORRR,22.18365867,22.6797523,series_1
,,,,,,,,60d23f408cd2fe8c8d46a3ec,Mężczyzna,21,2021-07-13_21h37.54.298,rantool2,2021.1.4,Win32,59.87665409,60d23f408cd2fe8c8d46a3ec,60d9d14f4a8a35a482e0d9bf,60edeb6dbf103288f2e57bc6,j,1.32791,0,36,36,8,1,OOROOOO,OOROOOR,19.91402015,20.89823192,series_1
,,,,,,,,60d23f408cd2fe8c8d46a3ec,Mężczyzna,21,2021-07-13_21h37.54.298,rantool2,2021.1.4,Win32,59.87665409,60d23f408cd2fe8c8d46a3ec,60d9d14f4a8a35a482e0d9bf,60edeb6dbf103288f2e57bc6,f,1.78741,0,37,37,48,1,RROOOOO,RROOOOR,20.90986523,22.15934078,series_1
,,,,,,,,60d23f408cd2fe8c8d46a3ec,Mężczyzna,21,2021-07-13_21h37.54.298,rantool2,2021.1.4,Win32,59.87665409,60d23f408cd2fe8c8d46a3ec,60d9d14f4a8a35a482e0d9bf,60edeb6dbf103288f2e57bc6,f,1.64992,0,38,38,3,1,OOOORRO,OOOORRR,20.90986523,21.74922619,series_1
,,,,,,,,60d23f408cd2fe8c8d46a3ec,Mężczyzna,21,2021-07-13_21h37.54.298,rantool2,2021.1.4,Win32,59.87665409,60d23f408cd2fe8c8d46a3ec,60d9d14f4a8a35a482e0d9bf,60edeb6dbf103288f2e57bc6,j,1.7768,0,39,39,63,1,RRRRRRO,RRRRRRR,21.35278725,19.62521613,series_0
,,,,,,,,60d23f408cd2fe8c8d46a3ec,Mężczyzna,21,2021-07-13_21h37.54.298,rantool2,2021.1.4,Win32,59.87665409,60d23f408cd2fe8c8d46a3ec,60d9d14f4a8a35a482e0d9bf,60edeb6dbf103288f2e57bc6,f,1.81423,0,40,40,10,1,OOROROO,OOROROR,21.31236711,21.07490964,series_0
,,,,,,,,60d23f408cd2fe8c8d46a3ec,Mężczyzna,21,2021-07-13_21h37.54.298,rantool2,2021.1.4,Win32,59.87665409,60d23f408cd2fe8c8d46a3ec,60d9d14f4a8a35a482e0d9bf,60edeb6dbf103288f2e57bc6,f,1.550385,0,41,41,12,1,OORROOO,OORROOR,21.30250474,22.02786418,series_1
,,,,,,,,60d23f408cd2fe8c8d46a3ec,Mężczyzna,21,2021-07-13_21h37.54.298,rantool2,2021.1.4,Win32,59.87665409,60d23f408cd2fe8c8d46a3ec,60d9d14f4a8a35a482e0d9bf,60edeb6dbf103288f2e57bc6,f,1.458505,0,42,42,24,1,ORROOOO,ORROOOR,21.12383932,22.07102821,series_1
,,,,,,,,60d23f408cd2fe8c8d46a3ec,Mężczyzna,21,2021-07-13_21h37.54.298,rantool2,2021.1.4,Win32,59.87665409,60d23f408cd2fe8c8d46a3ec,60d9d14f4a8a35a482e0d9bf,60edeb6dbf103288f2e57bc6,f,1.39952,0,43,43,45,1,RORRORO,RORRORR,20.78182524,21.22513037,series_1
,,,,,,,,60d23f408cd2fe8c8d46a3ec,Mężczyzna,21,2021-07-13_21h37.54.298,rantool2,2021.1.4,Win32,59.87665409,60d23f408cd2fe8c8d46a3ec,60d9d14f4a8a35a482e0d9bf,60edeb6dbf103288f2e57bc6,j,1.036065,0,44,44,58,1,RRROROO,RRROROR,22.1285618,21.37121559,series_0
,,,,,,,,60d23f408cd2fe8c8d46a3ec,Mężczyzna,21,2021-07-13_21h37.54.298,rantool2,2021.1.4,Win32,59.87665409,60d23f408cd2fe8c8d46a3ec,60d9d14f4a8a35a482e0d9bf,60edeb6dbf103288f2e57bc6,j,1.587565,0,45,45,6,1,OOORROO,OOORROR,21.12383932,21.38562617,series_1
,,,,,,,,60d23f408cd2fe8c8d46a3ec,Mężczyzna,21,2021-07-13_21h37.54.298,rantool2,2021.1.4,Win32,59.87665409,60d23f408cd2fe8c8d46a3ec,60d9d14f4a8a35a482e0d9bf,60edeb6dbf103288f2e57bc6,f,1.139485,0,46,46,20,1,OROROOO,OROROOR,21.31236711,21.90565814,series_1
,,,,,,,,60d23f408cd2fe8c8d46a3ec,Mężczyzna,21,2021-07-13_21h37.54.298,rantool2,2021.1.4,Win32,59.87665409,60d23f408cd2fe8c8d46a3ec,60d9d14f4a8a35a482e0d9bf,60edeb6dbf103288f2e57bc6,f,1.43347,0,47,47,23,1,ORORRRO,ORORRRR,22.1285618,21.9921709,series_0
,,,,,,,,60d23f408cd2fe8c8d46a3ec,Mężczyzna,21,2021-07-13_21h37.54.298,rantool2,2021.1.4,Win32,59.87665409,60d23f408cd2fe8c8d46a3ec,60d9d14f4a8a35a482e0d9bf,60edeb6dbf103288f2e57bc6,f,1.835415,0,48,48,30,1,ORRRROO,ORRRROR,22.46748491,22.03072203,series_0
,,,,,,,,60d23f408cd2fe8c8d46a3ec,Mężczyzna,21,2021-07-13_21h37.54.298,rantool2,2021.1.4,Win32,59.87665409,60d23f408cd2fe8c8d46a3ec,60d9d14f4a8a35a482e0d9bf,60edeb6dbf103288f2e57bc6,j,0.84956,0,49,49,9,1,OOROORO,OOROORR,21.07991943,22.2428857,series_1
,,,,,,,,60d23f408cd2fe8c8d46a3ec,Mężczyzna,21,2021-07-13_21h37.54.298,rantool2,2021.1.4,Win32,59.87665409,60d23f408cd2fe8c8d46a3ec,60d9d14f4a8a35a482e0d9bf,60edeb6dbf103288f2e57bc6,j,0.97441,0,50,50,41,1,ROROORO,ROROORR,20.42602454,21.71443381,series_1
,,,,,,,,60d23f408cd2fe8c8d46a3ec,Mężczyzna,21,2021-07-13_21h37.54.298,rantool2,2021.1.4,Win32,59.87665409,60d23f408cd2fe8c8d46a3ec,60d9d14f4a8a35a482e0d9bf,60edeb6dbf103288f2e57bc6,j,1.33484,0,51,51,55,1,RRORRRO,RRORRRR,21.56657303,21.21223021,series_0
,,,,,,,,60d23f408cd2fe8c8d46a3ec,Mężczyzna,21,2021-07-13_21h37.54.298,rantool2,2021.1.4,Win32,59.87665409,60d23f408cd2fe8c8d46a3ec,60d9d14f4a8a35a482e0d9bf,60edeb6dbf103288f2e57bc6,j,1.20159,0,52,52,51,1,RROORRO,RROORRR,21.89852628,22.02786418,series_1
,,,,,,,,60d23f408cd2fe8c8d46a3ec,Mężczyzna,21,2021-07-13_21h37.54.298,rantool2,2021.1.4,Win32,59.87665409,60d23f408cd2fe8c8d46a3ec,60d9d14f4a8a35a482e0d9bf,60edeb6dbf103288f2e57bc6,f,1.26426,0,53,53,1,1,OOOOORO,OOOOORR,19.92253567,20.74050628,series_1
,,,,,,,,60d23f408cd2fe8c8d46a3ec,Mężczyzna,21,2021-07-13_21h37.54.298,rantool2,2021.1.4,Win32,59.87665409,60d23f408cd2fe8c8d46a3ec,60d9d14f4a8a35a482e0d9bf,60edeb6dbf103288f2e57bc6,j,0.783705,0,54,54,31,1,ORRRRRO,ORRRRRR,22.16413392,20.74050628,series_0
,,,,,,,,60d23f408cd2fe8c8d46a3ec,Mężczyzna,21,2021-07-13_21h37.54.298,rantool2,2021.1.4,Win32,59.87665409,60d23f408cd2fe8c8d46a3ec,60d9d14f4a8a35a482e0d9bf,60edeb6dbf103288f2e57bc6,j,1.07015,0,55,55,25,1,ORROORO,ORROORR,21.79500819,22.61624387,series_1
,,,,,,,,60d23f408cd2fe8c8d46a3ec,Mężczyzna,21,2021-07-13_21h37.54.298,rantool2,2021.1.4,Win32,59.87665409,60d23f408cd2fe8c8d46a3ec,60d9d14f4a8a35a482e0d9bf,60edeb6dbf103288f2e57bc6,j,1.13698,0,56,56,40,1,ROROOOO,ROROOOR,20.87963819,21.37121559,series_1
,,,,,,,,60d23f408cd2fe8c8d46a3ec,Mężczyzna,21,2021-07-13_21h37.54.298,rantool2,2021.1.4,Win32,59.87665409,60d23f408cd2fe8c8d46a3ec,60d9d14f4a8a35a482e0d9bf,60edeb6dbf103288f2e57bc6,f,0.885245,0,57,57,53,1,RRORORO,RRORORR,20.71309134,21.90565814,series_1
,,,,,,,,60d23f408cd2fe8c8d46a3ec,Mężczyzna,21,2021-07-13_21h37.54.298,rantool2,2021.1.4,Win32,59.87665409,60d23f408cd2fe8c8d46a3ec,60d9d14f4a8a35a482e0d9bf,60edeb6dbf103288f2e57bc6,j,0.592885,0,58,58,44,1,RORROOO,RORROOR,21.66733484,22.02566557,series_1
,,,,,,,,60d23f408cd2fe8c8d46a3ec,Mężczyzna,21,2021-07-13_21h37.54.298,rantool2,2021.1.4,Win32,59.87665409,60d23f408cd2fe8c8d46a3ec,60d9d14f4a8a35a482e0d9bf,60edeb6dbf103288f2e57bc6,j,1.07974,0,59,59,43,1,RORORRO,RORORRR,20.71309134,21.07490964,series_1
,,,,,,,,60d23f408cd2fe8c8d46a3ec,Mężczyzna,21,2021-07-13_21h37.54.298,rantool2,2021.1.4,Win32,59.87665409,60d23f408cd2fe8c8d46a3ec,60d9d14f4a8a35a482e0d9bf,60edeb6dbf103288f2e57bc6,f,1.64107,0,60,60,59,1,RRRORRO,RRRORRR,21.56657303,20.89823192,series_0
,,,,,,,,60d23f408cd2fe8c8d46a3ec,Mężczyzna,21,2021-07-13_21h37.54.298,rantool2,2021.1.4,Win32,59.87665409,60d23f408cd2fe8c8d46a3ec,60d9d14f4a8a35a482e0d9bf,60edeb6dbf103288f2e57bc6,f,1.40247,0,61,61,50,1,RROOROO,RROOROR,21.73568164,22.02566557,series_1
,,,,,,,,60d23f408cd2fe8c8d46a3ec,Mężczyzna,21,2021-07-13_21h37.54.298,rantool2,2021.1.4,Win32,59.87665409,60d23f408cd2fe8c8d46a3ec,60d9d14f4a8a35a482e0d9bf,60edeb6dbf103288f2e57bc6,f,1.425755,0,62,62,49,1,RROOORO,RROOORR,21.76276513,22.53364006,series_1
,,,,,,,,60d23f408cd2fe8c8d46a3ec,Mężczyzna,21,2021-07-13_21h37.54.298,rantool2,2021.1.4,Win32,59.87665409,60d23f408cd2fe8c8d46a3ec,60d9d14f4a8a35a482e0d9bf,60edeb6dbf103288f2e57bc6,j,0.568275,0,63,63,2,1,OOOOROO,OOOOROR,20.43051175,21.02936224,series_1
