key_resp_7.keys,key_resp_7.rt,trials_2.thisRepN,trials_2.thisTrialN,trials_2.thisN,trials_2.thisIndex,trials_2.ran,id,series_0,series_1,acss_0,acss_1,comparison,id*,Płeć*,Wiek*,date,expName,psychopyVersion,OS,frameRate,STUDY_ID,SESSION_ID,key_resp_5.keys,key_resp_5.corr,key_resp_5.rt,trials.thisRepN,trials.thisTrialN,trials.thisN,trials.thisIndex,trials.ran
f,4.312,0,0,0,47,1,610a92950e32236c580f9a13,RORRRRO,RORRRRR,21.81333602,21.02936224,series_0,610a92950e32236c580f9a13,Kobieta,18,2021-09-06_19h25.53.957,rantool2,2021.1.4,Win32,74.94566439,6135e006383e6ea6c3d06a28,61364f03bcc54e4425680908,,,,,,,,
j,3.0756,0,1,1,40,1,610a92950e32236c580f9a13,ROROOOO,ROROOOR,20.87963819,21.37121559,series_1,610a92950e32236c580f9a13,Kobieta,18,2021-09-06_19h25.53.957,rantool2,2021.1.4,Win32,74.94566439,6135e006383e6ea6c3d06a28,61364f03bcc54e4425680908,,,,,,,,
f,1.7154,0,2,2,36,1,610a92950e32236c580f9a13,ROOROOO,ROOROOR,21.07991943,20.9984461,series_0,610a92950e32236c580f9a13,Kobieta,18,2021-09-06_19h25.53.957,rantool2,2021.1.4,Win32,74.94566439,6135e006383e6ea6c3d06a28,61364f03bcc54e4425680908,,,,,,,,
j,1.2745,0,3,3,22,1,610a92950e32236c580f9a13,ORORROO,ORORROR,22.02732763,21.57657071,series_0,610a92950e32236c580f9a13,Kobieta,18,2021-09-06_19h25.53.957,rantool2,2021.1.4,Win32,74.94566439,6135e006383e6ea6c3d06a28,61364f03bcc54e4425680908,,,,,,,,
f,1.7463,0,4,4,7,1,610a92950e32236c580f9a13,OOORRRO,OOORRRR,21.6194508,21.899017,series_1,610a92950e32236c580f9a13,Kobieta,18,2021-09-06_19h25.53.957,rantool2,2021.1.4,Win32,74.94566439,6135e006383e6ea6c3d06a28,61364f03bcc54e4425680908,,,,,,,,
j,2.0309,0,5,5,46,1,610a92950e32236c580f9a13,RORRROO,RORRROR,22.00300695,21.24781509,series_0,610a92950e32236c580f9a13,Kobieta,18,2021-09-06_19h25.53.957,rantool2,2021.1.4,Win32,74.94566439,6135e006383e6ea6c3d06a28,61364f03bcc54e4425680908,,,,,,,,
j,1.4703,0,6,6,38,1,610a92950e32236c580f9a13,ROORROO,ROORROR,21.79500819,21.36812781,series_0,610a92950e32236c580f9a13,Kobieta,18,2021-09-06_19h25.53.957,rantool2,2021.1.4,Win32,74.94566439,6135e006383e6ea6c3d06a28,61364f03bcc54e4425680908,,,,,,,,
f,1.6057,0,7,7,52,1,610a92950e32236c580f9a13,RROROOO,RROROOR,22.18365867,22.11097995,series_0,610a92950e32236c580f9a13,Kobieta,18,2021-09-06_19h25.53.957,rantool2,2021.1.4,Win32,74.94566439,6135e006383e6ea6c3d06a28,61364f03bcc54e4425680908,,,,,,,,
j,1.888,0,8,8,59,1,610a92950e32236c580f9a13,RRRORRO,RRRORRR,21.56657303,20.89823192,series_0,610a92950e32236c580f9a13,Kobieta,18,2021-09-06_19h25.53.957,rantool2,2021.1.4,Win32,74.94566439,6135e006383e6ea6c3d06a28,61364f03bcc54e4425680908,,,,,,,,
f,2.7939,0,9,9,31,1,610a92950e32236c580f9a13,ORRRRRO,ORRRRRR,22.16413392,20.74050628,series_0,610a92950e32236c580f9a13,Kobieta,18,2021-09-06_19h25.53.957,rantool2,2021.1.4,Win32,74.94566439,6135e006383e6ea6c3d06a28,61364f03bcc54e4425680908,,,,,,,,
j,2.4725,0,10,10,17,1,610a92950e32236c580f9a13,OROOORO,OROOORR,21.03750787,22.12173012,series_1,610a92950e32236c580f9a13,Kobieta,18,2021-09-06_19h25.53.957,rantool2,2021.1.4,Win32,74.94566439,6135e006383e6ea6c3d06a28,61364f03bcc54e4425680908,,,,,,,,
f,1.3442,0,11,11,11,1,610a92950e32236c580f9a13,OORORRO,OORORRR,22.18365867,22.6797523,series_1,610a92950e32236c580f9a13,Kobieta,18,2021-09-06_19h25.53.957,rantool2,2021.1.4,Win32,74.94566439,6135e006383e6ea6c3d06a28,61364f03bcc54e4425680908,,,,,,,,
f,0.6369,0,12,12,34,1,610a92950e32236c580f9a13,ROOOROO,ROOOROR,21.03750787,21.24781509,series_1,610a92950e32236c580f9a13,Kobieta,18,2021-09-06_19h25.53.957,rantool2,2021.1.4,Win32,74.94566439,6135e006383e6ea6c3d06a28,61364f03bcc54e4425680908,,,,,,,,
f,2.5966,0,13,13,14,1,610a92950e32236c580f9a13,OORRROO,OORRROR,22.24142883,22.16977179,series_0,610a92950e32236c580f9a13,Kobieta,18,2021-09-06_19h25.53.957,rantool2,2021.1.4,Win32,74.94566439,6135e006383e6ea6c3d06a28,61364f03bcc54e4425680908,,,,,,,,
j,2.1879,0,14,14,43,1,610a92950e32236c580f9a13,RORORRO,RORORRR,20.71309134,21.07490964,series_1,610a92950e32236c580f9a13,Kobieta,18,2021-09-06_19h25.53.957,rantool2,2021.1.4,Win32,74.94566439,6135e006383e6ea6c3d06a28,61364f03bcc54e4425680908,,,,,,,,
f,2.3549,0,15,15,57,1,610a92950e32236c580f9a13,RRROORO,RRROORR,21.82425538,22.07102821,series_1,610a92950e32236c580f9a13,Kobieta,18,2021-09-06_19h25.53.957,rantool2,2021.1.4,Win32,74.94566439,6135e006383e6ea6c3d06a28,61364f03bcc54e4425680908,,,,,,,,
j,1.7383,0,16,16,13,1,610a92950e32236c580f9a13,OORRORO,OORRORR,21.66733484,22.11181017,series_1,610a92950e32236c580f9a13,Kobieta,18,2021-09-06_19h25.53.957,rantool2,2021.1.4,Win32,74.94566439,6135e006383e6ea6c3d06a28,61364f03bcc54e4425680908,,,,,,,,
f,2.0309,0,17,17,61,1,610a92950e32236c580f9a13,RRRRORO,RRRRORR,21.81333602,21.17347734,series_0,610a92950e32236c580f9a13,Kobieta,18,2021-09-06_19h25.53.957,rantool2,2021.1.4,Win32,74.94566439,6135e006383e6ea6c3d06a28,61364f03bcc54e4425680908,,,,,,,,
j,1.2863,0,18,18,26,1,610a92950e32236c580f9a13,ORROROO,ORROROR,22.02732763,21.71443381,series_0,610a92950e32236c580f9a13,Kobieta,18,2021-09-06_19h25.53.957,rantool2,2021.1.4,Win32,74.94566439,6135e006383e6ea6c3d06a28,61364f03bcc54e4425680908,,,,,,,,
j,2.5927,0,19,19,6,1,610a92950e32236c580f9a13,OOORROO,OOORROR,21.12383932,21.38562617,series_1,610a92950e32236c580f9a13,Kobieta,18,2021-09-06_19h25.53.957,rantool2,2021.1.4,Win32,74.94566439,6135e006383e6ea6c3d06a28,61364f03bcc54e4425680908,,,,,,,,
j,1.7596,0,20,20,48,1,610a92950e32236c580f9a13,RROOOOO,RROOOOR,20.90986523,22.15934078,series_1,610a92950e32236c580f9a13,Kobieta,18,2021-09-06_19h25.53.957,rantool2,2021.1.4,Win32,74.94566439,6135e006383e6ea6c3d06a28,61364f03bcc54e4425680908,,,,,,,,
j,0.9269,0,21,21,19,1,610a92950e32236c580f9a13,OROORRO,OROORRR,21.73568164,22.11181017,series_1,610a92950e32236c580f9a13,Kobieta,18,2021-09-06_19h25.53.957,rantool2,2021.1.4,Win32,74.94566439,6135e006383e6ea6c3d06a28,61364f03bcc54e4425680908,,,,,,,,
f,1.273,0,22,22,30,1,610a92950e32236c580f9a13,ORRRROO,ORRRROR,22.46748491,22.03072203,series_0,610a92950e32236c580f9a13,Kobieta,18,2021-09-06_19h25.53.957,rantool2,2021.1.4,Win32,74.94566439,6135e006383e6ea6c3d06a28,61364f03bcc54e4425680908,,,,,,,,
f,1.4489,0,23,23,10,1,610a92950e32236c580f9a13,OOROROO,OOROROR,21.31236711,21.07490964,series_0,610a92950e32236c580f9a13,Kobieta,18,2021-09-06_19h25.53.957,rantool2,2021.1.4,Win32,74.94566439,6135e006383e6ea6c3d06a28,61364f03bcc54e4425680908,,,,,,,,
j,1.5309,0,24,24,18,1,610a92950e32236c580f9a13,OROOROO,OROOROR,20.84860893,21.22513037,series_1,610a92950e32236c580f9a13,Kobieta,18,2021-09-06_19h25.53.957,rantool2,2021.1.4,Win32,74.94566439,6135e006383e6ea6c3d06a28,61364f03bcc54e4425680908,,,,,,,,
f,2.4529,0,25,25,62,1,610a92950e32236c580f9a13,RRRRROO,RRRRROR,22.16413392,21.27974287,series_0,610a92950e32236c580f9a13,Kobieta,18,2021-09-06_19h25.53.957,rantool2,2021.1.4,Win32,74.94566439,6135e006383e6ea6c3d06a28,61364f03bcc54e4425680908,,,,,,,,
j,1.615,0,26,26,49,1,610a92950e32236c580f9a13,RROOORO,RROOORR,21.76276513,22.53364006,series_1,610a92950e32236c580f9a13,Kobieta,18,2021-09-06_19h25.53.957,rantool2,2021.1.4,Win32,74.94566439,6135e006383e6ea6c3d06a28,61364f03bcc54e4425680908,,,,,,,,
j,2.1317,0,27,27,63,1,610a92950e32236c580f9a13,RRRRRRO,RRRRRRR,21.35278725,19.62521613,series_0,610a92950e32236c580f9a13,Kobieta,18,2021-09-06_19h25.53.957,rantool2,2021.1.4,Win32,74.94566439,6135e006383e6ea6c3d06a28,61364f03bcc54e4425680908,,,,,,,,
f,1.1575,0,28,28,28,1,610a92950e32236c580f9a13,ORRROOO,ORRROOR,22.24142883,22.53364006,series_1,610a92950e32236c580f9a13,Kobieta,18,2021-09-06_19h25.53.957,rantool2,2021.1.4,Win32,74.94566439,6135e006383e6ea6c3d06a28,61364f03bcc54e4425680908,,,,,,,,
f,1.2292,0,29,29,55,1,610a92950e32236c580f9a13,RRORRRO,RRORRRR,21.56657303,21.21223021,series_0,610a92950e32236c580f9a13,Kobieta,18,2021-09-06_19h25.53.957,rantool2,2021.1.4,Win32,74.94566439,6135e006383e6ea6c3d06a28,61364f03bcc54e4425680908,,,,,,,,
j,0.8288,0,30,30,42,1,610a92950e32236c580f9a13,ROROROO,ROROROR,20.39515459,19.8361834,series_0,610a92950e32236c580f9a13,Kobieta,18,2021-09-06_19h25.53.957,rantool2,2021.1.4,Win32,74.94566439,6135e006383e6ea6c3d06a28,61364f03bcc54e4425680908,,,,,,,,
j,1.3483,0,31,31,16,1,610a92950e32236c580f9a13,OROOOOO,OROOOOR,20.43051175,21.17347734,series_1,610a92950e32236c580f9a13,Kobieta,18,2021-09-06_19h25.53.957,rantool2,2021.1.4,Win32,74.94566439,6135e006383e6ea6c3d06a28,61364f03bcc54e4425680908,,,,,,,,
f,1.6673,0,32,32,5,1,610a92950e32236c580f9a13,OOORORO,OOORORR,20.87963819,21.9921709,series_1,610a92950e32236c580f9a13,Kobieta,18,2021-09-06_19h25.53.957,rantool2,2021.1.4,Win32,74.94566439,6135e006383e6ea6c3d06a28,61364f03bcc54e4425680908,,,,,,,,
j,1.2995,0,33,33,56,1,610a92950e32236c580f9a13,RRROOOO,RRROOOR,21.6194508,22.31681875,series_1,610a92950e32236c580f9a13,Kobieta,18,2021-09-06_19h25.53.957,rantool2,2021.1.4,Win32,74.94566439,6135e006383e6ea6c3d06a28,61364f03bcc54e4425680908,,,,,,,,
j,1.1998,0,34,34,51,1,610a92950e32236c580f9a13,RROORRO,RROORRR,21.89852628,22.02786418,series_1,610a92950e32236c580f9a13,Kobieta,18,2021-09-06_19h25.53.957,rantool2,2021.1.4,Win32,74.94566439,6135e006383e6ea6c3d06a28,61364f03bcc54e4425680908,,,,,,,,
j,1.1225,0,35,35,20,1,610a92950e32236c580f9a13,OROROOO,OROROOR,21.31236711,21.90565814,series_1,610a92950e32236c580f9a13,Kobieta,18,2021-09-06_19h25.53.957,rantool2,2021.1.4,Win32,74.94566439,6135e006383e6ea6c3d06a28,61364f03bcc54e4425680908,,,,,,,,
f,1.9168,0,36,36,44,1,610a92950e32236c580f9a13,RORROOO,RORROOR,21.66733484,22.02566557,series_1,610a92950e32236c580f9a13,Kobieta,18,2021-09-06_19h25.53.957,rantool2,2021.1.4,Win32,74.94566439,6135e006383e6ea6c3d06a28,61364f03bcc54e4425680908,,,,,,,,
j,2.1003,0,37,37,53,1,610a92950e32236c580f9a13,RRORORO,RRORORR,20.71309134,21.90565814,series_1,610a92950e32236c580f9a13,Kobieta,18,2021-09-06_19h25.53.957,rantool2,2021.1.4,Win32,74.94566439,6135e006383e6ea6c3d06a28,61364f03bcc54e4425680908,,,,,,,,
j,1.6328,0,38,38,33,1,610a92950e32236c580f9a13,ROOOORO,ROOOORR,20.83779602,22.03072203,series_1,610a92950e32236c580f9a13,Kobieta,18,2021-09-06_19h25.53.957,rantool2,2021.1.4,Win32,74.94566439,6135e006383e6ea6c3d06a28,61364f03bcc54e4425680908,,,,,,,,
f,1.4802,0,39,39,37,1,610a92950e32236c580f9a13,ROORORO,ROORORR,20.42602454,21.57657071,series_1,610a92950e32236c580f9a13,Kobieta,18,2021-09-06_19h25.53.957,rantool2,2021.1.4,Win32,74.94566439,6135e006383e6ea6c3d06a28,61364f03bcc54e4425680908,,,,,,,,
j,2.9145,0,40,40,29,1,610a92950e32236c580f9a13,ORRRORO,ORRRORR,22.00300695,22.12173012,series_1,610a92950e32236c580f9a13,Kobieta,18,2021-09-06_19h25.53.957,rantool2,2021.1.4,Win32,74.94566439,6135e006383e6ea6c3d06a28,61364f03bcc54e4425680908,,,,,,,,
j,1.0889,0,41,41,45,1,610a92950e32236c580f9a13,RORRORO,RORRORR,20.78182524,21.22513037,series_1,610a92950e32236c580f9a13,Kobieta,18,2021-09-06_19h25.53.957,rantool2,2021.1.4,Win32,74.94566439,6135e006383e6ea6c3d06a28,61364f03bcc54e4425680908,,,,,,,,
j,1.0515,0,42,42,4,1,610a92950e32236c580f9a13,OOOROOO,OOOROOR,19.91402015,21.21223021,series_1,610a92950e32236c580f9a13,Kobieta,18,2021-09-06_19h25.53.957,rantool2,2021.1.4,Win32,74.94566439,6135e006383e6ea6c3d06a28,61364f03bcc54e4425680908,,,,,,,,
f,2.1658,0,43,43,15,1,610a92950e32236c580f9a13,OORRRRO,OORRRRR,22.10108823,21.74922619,series_0,610a92950e32236c580f9a13,Kobieta,18,2021-09-06_19h25.53.957,rantool2,2021.1.4,Win32,74.94566439,6135e006383e6ea6c3d06a28,61364f03bcc54e4425680908,,,,,,,,
j,1.1678,0,44,44,8,1,610a92950e32236c580f9a13,OOROOOO,OOROOOR,19.91402015,20.89823192,series_1,610a92950e32236c580f9a13,Kobieta,18,2021-09-06_19h25.53.957,rantool2,2021.1.4,Win32,74.94566439,6135e006383e6ea6c3d06a28,61364f03bcc54e4425680908,,,,,,,,
f,1.2101,0,45,45,58,1,610a92950e32236c580f9a13,RRROROO,RRROROR,22.1285618,21.37121559,series_0,610a92950e32236c580f9a13,Kobieta,18,2021-09-06_19h25.53.957,rantool2,2021.1.4,Win32,74.94566439,6135e006383e6ea6c3d06a28,61364f03bcc54e4425680908,,,,,,,,
j,1.4682,0,46,46,50,1,610a92950e32236c580f9a13,RROOROO,RROOROR,21.73568164,22.02566557,series_1,610a92950e32236c580f9a13,Kobieta,18,2021-09-06_19h25.53.957,rantool2,2021.1.4,Win32,74.94566439,6135e006383e6ea6c3d06a28,61364f03bcc54e4425680908,,,,,,,,
j,1.8599,0,47,47,32,1,610a92950e32236c580f9a13,ROOOOOO,ROOOOOR,19.92253567,21.27974287,series_1,610a92950e32236c580f9a13,Kobieta,18,2021-09-06_19h25.53.957,rantool2,2021.1.4,Win32,74.94566439,6135e006383e6ea6c3d06a28,61364f03bcc54e4425680908,,,,,,,,
f,1.2645,0,48,48,27,1,610a92950e32236c580f9a13,ORRORRO,ORRORRR,21.55250791,22.2428857,series_1,610a92950e32236c580f9a13,Kobieta,18,2021-09-06_19h25.53.957,rantool2,2021.1.4,Win32,74.94566439,6135e006383e6ea6c3d06a28,61364f03bcc54e4425680908,,,,,,,,
f,2.0614,0,49,49,1,1,610a92950e32236c580f9a13,OOOOORO,OOOOORR,19.92253567,20.74050628,series_1,610a92950e32236c580f9a13,Kobieta,18,2021-09-06_19h25.53.957,rantool2,2021.1.4,Win32,74.94566439,6135e006383e6ea6c3d06a28,61364f03bcc54e4425680908,,,,,,,,
f,1.4579,0,50,50,0,1,610a92950e32236c580f9a13,OOOOOOO,OOOOOOR,18.52739004,19.62521613,series_1,610a92950e32236c580f9a13,Kobieta,18,2021-09-06_19h25.53.957,rantool2,2021.1.4,Win32,74.94566439,6135e006383e6ea6c3d06a28,61364f03bcc54e4425680908,,,,,,,,
j,1.0548,0,51,51,24,1,610a92950e32236c580f9a13,ORROOOO,ORROOOR,21.12383932,22.07102821,series_1,610a92950e32236c580f9a13,Kobieta,18,2021-09-06_19h25.53.957,rantool2,2021.1.4,Win32,74.94566439,6135e006383e6ea6c3d06a28,61364f03bcc54e4425680908,,,,,,,,
j,1.0516,0,52,52,41,1,610a92950e32236c580f9a13,ROROORO,ROROORR,20.42602454,21.71443381,series_1,610a92950e32236c580f9a13,Kobieta,18,2021-09-06_19h25.53.957,rantool2,2021.1.4,Win32,74.94566439,6135e006383e6ea6c3d06a28,61364f03bcc54e4425680908,,,,,,,,
j,0.8215,0,53,53,23,1,610a92950e32236c580f9a13,ORORRRO,ORORRRR,22.1285618,21.9921709,series_0,610a92950e32236c580f9a13,Kobieta,18,2021-09-06_19h25.53.957,rantool2,2021.1.4,Win32,74.94566439,6135e006383e6ea6c3d06a28,61364f03bcc54e4425680908,,,,,,,,
f,0.5391,0,54,54,54,1,610a92950e32236c580f9a13,RRORROO,RRORROR,21.55250791,20.9984461,series_0,610a92950e32236c580f9a13,Kobieta,18,2021-09-06_19h25.53.957,rantool2,2021.1.4,Win32,74.94566439,6135e006383e6ea6c3d06a28,61364f03bcc54e4425680908,,,,,,,,
j,0.456,0,55,55,25,1,610a92950e32236c580f9a13,ORROORO,ORROORR,21.79500819,22.61624387,series_1,610a92950e32236c580f9a13,Kobieta,18,2021-09-06_19h25.53.957,rantool2,2021.1.4,Win32,74.94566439,6135e006383e6ea6c3d06a28,61364f03bcc54e4425680908,,,,,,,,
f,1.8696,0,56,56,21,1,610a92950e32236c580f9a13,ORORORO,ORORORR,20.39515459,22.06781359,series_1,610a92950e32236c580f9a13,Kobieta,18,2021-09-06_19h25.53.957,rantool2,2021.1.4,Win32,74.94566439,6135e006383e6ea6c3d06a28,61364f03bcc54e4425680908,,,,,,,,
f,1.7169,0,57,57,3,1,610a92950e32236c580f9a13,OOOORRO,OOOORRR,20.90986523,21.74922619,series_1,610a92950e32236c580f9a13,Kobieta,18,2021-09-06_19h25.53.957,rantool2,2021.1.4,Win32,74.94566439,6135e006383e6ea6c3d06a28,61364f03bcc54e4425680908,,,,,,,,
j,1.0041,0,58,58,12,1,610a92950e32236c580f9a13,OORROOO,OORROOR,21.30250474,22.02786418,series_1,610a92950e32236c580f9a13,Kobieta,18,2021-09-06_19h25.53.957,rantool2,2021.1.4,Win32,74.94566439,6135e006383e6ea6c3d06a28,61364f03bcc54e4425680908,,,,,,,,
j,1.8383,0,59,59,35,1,610a92950e32236c580f9a13,ROOORRO,ROOORRR,21.76276513,22.16977179,series_1,610a92950e32236c580f9a13,Kobieta,18,2021-09-06_19h25.53.957,rantool2,2021.1.4,Win32,74.94566439,6135e006383e6ea6c3d06a28,61364f03bcc54e4425680908,,,,,,,,
f,1.894,0,60,60,2,1,610a92950e32236c580f9a13,OOOOROO,OOOOROR,20.43051175,21.02936224,series_1,610a92950e32236c580f9a13,Kobieta,18,2021-09-06_19h25.53.957,rantool2,2021.1.4,Win32,74.94566439,6135e006383e6ea6c3d06a28,61364f03bcc54e4425680908,,,,,,,,
j,1.4985,0,61,61,39,1,610a92950e32236c580f9a13,ROORRRO,ROORRRR,21.82425538,21.38562617,series_0,610a92950e32236c580f9a13,Kobieta,18,2021-09-06_19h25.53.957,rantool2,2021.1.4,Win32,74.94566439,6135e006383e6ea6c3d06a28,61364f03bcc54e4425680908,,,,,,,,
j,1.6072,0,62,62,9,1,610a92950e32236c580f9a13,OOROORO,OOROORR,21.07991943,22.2428857,series_1,610a92950e32236c580f9a13,Kobieta,18,2021-09-06_19h25.53.957,rantool2,2021.1.4,Win32,74.94566439,6135e006383e6ea6c3d06a28,61364f03bcc54e4425680908,,,,,,,,
f,1.5217,0,63,63,60,1,610a92950e32236c580f9a13,RRRROOO,RRRROOR,22.10108823,22.15934078,series_1,610a92950e32236c580f9a13,Kobieta,18,2021-09-06_19h25.53.957,rantool2,2021.1.4,Win32,74.94566439,6135e006383e6ea6c3d06a28,61364f03bcc54e4425680908,,,,,,,,
,,,,,,,610a92950e32236c580f9a13,,,,,,610a92950e32236c580f9a13,Kobieta,18,2021-09-06_19h25.53.957,rantool2,2021.1.4,Win32,74.94566439,6135e006383e6ea6c3d06a28,61364f03bcc54e4425680908,"[""comma""]",0,[0.9555999999940354],0,0,0,0,1
,,,,,,,610a92950e32236c580f9a13,,,,,,610a92950e32236c580f9a13,Kobieta,18,2021-09-06_19h25.53.957,rantool2,2021.1.4,Win32,74.94566439,6135e006383e6ea6c3d06a28,61364f03bcc54e4425680908,"[""comma""]",0,[0.41100000000000136],1,0,1,0,1
,,,,,,,610a92950e32236c580f9a13,,,,,,610a92950e32236c580f9a13,Kobieta,18,2021-09-06_19h25.53.957,rantool2,2021.1.4,Win32,74.94566439,6135e006383e6ea6c3d06a28,61364f03bcc54e4425680908,0,0,,2,0,2,0,1
,,,,,,,610a92950e32236c580f9a13,,,,,,610a92950e32236c580f9a13,Kobieta,18,2021-09-06_19h25.53.957,rantool2,2021.1.4,Win32,74.94566439,6135e006383e6ea6c3d06a28,61364f03bcc54e4425680908,"[""comma""]",0,[0.24960000002386096],3,0,3,0,1
,,,,,,,610a92950e32236c580f9a13,,,,,,610a92950e32236c580f9a13,Kobieta,18,2021-09-06_19h25.53.957,rantool2,2021.1.4,Win32,74.94566439,6135e006383e6ea6c3d06a28,61364f03bcc54e4425680908,"[""period"",""comma""]",0,"[0.21690000000594978,1.9209000000059575]",4,0,4,0,1
,,,,,,,610a92950e32236c580f9a13,,,,,,610a92950e32236c580f9a13,Kobieta,18,2021-09-06_19h25.53.957,rantool2,2021.1.4,Win32,74.94566439,6135e006383e6ea6c3d06a28,61364f03bcc54e4425680908,"[""comma"",""comma""]",0,"[0.30450000000001864,0.9441999999880863]",5,0,5,0,1
,,,,,,,610a92950e32236c580f9a13,,,,,,610a92950e32236c580f9a13,Kobieta,18,2021-09-06_19h25.53.957,rantool2,2021.1.4,Win32,74.94566439,6135e006383e6ea6c3d06a28,61364f03bcc54e4425680908,"[""comma""]",0,[0.27950000000001296],6,0,6,0,1
,,,,,,,610a92950e32236c580f9a13,,,,,,610a92950e32236c580f9a13,Kobieta,18,2021-09-06_19h25.53.957,rantool2,2021.1.4,Win32,74.94566439,6135e006383e6ea6c3d06a28,61364f03bcc54e4425680908,"[""period""]",0,[0.23090000000595978],7,0,7,0,1
,,,,,,,610a92950e32236c580f9a13,,,,,,610a92950e32236c580f9a13,Kobieta,18,2021-09-06_19h25.53.957,rantool2,2021.1.4,Win32,74.94566439,6135e006383e6ea6c3d06a28,61364f03bcc54e4425680908,"[""period""]",0,[0.102100000023853],8,0,8,0,1
,,,,,,,610a92950e32236c580f9a13,,,,,,610a92950e32236c580f9a13,Kobieta,18,2021-09-06_19h25.53.957,rantool2,2021.1.4,Win32,74.94566439,6135e006383e6ea6c3d06a28,61364f03bcc54e4425680908,"[""period""]",0,[0.2693999999761729],9,0,9,0,1
,,,,,,,610a92950e32236c580f9a13,,,,,,610a92950e32236c580f9a13,Kobieta,18,2021-09-06_19h25.53.957,rantool2,2021.1.4,Win32,74.94566439,6135e006383e6ea6c3d06a28,61364f03bcc54e4425680908,"[""period""]",0,[0.24459999999405113],10,0,10,0,1
,,,,,,,610a92950e32236c580f9a13,,,,,,610a92950e32236c580f9a13,Kobieta,18,2021-09-06_19h25.53.957,rantool2,2021.1.4,Win32,74.94566439,6135e006383e6ea6c3d06a28,61364f03bcc54e4425680908,"[""comma""]",0,[0.06820000001786752],11,0,11,0,1
,,,,,,,610a92950e32236c580f9a13,,,,,,610a92950e32236c580f9a13,Kobieta,18,2021-09-06_19h25.53.957,rantool2,2021.1.4,Win32,74.94566439,6135e006383e6ea6c3d06a28,61364f03bcc54e4425680908,"[""period""]",0,[0.10729999998213202],12,0,12,0,1
,,,,,,,610a92950e32236c580f9a13,,,,,,610a92950e32236c580f9a13,Kobieta,18,2021-09-06_19h25.53.957,rantool2,2021.1.4,Win32,74.94566439,6135e006383e6ea6c3d06a28,61364f03bcc54e4425680908,"[""period""]",0,[0.24030000001192775],13,0,13,0,1
,,,,,,,610a92950e32236c580f9a13,,,,,,610a92950e32236c580f9a13,Kobieta,18,2021-09-06_19h25.53.957,rantool2,2021.1.4,Win32,74.94566439,6135e006383e6ea6c3d06a28,61364f03bcc54e4425680908,"[""comma""]",0,[0.20989999997615882],14,0,14,0,1
,,,,,,,610a92950e32236c580f9a13,,,,,,610a92950e32236c580f9a13,Kobieta,18,2021-09-06_19h25.53.957,rantool2,2021.1.4,Win32,74.94566439,6135e006383e6ea6c3d06a28,61364f03bcc54e4425680908,"[""period""]",0,[0.26719999998809385],15,0,15,0,1
,,,,,,,610a92950e32236c580f9a13,,,,,,610a92950e32236c580f9a13,Kobieta,18,2021-09-06_19h25.53.957,rantool2,2021.1.4,Win32,74.94566439,6135e006383e6ea6c3d06a28,61364f03bcc54e4425680908,"[""period""]",0,[0.24870000001789094],16,0,16,0,1
,,,,,,,610a92950e32236c580f9a13,,,,,,610a92950e32236c580f9a13,Kobieta,18,2021-09-06_19h25.53.957,rantool2,2021.1.4,Win32,74.94566439,6135e006383e6ea6c3d06a28,61364f03bcc54e4425680908,"[""period""]",0,[0.24789999997616974],17,0,17,0,1
,,,,,,,610a92950e32236c580f9a13,,,,,,610a92950e32236c580f9a13,Kobieta,18,2021-09-06_19h25.53.957,rantool2,2021.1.4,Win32,74.94566439,6135e006383e6ea6c3d06a28,61364f03bcc54e4425680908,"[""comma""]",0,[0.26309999999404],18,0,18,0,1
,,,,,,,610a92950e32236c580f9a13,,,,,,610a92950e32236c580f9a13,Kobieta,18,2021-09-06_19h25.53.957,rantool2,2021.1.4,Win32,74.94566439,6135e006383e6ea6c3d06a28,61364f03bcc54e4425680908,"[""period""]",0,[0.23039999997615723],19,0,19,0,1
,,,,,,,610a92950e32236c580f9a13,,,,,,610a92950e32236c580f9a13,Kobieta,18,2021-09-06_19h25.53.957,rantool2,2021.1.4,Win32,74.94566439,6135e006383e6ea6c3d06a28,61364f03bcc54e4425680908,"[""comma""]",0,[0.20040000000597047],20,0,20,0,1
,,,,,,,610a92950e32236c580f9a13,,,,,,610a92950e32236c580f9a13,Kobieta,18,2021-09-06_19h25.53.957,rantool2,2021.1.4,Win32,74.94566439,6135e006383e6ea6c3d06a28,61364f03bcc54e4425680908,"[""period""]",0,[0.19419999998805793],21,0,21,0,1
,,,,,,,610a92950e32236c580f9a13,,,,,,610a92950e32236c580f9a13,Kobieta,18,2021-09-06_19h25.53.957,rantool2,2021.1.4,Win32,74.94566439,6135e006383e6ea6c3d06a28,61364f03bcc54e4425680908,"[""comma""]",0,[0.2418000000119207],22,0,22,0,1
,,,,,,,610a92950e32236c580f9a13,,,,,,610a92950e32236c580f9a13,Kobieta,18,2021-09-06_19h25.53.957,rantool2,2021.1.4,Win32,74.94566439,6135e006383e6ea6c3d06a28,61364f03bcc54e4425680908,"[""comma"",""comma""]",0,"[0.024900000005942502,0.8170000000000073]",23,0,23,0,1
,,,,,,,610a92950e32236c580f9a13,,,,,,610a92950e32236c580f9a13,Kobieta,18,2021-09-06_19h25.53.957,rantool2,2021.1.4,Win32,74.94566439,6135e006383e6ea6c3d06a28,61364f03bcc54e4425680908,"[""comma""]",0,[0.24829999998212315],24,0,24,0,1
,,,,,,,610a92950e32236c580f9a13,,,,,,610a92950e32236c580f9a13,Kobieta,18,2021-09-06_19h25.53.957,rantool2,2021.1.4,Win32,74.94566439,6135e006383e6ea6c3d06a28,61364f03bcc54e4425680908,"[""comma""]",0,[0.2875999999940291],25,0,25,0,1
,,,,,,,610a92950e32236c580f9a13,,,,,,610a92950e32236c580f9a13,Kobieta,18,2021-09-06_19h25.53.957,rantool2,2021.1.4,Win32,74.94566439,6135e006383e6ea6c3d06a28,61364f03bcc54e4425680908,"[""comma""]",0,[0.19889999997616314],26,0,26,0,1
,,,,,,,610a92950e32236c580f9a13,,,,,,610a92950e32236c580f9a13,Kobieta,18,2021-09-06_19h25.53.957,rantool2,2021.1.4,Win32,74.94566439,6135e006383e6ea6c3d06a28,61364f03bcc54e4425680908,"[""period""]",0,[0.07809999999403772],27,0,27,0,1
,,,,,,,610a92950e32236c580f9a13,,,,,,610a92950e32236c580f9a13,Kobieta,18,2021-09-06_19h25.53.957,rantool2,2021.1.4,Win32,74.94566439,6135e006383e6ea6c3d06a28,61364f03bcc54e4425680908,"[""period""]",0,[0.23760000002383208],28,0,28,0,1
,,,,,,,610a92950e32236c580f9a13,,,,,,610a92950e32236c580f9a13,Kobieta,18,2021-09-06_19h25.53.957,rantool2,2021.1.4,Win32,74.94566439,6135e006383e6ea6c3d06a28,61364f03bcc54e4425680908,"[""comma""]",0,[0.2847999999821127],29,0,29,0,1
,,,,,,,610a92950e32236c580f9a13,,,,,,610a92950e32236c580f9a13,Kobieta,18,2021-09-06_19h25.53.957,rantool2,2021.1.4,Win32,74.94566439,6135e006383e6ea6c3d06a28,61364f03bcc54e4425680908,"[""comma""]",0,[0.3160000000000025],30,0,30,0,1
,,,,,,,610a92950e32236c580f9a13,,,,,,610a92950e32236c580f9a13,Kobieta,18,2021-09-06_19h25.53.957,rantool2,2021.1.4,Win32,74.94566439,6135e006383e6ea6c3d06a28,61364f03bcc54e4425680908,"[""period""]",0,[0.29939999997617406],31,0,31,0,1
,,,,,,,610a92950e32236c580f9a13,,,,,,610a92950e32236c580f9a13,Kobieta,18,2021-09-06_19h25.53.957,rantool2,2021.1.4,Win32,74.94566439,6135e006383e6ea6c3d06a28,61364f03bcc54e4425680908,"[""period""]",0,[0.33869999998808],32,0,32,0,1
,,,,,,,610a92950e32236c580f9a13,,,,,,610a92950e32236c580f9a13,Kobieta,18,2021-09-06_19h25.53.957,rantool2,2021.1.4,Win32,74.94566439,6135e006383e6ea6c3d06a28,61364f03bcc54e4425680908,"[""period""]",0,[0.26610000002384027],33,0,33,0,1
,,,,,,,610a92950e32236c580f9a13,,,,,,610a92950e32236c580f9a13,Kobieta,18,2021-09-06_19h25.53.957,rantool2,2021.1.4,Win32,74.94566439,6135e006383e6ea6c3d06a28,61364f03bcc54e4425680908,"[""comma""]",0,[0.33739999997615655],34,0,34,0,1
,,,,,,,610a92950e32236c580f9a13,,,,,,610a92950e32236c580f9a13,Kobieta,18,2021-09-06_19h25.53.957,rantool2,2021.1.4,Win32,74.94566439,6135e006383e6ea6c3d06a28,61364f03bcc54e4425680908,"[""comma""]",0,[0.32059999999404454],35,0,35,0,1
,,,,,,,610a92950e32236c580f9a13,,,,,,610a92950e32236c580f9a13,Kobieta,18,2021-09-06_19h25.53.957,rantool2,2021.1.4,Win32,74.94566439,6135e006383e6ea6c3d06a28,61364f03bcc54e4425680908,"[""comma""]",0,[0.3120000000000118],36,0,36,0,1
,,,,,,,610a92950e32236c580f9a13,,,,,,610a92950e32236c580f9a13,Kobieta,18,2021-09-06_19h25.53.957,rantool2,2021.1.4,Win32,74.94566439,6135e006383e6ea6c3d06a28,61364f03bcc54e4425680908,"[""period""]",0,[0.41519999998809],37,0,37,0,1
,,,,,,,610a92950e32236c580f9a13,,,,,,610a92950e32236c580f9a13,Kobieta,18,2021-09-06_19h25.53.957,rantool2,2021.1.4,Win32,74.94566439,6135e006383e6ea6c3d06a28,61364f03bcc54e4425680908,"[""comma""]",0,[0.3106000000238396],38,0,38,0,1
,,,,,,,610a92950e32236c580f9a13,,,,,,610a92950e32236c580f9a13,Kobieta,18,2021-09-06_19h25.53.957,rantool2,2021.1.4,Win32,74.94566439,6135e006383e6ea6c3d06a28,61364f03bcc54e4425680908,"[""comma""]",0,[0.32319999998810545],39,0,39,0,1
,,,,,,,610a92950e32236c580f9a13,,,,,,610a92950e32236c580f9a13,Kobieta,18,2021-09-06_19h25.53.957,rantool2,2021.1.4,Win32,74.94566439,6135e006383e6ea6c3d06a28,61364f03bcc54e4425680908,"[""comma""]",0,[0.3337000000178705],40,0,40,0,1
,,,,,,,610a92950e32236c580f9a13,,,,,,610a92950e32236c580f9a13,Kobieta,18,2021-09-06_19h25.53.957,rantool2,2021.1.4,Win32,74.94566439,6135e006383e6ea6c3d06a28,61364f03bcc54e4425680908,"[""comma""]",0,[0.4416999999880886],41,0,41,0,1
,,,,,,,610a92950e32236c580f9a13,,,,,,610a92950e32236c580f9a13,Kobieta,18,2021-09-06_19h25.53.957,rantool2,2021.1.4,Win32,74.94566439,6135e006383e6ea6c3d06a28,61364f03bcc54e4425680908,"[""period""]",0,[0.45699999999999363],42,0,42,0,1
,,,,,,,610a92950e32236c580f9a13,,,,,,610a92950e32236c580f9a13,Kobieta,18,2021-09-06_19h25.53.957,rantool2,2021.1.4,Win32,74.94566439,6135e006383e6ea6c3d06a28,61364f03bcc54e4425680908,"[""period""]",0,[0.35250000000002046],43,0,43,0,1
,,,,,,,610a92950e32236c580f9a13,,,,,,610a92950e32236c580f9a13,Kobieta,18,2021-09-06_19h25.53.957,rantool2,2021.1.4,Win32,74.94566439,6135e006383e6ea6c3d06a28,61364f03bcc54e4425680908,"[""period""]",0,[0.26369999998809135],44,0,44,0,1
,,,,,,,610a92950e32236c580f9a13,,,,,,610a92950e32236c580f9a13,Kobieta,18,2021-09-06_19h25.53.957,rantool2,2021.1.4,Win32,74.94566439,6135e006383e6ea6c3d06a28,61364f03bcc54e4425680908,"[""period""]",0,[0.19899999999995543],45,0,45,0,1
,,,,,,,610a92950e32236c580f9a13,,,,,,610a92950e32236c580f9a13,Kobieta,18,2021-09-06_19h25.53.957,rantool2,2021.1.4,Win32,74.94566439,6135e006383e6ea6c3d06a28,61364f03bcc54e4425680908,"[""comma""]",0,[0.2861999999880709],46,0,46,0,1
,,,,,,,610a92950e32236c580f9a13,,,,,,610a92950e32236c580f9a13,Kobieta,18,2021-09-06_19h25.53.957,rantool2,2021.1.4,Win32,74.94566439,6135e006383e6ea6c3d06a28,61364f03bcc54e4425680908,"[""period""]",0,[0.41399999999998727],47,0,47,0,1
,,,,,,,610a92950e32236c580f9a13,,,,,,610a92950e32236c580f9a13,Kobieta,18,2021-09-06_19h25.53.957,rantool2,2021.1.4,Win32,74.94566439,6135e006383e6ea6c3d06a28,61364f03bcc54e4425680908,"[""comma""]",0,[0.38900000000001],48,0,48,0,1
,,,,,,,610a92950e32236c580f9a13,,,,,,610a92950e32236c580f9a13,Kobieta,18,2021-09-06_19h25.53.957,rantool2,2021.1.4,Win32,74.94566439,6135e006383e6ea6c3d06a28,61364f03bcc54e4425680908,"[""period""]",0,[0.22809999999407182],49,0,49,0,1
,,,,,,,610a92950e32236c580f9a13,,,,,,610a92950e32236c580f9a13,Kobieta,18,2021-09-06_19h25.53.957,rantool2,2021.1.4,Win32,74.94566439,6135e006383e6ea6c3d06a28,61364f03bcc54e4425680908,"[""period""]",0,[0.38749999999998863],50,0,50,0,1
,,,,,,,610a92950e32236c580f9a13,,,,,,610a92950e32236c580f9a13,Kobieta,18,2021-09-06_19h25.53.957,rantool2,2021.1.4,Win32,74.94566439,6135e006383e6ea6c3d06a28,61364f03bcc54e4425680908,"[""period""]",0,[0.29869999998811636],51,0,51,0,1
,,,,,,,610a92950e32236c580f9a13,,,,,,610a92950e32236c580f9a13,Kobieta,18,2021-09-06_19h25.53.957,rantool2,2021.1.4,Win32,74.94566439,6135e006383e6ea6c3d06a28,61364f03bcc54e4425680908,"[""comma""]",0,[0.3460999999940668],52,0,52,0,1
,,,,,,,610a92950e32236c580f9a13,,,,,,610a92950e32236c580f9a13,Kobieta,18,2021-09-06_19h25.53.957,rantool2,2021.1.4,Win32,74.94566439,6135e006383e6ea6c3d06a28,61364f03bcc54e4425680908,"[""comma""]",0,[0.20129999998215453],53,0,53,0,1
,,,,,,,610a92950e32236c580f9a13,,,,,,610a92950e32236c580f9a13,Kobieta,18,2021-09-06_19h25.53.957,rantool2,2021.1.4,Win32,74.94566439,6135e006383e6ea6c3d06a28,61364f03bcc54e4425680908,"[""comma""]",0,[0.18490000000599593],54,0,54,0,1
,,,,,,,610a92950e32236c580f9a13,,,,,,610a92950e32236c580f9a13,Kobieta,18,2021-09-06_19h25.53.957,rantool2,2021.1.4,Win32,74.94566439,6135e006383e6ea6c3d06a28,61364f03bcc54e4425680908,"[""comma""]",0,[0.2559999999999718],55,0,55,0,1
,,,,,,,610a92950e32236c580f9a13,,,,,,610a92950e32236c580f9a13,Kobieta,18,2021-09-06_19h25.53.957,rantool2,2021.1.4,Win32,74.94566439,6135e006383e6ea6c3d06a28,61364f03bcc54e4425680908,0,0,,56,0,56,0,1
,,,,,,,610a92950e32236c580f9a13,,,,,,610a92950e32236c580f9a13,Kobieta,18,2021-09-06_19h25.53.957,rantool2,2021.1.4,Win32,74.94566439,6135e006383e6ea6c3d06a28,61364f03bcc54e4425680908,0,0,,57,0,57,0,1
,,,,,,,610a92950e32236c580f9a13,,,,,,610a92950e32236c580f9a13,Kobieta,18,2021-09-06_19h25.53.957,rantool2,2021.1.4,Win32,74.94566439,6135e006383e6ea6c3d06a28,61364f03bcc54e4425680908,0,0,,58,0,58,0,1
,,,,,,,610a92950e32236c580f9a13,,,,,,610a92950e32236c580f9a13,Kobieta,18,2021-09-06_19h25.53.957,rantool2,2021.1.4,Win32,74.94566439,6135e006383e6ea6c3d06a28,61364f03bcc54e4425680908,0,0,,59,0,59,0,1
,,,,,,,610a92950e32236c580f9a13,,,,,,610a92950e32236c580f9a13,Kobieta,18,2021-09-06_19h25.53.957,rantool2,2021.1.4,Win32,74.94566439,6135e006383e6ea6c3d06a28,61364f03bcc54e4425680908,"[""comma""]",0,[0.47359999999406455],60,0,60,0,1
,,,,,,,610a92950e32236c580f9a13,,,,,,610a92950e32236c580f9a13,Kobieta,18,2021-09-06_19h25.53.957,rantool2,2021.1.4,Win32,74.94566439,6135e006383e6ea6c3d06a28,61364f03bcc54e4425680908,"[""comma""]",0,[0.5445999999940341],61,0,61,0,1
,,,,,,,610a92950e32236c580f9a13,,,,,,610a92950e32236c580f9a13,Kobieta,18,2021-09-06_19h25.53.957,rantool2,2021.1.4,Win32,74.94566439,6135e006383e6ea6c3d06a28,61364f03bcc54e4425680908,"[""comma""]",0,[0.535900000005995],62,0,62,0,1
,,,,,,,610a92950e32236c580f9a13,,,,,,610a92950e32236c580f9a13,Kobieta,18,2021-09-06_19h25.53.957,rantool2,2021.1.4,Win32,74.94566439,6135e006383e6ea6c3d06a28,61364f03bcc54e4425680908,"[""period"",""comma""]",0,"[0.3833000000119,1.9669999999999845]",63,0,63,0,1
,,,,,,,610a92950e32236c580f9a13,,,,,,610a92950e32236c580f9a13,Kobieta,18,2021-09-06_19h25.53.957,rantool2,2021.1.4,Win32,74.94566439,6135e006383e6ea6c3d06a28,61364f03bcc54e4425680908,"[""comma""]",0,[0.9025000000000318],64,0,64,0,1
,,,,,,,610a92950e32236c580f9a13,,,,,,610a92950e32236c580f9a13,Kobieta,18,2021-09-06_19h25.53.957,rantool2,2021.1.4,Win32,74.94566439,6135e006383e6ea6c3d06a28,61364f03bcc54e4425680908,"[""period""]",0,[0.2511999999880459],65,0,65,0,1
,,,,,,,610a92950e32236c580f9a13,,,,,,610a92950e32236c580f9a13,Kobieta,18,2021-09-06_19h25.53.957,rantool2,2021.1.4,Win32,74.94566439,6135e006383e6ea6c3d06a28,61364f03bcc54e4425680908,"[""comma""]",0,[0.25059999999405136],66,0,66,0,1
,,,,,,,610a92950e32236c580f9a13,,,,,,610a92950e32236c580f9a13,Kobieta,18,2021-09-06_19h25.53.957,rantool2,2021.1.4,Win32,74.94566439,6135e006383e6ea6c3d06a28,61364f03bcc54e4425680908,"[""comma""]",0,[0.3136999999881027],67,0,67,0,1
,,,,,,,610a92950e32236c580f9a13,,,,,,610a92950e32236c580f9a13,Kobieta,18,2021-09-06_19h25.53.957,rantool2,2021.1.4,Win32,74.94566439,6135e006383e6ea6c3d06a28,61364f03bcc54e4425680908,"[""period""]",0,[0.3050000000000068],68,0,68,0,1
,,,,,,,610a92950e32236c580f9a13,,,,,,610a92950e32236c580f9a13,Kobieta,18,2021-09-06_19h25.53.957,rantool2,2021.1.4,Win32,74.94566439,6135e006383e6ea6c3d06a28,61364f03bcc54e4425680908,"[""period""]",0,[0.3444000000059191],69,0,69,0,1
,,,,,,,610a92950e32236c580f9a13,,,,,,610a92950e32236c580f9a13,Kobieta,18,2021-09-06_19h25.53.957,rantool2,2021.1.4,Win32,74.94566439,6135e006383e6ea6c3d06a28,61364f03bcc54e4425680908,"[""comma""]",0,[0.2235999999940077],70,0,70,0,1
,,,,,,,610a92950e32236c580f9a13,,,,,,610a92950e32236c580f9a13,Kobieta,18,2021-09-06_19h25.53.957,rantool2,2021.1.4,Win32,74.94566439,6135e006383e6ea6c3d06a28,61364f03bcc54e4425680908,"[""period""]",0,[0.2389999999999759],71,0,71,0,1
,,,,,,,610a92950e32236c580f9a13,,,,,,610a92950e32236c580f9a13,Kobieta,18,2021-09-06_19h25.53.957,rantool2,2021.1.4,Win32,74.94566439,6135e006383e6ea6c3d06a28,61364f03bcc54e4425680908,"[""period""]",0,[0.3503999999761618],72,0,72,0,1
,,,,,,,610a92950e32236c580f9a13,,,,,,610a92950e32236c580f9a13,Kobieta,18,2021-09-06_19h25.53.957,rantool2,2021.1.4,Win32,74.94566439,6135e006383e6ea6c3d06a28,61364f03bcc54e4425680908,"[""comma""]",0,[0.30959999999402044],73,0,73,0,1
,,,,,,,610a92950e32236c580f9a13,,,,,,610a92950e32236c580f9a13,Kobieta,18,2021-09-06_19h25.53.957,rantool2,2021.1.4,Win32,74.94566439,6135e006383e6ea6c3d06a28,61364f03bcc54e4425680908,"[""comma""]",0,[0.30689999997616724],74,0,74,0,1
,,,,,,,610a92950e32236c580f9a13,,,,,,610a92950e32236c580f9a13,Kobieta,18,2021-09-06_19h25.53.957,rantool2,2021.1.4,Win32,74.94566439,6135e006383e6ea6c3d06a28,61364f03bcc54e4425680908,"[""comma""]",0,[0.2601999999880604],75,0,75,0,1
,,,,,,,610a92950e32236c580f9a13,,,,,,610a92950e32236c580f9a13,Kobieta,18,2021-09-06_19h25.53.957,rantool2,2021.1.4,Win32,74.94566439,6135e006383e6ea6c3d06a28,61364f03bcc54e4425680908,"[""period""]",0,[0.2674999999999841],76,0,76,0,1
,,,,,,,610a92950e32236c580f9a13,,,,,,610a92950e32236c580f9a13,Kobieta,18,2021-09-06_19h25.53.957,rantool2,2021.1.4,Win32,74.94566439,6135e006383e6ea6c3d06a28,61364f03bcc54e4425680908,"[""period""]",0,[0.2802999999821054],77,0,77,0,1
,,,,,,,610a92950e32236c580f9a13,,,,,,610a92950e32236c580f9a13,Kobieta,18,2021-09-06_19h25.53.957,rantool2,2021.1.4,Win32,74.94566439,6135e006383e6ea6c3d06a28,61364f03bcc54e4425680908,"[""period""]",0,[0.18630000001195413],78,0,78,0,1
,,,,,,,610a92950e32236c580f9a13,,,,,,610a92950e32236c580f9a13,Kobieta,18,2021-09-06_19h25.53.957,rantool2,2021.1.4,Win32,74.94566439,6135e006383e6ea6c3d06a28,61364f03bcc54e4425680908,"[""period""]",0,[0.27340000000594955],79,0,79,0,1
,,,,,,,610a92950e32236c580f9a13,,,,,,610a92950e32236c580f9a13,Kobieta,18,2021-09-06_19h25.53.957,rantool2,2021.1.4,Win32,74.94566439,6135e006383e6ea6c3d06a28,61364f03bcc54e4425680908,"[""period""]",0,[0.2567999999820927],80,0,80,0,1
,,,,,,,610a92950e32236c580f9a13,,,,,,610a92950e32236c580f9a13,Kobieta,18,2021-09-06_19h25.53.957,rantool2,2021.1.4,Win32,74.94566439,6135e006383e6ea6c3d06a28,61364f03bcc54e4425680908,"[""period""]",0,[0.32799999999997453],81,0,81,0,1
,,,,,,,610a92950e32236c580f9a13,,,,,,610a92950e32236c580f9a13,Kobieta,18,2021-09-06_19h25.53.957,rantool2,2021.1.4,Win32,74.94566439,6135e006383e6ea6c3d06a28,61364f03bcc54e4425680908,"[""period""]",0,[0.25529999998212816],82,0,82,0,1
,,,,,,,610a92950e32236c580f9a13,,,,,,610a92950e32236c580f9a13,Kobieta,18,2021-09-06_19h25.53.957,rantool2,2021.1.4,Win32,74.94566439,6135e006383e6ea6c3d06a28,61364f03bcc54e4425680908,"[""comma""]",0,[0.2306999999880759],83,0,83,0,1
,,,,,,,610a92950e32236c580f9a13,,,,,,610a92950e32236c580f9a13,Kobieta,18,2021-09-06_19h25.53.957,rantool2,2021.1.4,Win32,74.94566439,6135e006383e6ea6c3d06a28,61364f03bcc54e4425680908,"[""comma""]",0,[0.1072999999821036],84,0,84,0,1
,,,,,,,610a92950e32236c580f9a13,,,,,,610a92950e32236c580f9a13,Kobieta,18,2021-09-06_19h25.53.957,rantool2,2021.1.4,Win32,74.94566439,6135e006383e6ea6c3d06a28,61364f03bcc54e4425680908,"[""comma""]",0,[0.2664999999999509],85,0,85,0,1
,,,,,,,610a92950e32236c580f9a13,,,,,,610a92950e32236c580f9a13,Kobieta,18,2021-09-06_19h25.53.957,rantool2,2021.1.4,Win32,74.94566439,6135e006383e6ea6c3d06a28,61364f03bcc54e4425680908,"[""comma""]",0,[0.2136000000238596],86,0,86,0,1
,,,,,,,610a92950e32236c580f9a13,,,,,,610a92950e32236c580f9a13,Kobieta,18,2021-09-06_19h25.53.957,rantool2,2021.1.4,Win32,74.94566439,6135e006383e6ea6c3d06a28,61364f03bcc54e4425680908,"[""comma"",""comma""]",0,"[0.14519999998805133,1.5474000000059505]",87,0,87,0,1
,,,,,,,610a92950e32236c580f9a13,,,,,,610a92950e32236c580f9a13,Kobieta,18,2021-09-06_19h25.53.957,rantool2,2021.1.4,Win32,74.94566439,6135e006383e6ea6c3d06a28,61364f03bcc54e4425680908,"[""comma""]",0,[0.26459999999406136],88,0,88,0,1
,,,,,,,610a92950e32236c580f9a13,,,,,,610a92950e32236c580f9a13,Kobieta,18,2021-09-06_19h25.53.957,rantool2,2021.1.4,Win32,74.94566439,6135e006383e6ea6c3d06a28,61364f03bcc54e4425680908,"[""comma""]",0,[0.5916999999880659],89,0,89,0,1
,,,,,,,610a92950e32236c580f9a13,,,,,,610a92950e32236c580f9a13,Kobieta,18,2021-09-06_19h25.53.957,rantool2,2021.1.4,Win32,74.94566439,6135e006383e6ea6c3d06a28,61364f03bcc54e4425680908,"[""period""]",0,[0.535000000000025],90,0,90,0,1
,,,,,,,610a92950e32236c580f9a13,,,,,,610a92950e32236c580f9a13,Kobieta,18,2021-09-06_19h25.53.957,rantool2,2021.1.4,Win32,74.94566439,6135e006383e6ea6c3d06a28,61364f03bcc54e4425680908,"[""period""]",0,[0.710300000011955],91,0,91,0,1
,,,,,,,610a92950e32236c580f9a13,,,,,,610a92950e32236c580f9a13,Kobieta,18,2021-09-06_19h25.53.957,rantool2,2021.1.4,Win32,74.94566439,6135e006383e6ea6c3d06a28,61364f03bcc54e4425680908,"[""period""]",0,[0.4270000000000209],92,0,92,0,1
,,,,,,,610a92950e32236c580f9a13,,,,,,610a92950e32236c580f9a13,Kobieta,18,2021-09-06_19h25.53.957,rantool2,2021.1.4,Win32,74.94566439,6135e006383e6ea6c3d06a28,61364f03bcc54e4425680908,"[""period""]",0,[0.2449000000059982],93,0,93,0,1
,,,,,,,610a92950e32236c580f9a13,,,,,,610a92950e32236c580f9a13,Kobieta,18,2021-09-06_19h25.53.957,rantool2,2021.1.4,Win32,74.94566439,6135e006383e6ea6c3d06a28,61364f03bcc54e4425680908,"[""comma""]",0,[0.2523999999761486],94,0,94,0,1
,,,,,,,610a92950e32236c580f9a13,,,,,,610a92950e32236c580f9a13,Kobieta,18,2021-09-06_19h25.53.957,rantool2,2021.1.4,Win32,74.94566439,6135e006383e6ea6c3d06a28,61364f03bcc54e4425680908,"[""comma""]",0,[0.2516999999880909],95,0,95,0,1
,,,,,,,610a92950e32236c580f9a13,,,,,,610a92950e32236c580f9a13,Kobieta,18,2021-09-06_19h25.53.957,rantool2,2021.1.4,Win32,74.94566439,6135e006383e6ea6c3d06a28,61364f03bcc54e4425680908,"[""period""]",0,[0.29349999999999454],96,0,96,0,1
,,,,,,,610a92950e32236c580f9a13,,,,,,610a92950e32236c580f9a13,Kobieta,18,2021-09-06_19h25.53.957,rantool2,2021.1.4,Win32,74.94566439,6135e006383e6ea6c3d06a28,61364f03bcc54e4425680908,"[""comma""]",0,[0.2660999999940259],97,0,97,0,1
,,,,,,,610a92950e32236c580f9a13,,,,,,610a92950e32236c580f9a13,Kobieta,18,2021-09-06_19h25.53.957,rantool2,2021.1.4,Win32,74.94566439,6135e006383e6ea6c3d06a28,61364f03bcc54e4425680908,"[""period"",""period""]",0,"[0.017400000005977745,0.48940000000595774]",98,0,98,0,1
,,,,,,,610a92950e32236c580f9a13,,,,,,610a92950e32236c580f9a13,Kobieta,18,2021-09-06_19h25.53.957,rantool2,2021.1.4,Win32,74.94566439,6135e006383e6ea6c3d06a28,61364f03bcc54e4425680908,"[""comma""]",0,[0.2669999999999959],99,0,99,0,1
,,,,,,,610a92950e32236c580f9a13,,,,,,610a92950e32236c580f9a13,Kobieta,18,2021-09-06_19h25.53.957,rantool2,2021.1.4,Win32,74.94566439,6135e006383e6ea6c3d06a28,61364f03bcc54e4425680908,"[""comma""]",0,[0.23209999999403408],100,0,100,0,1
,,,,,,,610a92950e32236c580f9a13,,,,,,610a92950e32236c580f9a13,Kobieta,18,2021-09-06_19h25.53.957,rantool2,2021.1.4,Win32,74.94566439,6135e006383e6ea6c3d06a28,61364f03bcc54e4425680908,"[""comma""]",0,[0.279300000011915],101,0,101,0,1
,,,,,,,610a92950e32236c580f9a13,,,,,,610a92950e32236c580f9a13,Kobieta,18,2021-09-06_19h25.53.957,rantool2,2021.1.4,Win32,74.94566439,6135e006383e6ea6c3d06a28,61364f03bcc54e4425680908,"[""period""]",0,[0.2545999999940136],102,0,102,0,1
,,,,,,,610a92950e32236c580f9a13,,,,,,610a92950e32236c580f9a13,Kobieta,18,2021-09-06_19h25.53.957,rantool2,2021.1.4,Win32,74.94566439,6135e006383e6ea6c3d06a28,61364f03bcc54e4425680908,"[""period""]",0,[0.3419000000059782],103,0,103,0,1
,,,,,,,610a92950e32236c580f9a13,,,,,,610a92950e32236c580f9a13,Kobieta,18,2021-09-06_19h25.53.957,rantool2,2021.1.4,Win32,74.94566439,6135e006383e6ea6c3d06a28,61364f03bcc54e4425680908,"[""period""]",0,[0.3227999999821236],104,0,104,0,1
,,,,,,,610a92950e32236c580f9a13,,,,,,610a92950e32236c580f9a13,Kobieta,18,2021-09-06_19h25.53.957,rantool2,2021.1.4,Win32,74.94566439,6135e006383e6ea6c3d06a28,61364f03bcc54e4425680908,"[""period""]",0,[0.24990000000599366],105,0,105,0,1
,,,,,,,610a92950e32236c580f9a13,,,,,,610a92950e32236c580f9a13,Kobieta,18,2021-09-06_19h25.53.957,rantool2,2021.1.4,Win32,74.94566439,6135e006383e6ea6c3d06a28,61364f03bcc54e4425680908,"[""comma""]",0,[0.24919999998809317],106,0,106,0,1
,,,,,,,610a92950e32236c580f9a13,,,,,,610a92950e32236c580f9a13,Kobieta,18,2021-09-06_19h25.53.957,rantool2,2021.1.4,Win32,74.94566439,6135e006383e6ea6c3d06a28,61364f03bcc54e4425680908,"[""period""]",0,[0.3365000000000009],107,0,107,0,1
,,,,,,,610a92950e32236c580f9a13,,,,,,610a92950e32236c580f9a13,Kobieta,18,2021-09-06_19h25.53.957,rantool2,2021.1.4,Win32,74.94566439,6135e006383e6ea6c3d06a28,61364f03bcc54e4425680908,"[""period""]",0,[0.29590000000598593],108,0,108,0,1
,,,,,,,610a92950e32236c580f9a13,,,,,,610a92950e32236c580f9a13,Kobieta,18,2021-09-06_19h25.53.957,rantool2,2021.1.4,Win32,74.94566439,6135e006383e6ea6c3d06a28,61364f03bcc54e4425680908,"[""period""]",0,[0.23109999999405773],109,0,109,0,1
,,,,,,,610a92950e32236c580f9a13,,,,,,610a92950e32236c580f9a13,Kobieta,18,2021-09-06_19h25.53.957,rantool2,2021.1.4,Win32,74.94566439,6135e006383e6ea6c3d06a28,61364f03bcc54e4425680908,"[""comma""]",0,[0.23099999999999454],110,0,110,0,1
,,,,,,,610a92950e32236c580f9a13,,,,,,610a92950e32236c580f9a13,Kobieta,18,2021-09-06_19h25.53.957,rantool2,2021.1.4,Win32,74.94566439,6135e006383e6ea6c3d06a28,61364f03bcc54e4425680908,"[""comma""]",0,[0.3015999999940391],111,0,111,0,1
,,,,,,,610a92950e32236c580f9a13,,,,,,610a92950e32236c580f9a13,Kobieta,18,2021-09-06_19h25.53.957,rantool2,2021.1.4,Win32,74.94566439,6135e006383e6ea6c3d06a28,61364f03bcc54e4425680908,"[""comma""]",0,[0.2529999999999859],112,0,112,0,1
,,,,,,,610a92950e32236c580f9a13,,,,,,610a92950e32236c580f9a13,Kobieta,18,2021-09-06_19h25.53.957,rantool2,2021.1.4,Win32,74.94566439,6135e006383e6ea6c3d06a28,61364f03bcc54e4425680908,"[""period""]",0,[0.22040000000595228],113,0,113,0,1
,,,,,,,610a92950e32236c580f9a13,,,,,,610a92950e32236c580f9a13,Kobieta,18,2021-09-06_19h25.53.957,rantool2,2021.1.4,Win32,74.94566439,6135e006383e6ea6c3d06a28,61364f03bcc54e4425680908,"[""comma""]",0,[0.2515999999940277],114,0,114,0,1
,,,,,,,610a92950e32236c580f9a13,,,,,,610a92950e32236c580f9a13,Kobieta,18,2021-09-06_19h25.53.957,rantool2,2021.1.4,Win32,74.94566439,6135e006383e6ea6c3d06a28,61364f03bcc54e4425680908,"[""comma""]",0,[0.16300000000001091],115,0,115,0,1
,,,,,,,610a92950e32236c580f9a13,,,,,,610a92950e32236c580f9a13,Kobieta,18,2021-09-06_19h25.53.957,rantool2,2021.1.4,Win32,74.94566439,6135e006383e6ea6c3d06a28,61364f03bcc54e4425680908,"[""comma""]",0,[0.042299999982105874],116,0,116,0,1
,,,,,,,610a92950e32236c580f9a13,,,,,,610a92950e32236c580f9a13,Kobieta,18,2021-09-06_19h25.53.957,rantool2,2021.1.4,Win32,74.94566439,6135e006383e6ea6c3d06a28,61364f03bcc54e4425680908,"[""comma""]",0,[0.193599999994035],117,0,117,0,1
,,,,,,,610a92950e32236c580f9a13,,,,,,610a92950e32236c580f9a13,Kobieta,18,2021-09-06_19h25.53.957,rantool2,2021.1.4,Win32,74.94566439,6135e006383e6ea6c3d06a28,61364f03bcc54e4425680908,"[""comma""]",0,[0.1069999999999709],118,0,118,0,1
,,,,,,,610a92950e32236c580f9a13,,,,,,610a92950e32236c580f9a13,Kobieta,18,2021-09-06_19h25.53.957,rantool2,2021.1.4,Win32,74.94566439,6135e006383e6ea6c3d06a28,61364f03bcc54e4425680908,"[""comma""]",0,[0.31219999998808134],119,0,119,0,1
