key_resp_7.keys,key_resp_7.rt,trials_2.thisRepN,trials_2.thisTrialN,trials_2.thisN,trials_2.thisIndex,trials_2.ran,id,series_0,series_1,acss_0,acss_1,comparison,id*,Płeć*,Wiek*,date,expName,psychopyVersion,OS,frameRate,STUDY_ID,SESSION_ID,key_resp_5.keys,key_resp_5.corr,key_resp_5.rt,trials.thisRepN,trials.thisTrialN,trials.thisN,trials.thisIndex,trials.ran
j,2.4229,0,0,0,63,1,5d5440b03808390019b8df40,RRRRRRO,RRRRRRR,21.35278725,19.62521613,series_0,5d5440b03808390019b8df40,Kobieta,30,2021-09-06_19h09.06.387,rantool2,2021.1.4,MacIntel,59.84082341,6135e006383e6ea6c3d06a28,61364b04f8f6798b581bffac,,,,,,,,
f,2.9269,0,1,1,32,1,5d5440b03808390019b8df40,ROOOOOO,ROOOOOR,19.92253567,21.27974287,series_1,5d5440b03808390019b8df40,Kobieta,30,2021-09-06_19h09.06.387,rantool2,2021.1.4,MacIntel,59.84082341,6135e006383e6ea6c3d06a28,61364b04f8f6798b581bffac,,,,,,,,
f,2.4791,0,2,2,17,1,5d5440b03808390019b8df40,OROOORO,OROOORR,21.03750787,22.12173012,series_1,5d5440b03808390019b8df40,Kobieta,30,2021-09-06_19h09.06.387,rantool2,2021.1.4,MacIntel,59.84082341,6135e006383e6ea6c3d06a28,61364b04f8f6798b581bffac,,,,,,,,
j,2.2567,0,3,3,29,1,5d5440b03808390019b8df40,ORRRORO,ORRRORR,22.00300695,22.12173012,series_1,5d5440b03808390019b8df40,Kobieta,30,2021-09-06_19h09.06.387,rantool2,2021.1.4,MacIntel,59.84082341,6135e006383e6ea6c3d06a28,61364b04f8f6798b581bffac,,,,,,,,
f,2.4113,0,4,4,6,1,5d5440b03808390019b8df40,OOORROO,OOORROR,21.12383932,21.38562617,series_1,5d5440b03808390019b8df40,Kobieta,30,2021-09-06_19h09.06.387,rantool2,2021.1.4,MacIntel,59.84082341,6135e006383e6ea6c3d06a28,61364b04f8f6798b581bffac,,,,,,,,
f,2.5578,0,5,5,60,1,5d5440b03808390019b8df40,RRRROOO,RRRROOR,22.10108823,22.15934078,series_1,5d5440b03808390019b8df40,Kobieta,30,2021-09-06_19h09.06.387,rantool2,2021.1.4,MacIntel,59.84082341,6135e006383e6ea6c3d06a28,61364b04f8f6798b581bffac,,,,,,,,
j,1.5717,0,6,6,30,1,5d5440b03808390019b8df40,ORRRROO,ORRRROR,22.46748491,22.03072203,series_0,5d5440b03808390019b8df40,Kobieta,30,2021-09-06_19h09.06.387,rantool2,2021.1.4,MacIntel,59.84082341,6135e006383e6ea6c3d06a28,61364b04f8f6798b581bffac,,,,,,,,
j,1.7264,0,7,7,12,1,5d5440b03808390019b8df40,OORROOO,OORROOR,21.30250474,22.02786418,series_1,5d5440b03808390019b8df40,Kobieta,30,2021-09-06_19h09.06.387,rantool2,2021.1.4,MacIntel,59.84082341,6135e006383e6ea6c3d06a28,61364b04f8f6798b581bffac,,,,,,,,
j,2.9425,0,8,8,20,1,5d5440b03808390019b8df40,OROROOO,OROROOR,21.31236711,21.90565814,series_1,5d5440b03808390019b8df40,Kobieta,30,2021-09-06_19h09.06.387,rantool2,2021.1.4,MacIntel,59.84082341,6135e006383e6ea6c3d06a28,61364b04f8f6798b581bffac,,,,,,,,
f,1.7766,0,9,9,55,1,5d5440b03808390019b8df40,RRORRRO,RRORRRR,21.56657303,21.21223021,series_0,5d5440b03808390019b8df40,Kobieta,30,2021-09-06_19h09.06.387,rantool2,2021.1.4,MacIntel,59.84082341,6135e006383e6ea6c3d06a28,61364b04f8f6798b581bffac,,,,,,,,
j,2.1395,0,10,10,47,1,5d5440b03808390019b8df40,RORRRRO,RORRRRR,21.81333602,21.02936224,series_0,5d5440b03808390019b8df40,Kobieta,30,2021-09-06_19h09.06.387,rantool2,2021.1.4,MacIntel,59.84082341,6135e006383e6ea6c3d06a28,61364b04f8f6798b581bffac,,,,,,,,
j,3.3443,0,11,11,11,1,5d5440b03808390019b8df40,OORORRO,OORORRR,22.18365867,22.6797523,series_1,5d5440b03808390019b8df40,Kobieta,30,2021-09-06_19h09.06.387,rantool2,2021.1.4,MacIntel,59.84082341,6135e006383e6ea6c3d06a28,61364b04f8f6798b581bffac,,,,,,,,
f,2.6417,0,12,12,4,1,5d5440b03808390019b8df40,OOOROOO,OOOROOR,19.91402015,21.21223021,series_1,5d5440b03808390019b8df40,Kobieta,30,2021-09-06_19h09.06.387,rantool2,2021.1.4,MacIntel,59.84082341,6135e006383e6ea6c3d06a28,61364b04f8f6798b581bffac,,,,,,,,
j,1.8614,0,13,13,18,1,5d5440b03808390019b8df40,OROOROO,OROOROR,20.84860893,21.22513037,series_1,5d5440b03808390019b8df40,Kobieta,30,2021-09-06_19h09.06.387,rantool2,2021.1.4,MacIntel,59.84082341,6135e006383e6ea6c3d06a28,61364b04f8f6798b581bffac,,,,,,,,
j,1.99,0,14,14,35,1,5d5440b03808390019b8df40,ROOORRO,ROOORRR,21.76276513,22.16977179,series_1,5d5440b03808390019b8df40,Kobieta,30,2021-09-06_19h09.06.387,rantool2,2021.1.4,MacIntel,59.84082341,6135e006383e6ea6c3d06a28,61364b04f8f6798b581bffac,,,,,,,,
j,2.8247,0,15,15,33,1,5d5440b03808390019b8df40,ROOOORO,ROOOORR,20.83779602,22.03072203,series_1,5d5440b03808390019b8df40,Kobieta,30,2021-09-06_19h09.06.387,rantool2,2021.1.4,MacIntel,59.84082341,6135e006383e6ea6c3d06a28,61364b04f8f6798b581bffac,,,,,,,,
j,1.6077,0,16,16,8,1,5d5440b03808390019b8df40,OOROOOO,OOROOOR,19.91402015,20.89823192,series_1,5d5440b03808390019b8df40,Kobieta,30,2021-09-06_19h09.06.387,rantool2,2021.1.4,MacIntel,59.84082341,6135e006383e6ea6c3d06a28,61364b04f8f6798b581bffac,,,,,,,,
j,3.1266,0,17,17,22,1,5d5440b03808390019b8df40,ORORROO,ORORROR,22.02732763,21.57657071,series_0,5d5440b03808390019b8df40,Kobieta,30,2021-09-06_19h09.06.387,rantool2,2021.1.4,MacIntel,59.84082341,6135e006383e6ea6c3d06a28,61364b04f8f6798b581bffac,,,,,,,,
j,1.7918,0,18,18,16,1,5d5440b03808390019b8df40,OROOOOO,OROOOOR,20.43051175,21.17347734,series_1,5d5440b03808390019b8df40,Kobieta,30,2021-09-06_19h09.06.387,rantool2,2021.1.4,MacIntel,59.84082341,6135e006383e6ea6c3d06a28,61364b04f8f6798b581bffac,,,,,,,,
j,3.5603,0,19,19,53,1,5d5440b03808390019b8df40,RRORORO,RRORORR,20.71309134,21.90565814,series_1,5d5440b03808390019b8df40,Kobieta,30,2021-09-06_19h09.06.387,rantool2,2021.1.4,MacIntel,59.84082341,6135e006383e6ea6c3d06a28,61364b04f8f6798b581bffac,,,,,,,,
j,1.8055,0,20,20,14,1,5d5440b03808390019b8df40,OORRROO,OORRROR,22.24142883,22.16977179,series_0,5d5440b03808390019b8df40,Kobieta,30,2021-09-06_19h09.06.387,rantool2,2021.1.4,MacIntel,59.84082341,6135e006383e6ea6c3d06a28,61364b04f8f6798b581bffac,,,,,,,,
j,1.7075,0,21,21,13,1,5d5440b03808390019b8df40,OORRORO,OORRORR,21.66733484,22.11181017,series_1,5d5440b03808390019b8df40,Kobieta,30,2021-09-06_19h09.06.387,rantool2,2021.1.4,MacIntel,59.84082341,6135e006383e6ea6c3d06a28,61364b04f8f6798b581bffac,,,,,,,,
j,2.0898,0,22,22,0,1,5d5440b03808390019b8df40,OOOOOOO,OOOOOOR,18.52739004,19.62521613,series_1,5d5440b03808390019b8df40,Kobieta,30,2021-09-06_19h09.06.387,rantool2,2021.1.4,MacIntel,59.84082341,6135e006383e6ea6c3d06a28,61364b04f8f6798b581bffac,,,,,,,,
f,3.0606,0,23,23,49,1,5d5440b03808390019b8df40,RROOORO,RROOORR,21.76276513,22.53364006,series_1,5d5440b03808390019b8df40,Kobieta,30,2021-09-06_19h09.06.387,rantool2,2021.1.4,MacIntel,59.84082341,6135e006383e6ea6c3d06a28,61364b04f8f6798b581bffac,,,,,,,,
j,2.0553,0,24,24,9,1,5d5440b03808390019b8df40,OOROORO,OOROORR,21.07991943,22.2428857,series_1,5d5440b03808390019b8df40,Kobieta,30,2021-09-06_19h09.06.387,rantool2,2021.1.4,MacIntel,59.84082341,6135e006383e6ea6c3d06a28,61364b04f8f6798b581bffac,,,,,,,,
f,2.9759,0,25,25,28,1,5d5440b03808390019b8df40,ORRROOO,ORRROOR,22.24142883,22.53364006,series_1,5d5440b03808390019b8df40,Kobieta,30,2021-09-06_19h09.06.387,rantool2,2021.1.4,MacIntel,59.84082341,6135e006383e6ea6c3d06a28,61364b04f8f6798b581bffac,,,,,,,,
j,1.4438,0,26,26,46,1,5d5440b03808390019b8df40,RORRROO,RORRROR,22.00300695,21.24781509,series_0,5d5440b03808390019b8df40,Kobieta,30,2021-09-06_19h09.06.387,rantool2,2021.1.4,MacIntel,59.84082341,6135e006383e6ea6c3d06a28,61364b04f8f6798b581bffac,,,,,,,,
j,1.8898,0,27,27,26,1,5d5440b03808390019b8df40,ORROROO,ORROROR,22.02732763,21.71443381,series_0,5d5440b03808390019b8df40,Kobieta,30,2021-09-06_19h09.06.387,rantool2,2021.1.4,MacIntel,59.84082341,6135e006383e6ea6c3d06a28,61364b04f8f6798b581bffac,,,,,,,,
j,2.0732,0,28,28,7,1,5d5440b03808390019b8df40,OOORRRO,OOORRRR,21.6194508,21.899017,series_1,5d5440b03808390019b8df40,Kobieta,30,2021-09-06_19h09.06.387,rantool2,2021.1.4,MacIntel,59.84082341,6135e006383e6ea6c3d06a28,61364b04f8f6798b581bffac,,,,,,,,
f,1.8723,0,29,29,3,1,5d5440b03808390019b8df40,OOOORRO,OOOORRR,20.90986523,21.74922619,series_1,5d5440b03808390019b8df40,Kobieta,30,2021-09-06_19h09.06.387,rantool2,2021.1.4,MacIntel,59.84082341,6135e006383e6ea6c3d06a28,61364b04f8f6798b581bffac,,,,,,,,
j,1.3086,0,30,30,51,1,5d5440b03808390019b8df40,RROORRO,RROORRR,21.89852628,22.02786418,series_1,5d5440b03808390019b8df40,Kobieta,30,2021-09-06_19h09.06.387,rantool2,2021.1.4,MacIntel,59.84082341,6135e006383e6ea6c3d06a28,61364b04f8f6798b581bffac,,,,,,,,
f,3.0923,0,31,31,23,1,5d5440b03808390019b8df40,ORORRRO,ORORRRR,22.1285618,21.9921709,series_0,5d5440b03808390019b8df40,Kobieta,30,2021-09-06_19h09.06.387,rantool2,2021.1.4,MacIntel,59.84082341,6135e006383e6ea6c3d06a28,61364b04f8f6798b581bffac,,,,,,,,
j,1.0735,0,32,32,62,1,5d5440b03808390019b8df40,RRRRROO,RRRRROR,22.16413392,21.27974287,series_0,5d5440b03808390019b8df40,Kobieta,30,2021-09-06_19h09.06.387,rantool2,2021.1.4,MacIntel,59.84082341,6135e006383e6ea6c3d06a28,61364b04f8f6798b581bffac,,,,,,,,
j,2.2236,0,33,33,52,1,5d5440b03808390019b8df40,RROROOO,RROROOR,22.18365867,22.11097995,series_0,5d5440b03808390019b8df40,Kobieta,30,2021-09-06_19h09.06.387,rantool2,2021.1.4,MacIntel,59.84082341,6135e006383e6ea6c3d06a28,61364b04f8f6798b581bffac,,,,,,,,
j,2.3403,0,34,34,54,1,5d5440b03808390019b8df40,RRORROO,RRORROR,21.55250791,20.9984461,series_0,5d5440b03808390019b8df40,Kobieta,30,2021-09-06_19h09.06.387,rantool2,2021.1.4,MacIntel,59.84082341,6135e006383e6ea6c3d06a28,61364b04f8f6798b581bffac,,,,,,,,
f,3.3603,0,35,35,59,1,5d5440b03808390019b8df40,RRRORRO,RRRORRR,21.56657303,20.89823192,series_0,5d5440b03808390019b8df40,Kobieta,30,2021-09-06_19h09.06.387,rantool2,2021.1.4,MacIntel,59.84082341,6135e006383e6ea6c3d06a28,61364b04f8f6798b581bffac,,,,,,,,
f,2.3414,0,36,36,42,1,5d5440b03808390019b8df40,ROROROO,ROROROR,20.39515459,19.8361834,series_0,5d5440b03808390019b8df40,Kobieta,30,2021-09-06_19h09.06.387,rantool2,2021.1.4,MacIntel,59.84082341,6135e006383e6ea6c3d06a28,61364b04f8f6798b581bffac,,,,,,,,
j,1.5722,0,37,37,41,1,5d5440b03808390019b8df40,ROROORO,ROROORR,20.42602454,21.71443381,series_1,5d5440b03808390019b8df40,Kobieta,30,2021-09-06_19h09.06.387,rantool2,2021.1.4,MacIntel,59.84082341,6135e006383e6ea6c3d06a28,61364b04f8f6798b581bffac,,,,,,,,
j,2.0105,0,38,38,44,1,5d5440b03808390019b8df40,RORROOO,RORROOR,21.66733484,22.02566557,series_1,5d5440b03808390019b8df40,Kobieta,30,2021-09-06_19h09.06.387,rantool2,2021.1.4,MacIntel,59.84082341,6135e006383e6ea6c3d06a28,61364b04f8f6798b581bffac,,,,,,,,
f,2.3434,0,39,39,48,1,5d5440b03808390019b8df40,RROOOOO,RROOOOR,20.90986523,22.15934078,series_1,5d5440b03808390019b8df40,Kobieta,30,2021-09-06_19h09.06.387,rantool2,2021.1.4,MacIntel,59.84082341,6135e006383e6ea6c3d06a28,61364b04f8f6798b581bffac,,,,,,,,
f,2.1787,0,40,40,36,1,5d5440b03808390019b8df40,ROOROOO,ROOROOR,21.07991943,20.9984461,series_0,5d5440b03808390019b8df40,Kobieta,30,2021-09-06_19h09.06.387,rantool2,2021.1.4,MacIntel,59.84082341,6135e006383e6ea6c3d06a28,61364b04f8f6798b581bffac,,,,,,,,
f,2.5757,0,41,41,43,1,5d5440b03808390019b8df40,RORORRO,RORORRR,20.71309134,21.07490964,series_1,5d5440b03808390019b8df40,Kobieta,30,2021-09-06_19h09.06.387,rantool2,2021.1.4,MacIntel,59.84082341,6135e006383e6ea6c3d06a28,61364b04f8f6798b581bffac,,,,,,,,
j,2.3472,0,42,42,57,1,5d5440b03808390019b8df40,RRROORO,RRROORR,21.82425538,22.07102821,series_1,5d5440b03808390019b8df40,Kobieta,30,2021-09-06_19h09.06.387,rantool2,2021.1.4,MacIntel,59.84082341,6135e006383e6ea6c3d06a28,61364b04f8f6798b581bffac,,,,,,,,
f,1.7894,0,43,43,40,1,5d5440b03808390019b8df40,ROROOOO,ROROOOR,20.87963819,21.37121559,series_1,5d5440b03808390019b8df40,Kobieta,30,2021-09-06_19h09.06.387,rantool2,2021.1.4,MacIntel,59.84082341,6135e006383e6ea6c3d06a28,61364b04f8f6798b581bffac,,,,,,,,
j,2.5577,0,44,44,25,1,5d5440b03808390019b8df40,ORROORO,ORROORR,21.79500819,22.61624387,series_1,5d5440b03808390019b8df40,Kobieta,30,2021-09-06_19h09.06.387,rantool2,2021.1.4,MacIntel,59.84082341,6135e006383e6ea6c3d06a28,61364b04f8f6798b581bffac,,,,,,,,
f,3.397,0,45,45,15,1,5d5440b03808390019b8df40,OORRRRO,OORRRRR,22.10108823,21.74922619,series_0,5d5440b03808390019b8df40,Kobieta,30,2021-09-06_19h09.06.387,rantool2,2021.1.4,MacIntel,59.84082341,6135e006383e6ea6c3d06a28,61364b04f8f6798b581bffac,,,,,,,,
j,2.1415,0,46,46,34,1,5d5440b03808390019b8df40,ROOOROO,ROOOROR,21.03750787,21.24781509,series_1,5d5440b03808390019b8df40,Kobieta,30,2021-09-06_19h09.06.387,rantool2,2021.1.4,MacIntel,59.84082341,6135e006383e6ea6c3d06a28,61364b04f8f6798b581bffac,,,,,,,,
f,2.3762,0,47,47,1,1,5d5440b03808390019b8df40,OOOOORO,OOOOORR,19.92253567,20.74050628,series_1,5d5440b03808390019b8df40,Kobieta,30,2021-09-06_19h09.06.387,rantool2,2021.1.4,MacIntel,59.84082341,6135e006383e6ea6c3d06a28,61364b04f8f6798b581bffac,,,,,,,,
j,2.2238,0,48,48,27,1,5d5440b03808390019b8df40,ORRORRO,ORRORRR,21.55250791,22.2428857,series_1,5d5440b03808390019b8df40,Kobieta,30,2021-09-06_19h09.06.387,rantool2,2021.1.4,MacIntel,59.84082341,6135e006383e6ea6c3d06a28,61364b04f8f6798b581bffac,,,,,,,,
j,2.0397,0,49,49,45,1,5d5440b03808390019b8df40,RORRORO,RORRORR,20.78182524,21.22513037,series_1,5d5440b03808390019b8df40,Kobieta,30,2021-09-06_19h09.06.387,rantool2,2021.1.4,MacIntel,59.84082341,6135e006383e6ea6c3d06a28,61364b04f8f6798b581bffac,,,,,,,,
j,1.9941,0,50,50,10,1,5d5440b03808390019b8df40,OOROROO,OOROROR,21.31236711,21.07490964,series_0,5d5440b03808390019b8df40,Kobieta,30,2021-09-06_19h09.06.387,rantool2,2021.1.4,MacIntel,59.84082341,6135e006383e6ea6c3d06a28,61364b04f8f6798b581bffac,,,,,,,,
j,2.2739,0,51,51,58,1,5d5440b03808390019b8df40,RRROROO,RRROROR,22.1285618,21.37121559,series_0,5d5440b03808390019b8df40,Kobieta,30,2021-09-06_19h09.06.387,rantool2,2021.1.4,MacIntel,59.84082341,6135e006383e6ea6c3d06a28,61364b04f8f6798b581bffac,,,,,,,,
j,1.6427,0,52,52,2,1,5d5440b03808390019b8df40,OOOOROO,OOOOROR,20.43051175,21.02936224,series_1,5d5440b03808390019b8df40,Kobieta,30,2021-09-06_19h09.06.387,rantool2,2021.1.4,MacIntel,59.84082341,6135e006383e6ea6c3d06a28,61364b04f8f6798b581bffac,,,,,,,,
j,2.2573,0,53,53,19,1,5d5440b03808390019b8df40,OROORRO,OROORRR,21.73568164,22.11181017,series_1,5d5440b03808390019b8df40,Kobieta,30,2021-09-06_19h09.06.387,rantool2,2021.1.4,MacIntel,59.84082341,6135e006383e6ea6c3d06a28,61364b04f8f6798b581bffac,,,,,,,,
f,2.4287,0,54,54,21,1,5d5440b03808390019b8df40,ORORORO,ORORORR,20.39515459,22.06781359,series_1,5d5440b03808390019b8df40,Kobieta,30,2021-09-06_19h09.06.387,rantool2,2021.1.4,MacIntel,59.84082341,6135e006383e6ea6c3d06a28,61364b04f8f6798b581bffac,,,,,,,,
j,2.6934,0,55,55,50,1,5d5440b03808390019b8df40,RROOROO,RROOROR,21.73568164,22.02566557,series_1,5d5440b03808390019b8df40,Kobieta,30,2021-09-06_19h09.06.387,rantool2,2021.1.4,MacIntel,59.84082341,6135e006383e6ea6c3d06a28,61364b04f8f6798b581bffac,,,,,,,,
j,1.4889,0,56,56,61,1,5d5440b03808390019b8df40,RRRRORO,RRRRORR,21.81333602,21.17347734,series_0,5d5440b03808390019b8df40,Kobieta,30,2021-09-06_19h09.06.387,rantool2,2021.1.4,MacIntel,59.84082341,6135e006383e6ea6c3d06a28,61364b04f8f6798b581bffac,,,,,,,,
j,2.91,0,57,57,24,1,5d5440b03808390019b8df40,ORROOOO,ORROOOR,21.12383932,22.07102821,series_1,5d5440b03808390019b8df40,Kobieta,30,2021-09-06_19h09.06.387,rantool2,2021.1.4,MacIntel,59.84082341,6135e006383e6ea6c3d06a28,61364b04f8f6798b581bffac,,,,,,,,
j,1.8558,0,58,58,39,1,5d5440b03808390019b8df40,ROORRRO,ROORRRR,21.82425538,21.38562617,series_0,5d5440b03808390019b8df40,Kobieta,30,2021-09-06_19h09.06.387,rantool2,2021.1.4,MacIntel,59.84082341,6135e006383e6ea6c3d06a28,61364b04f8f6798b581bffac,,,,,,,,
j,2.2567,0,59,59,5,1,5d5440b03808390019b8df40,OOORORO,OOORORR,20.87963819,21.9921709,series_1,5d5440b03808390019b8df40,Kobieta,30,2021-09-06_19h09.06.387,rantool2,2021.1.4,MacIntel,59.84082341,6135e006383e6ea6c3d06a28,61364b04f8f6798b581bffac,,,,,,,,
j,1.7412,0,60,60,37,1,5d5440b03808390019b8df40,ROORORO,ROORORR,20.42602454,21.57657071,series_1,5d5440b03808390019b8df40,Kobieta,30,2021-09-06_19h09.06.387,rantool2,2021.1.4,MacIntel,59.84082341,6135e006383e6ea6c3d06a28,61364b04f8f6798b581bffac,,,,,,,,
f,2.4903,0,61,61,31,1,5d5440b03808390019b8df40,ORRRRRO,ORRRRRR,22.16413392,20.74050628,series_0,5d5440b03808390019b8df40,Kobieta,30,2021-09-06_19h09.06.387,rantool2,2021.1.4,MacIntel,59.84082341,6135e006383e6ea6c3d06a28,61364b04f8f6798b581bffac,,,,,,,,
j,1.2041,0,62,62,56,1,5d5440b03808390019b8df40,RRROOOO,RRROOOR,21.6194508,22.31681875,series_1,5d5440b03808390019b8df40,Kobieta,30,2021-09-06_19h09.06.387,rantool2,2021.1.4,MacIntel,59.84082341,6135e006383e6ea6c3d06a28,61364b04f8f6798b581bffac,,,,,,,,
f,1.7253,0,63,63,38,1,5d5440b03808390019b8df40,ROORROO,ROORROR,21.79500819,21.36812781,series_0,5d5440b03808390019b8df40,Kobieta,30,2021-09-06_19h09.06.387,rantool2,2021.1.4,MacIntel,59.84082341,6135e006383e6ea6c3d06a28,61364b04f8f6798b581bffac,,,,,,,,
,,,,,,,5d5440b03808390019b8df40,,,,,,5d5440b03808390019b8df40,Kobieta,30,2021-09-06_19h09.06.387,rantool2,2021.1.4,MacIntel,59.84082341,6135e006383e6ea6c3d06a28,61364b04f8f6798b581bffac,"[""comma""]",0,[1.3541999999880545],0,0,0,0,1
,,,,,,,5d5440b03808390019b8df40,,,,,,5d5440b03808390019b8df40,Kobieta,30,2021-09-06_19h09.06.387,rantool2,2021.1.4,MacIntel,59.84082341,6135e006383e6ea6c3d06a28,61364b04f8f6798b581bffac,"[""period""]",0,[1.6615999999642668],1,0,1,0,1
,,,,,,,5d5440b03808390019b8df40,,,,,,5d5440b03808390019b8df40,Kobieta,30,2021-09-06_19h09.06.387,rantool2,2021.1.4,MacIntel,59.84082341,6135e006383e6ea6c3d06a28,61364b04f8f6798b581bffac,"[""comma""]",0,[1.6225000000000023],2,0,2,0,1
,,,,,,,5d5440b03808390019b8df40,,,,,,5d5440b03808390019b8df40,Kobieta,30,2021-09-06_19h09.06.387,rantool2,2021.1.4,MacIntel,59.84082341,6135e006383e6ea6c3d06a28,61364b04f8f6798b581bffac,"[""comma""]",0,[1.2421999999880882],3,0,3,0,1
,,,,,,,5d5440b03808390019b8df40,,,,,,5d5440b03808390019b8df40,Kobieta,30,2021-09-06_19h09.06.387,rantool2,2021.1.4,MacIntel,59.84082341,6135e006383e6ea6c3d06a28,61364b04f8f6798b581bffac,"[""comma""]",0,[0.95980000001191],4,0,4,0,1
,,,,,,,5d5440b03808390019b8df40,,,,,,5d5440b03808390019b8df40,Kobieta,30,2021-09-06_19h09.06.387,rantool2,2021.1.4,MacIntel,59.84082341,6135e006383e6ea6c3d06a28,61364b04f8f6798b581bffac,"[""period""]",0,[1.1346999999880722],5,0,5,0,1
,,,,,,,5d5440b03808390019b8df40,,,,,,5d5440b03808390019b8df40,Kobieta,30,2021-09-06_19h09.06.387,rantool2,2021.1.4,MacIntel,59.84082341,6135e006383e6ea6c3d06a28,61364b04f8f6798b581bffac,"[""comma""]",0,[0.9751999999880354],6,0,6,0,1
,,,,,,,5d5440b03808390019b8df40,,,,,,5d5440b03808390019b8df40,Kobieta,30,2021-09-06_19h09.06.387,rantool2,2021.1.4,MacIntel,59.84082341,6135e006383e6ea6c3d06a28,61364b04f8f6798b581bffac,"[""period""]",0,[1.1206999999880622],7,0,7,0,1
,,,,,,,5d5440b03808390019b8df40,,,,,,5d5440b03808390019b8df40,Kobieta,30,2021-09-06_19h09.06.387,rantool2,2021.1.4,MacIntel,59.84082341,6135e006383e6ea6c3d06a28,61364b04f8f6798b581bffac,"[""comma""]",0,[1.155199999988099],8,0,8,0,1
,,,,,,,5d5440b03808390019b8df40,,,,,,5d5440b03808390019b8df40,Kobieta,30,2021-09-06_19h09.06.387,rantool2,2021.1.4,MacIntel,59.84082341,6135e006383e6ea6c3d06a28,61364b04f8f6798b581bffac,"[""period""]",0,[1.0702000000476346],9,0,9,0,1
,,,,,,,5d5440b03808390019b8df40,,,,,,5d5440b03808390019b8df40,Kobieta,30,2021-09-06_19h09.06.387,rantool2,2021.1.4,MacIntel,59.84082341,6135e006383e6ea6c3d06a28,61364b04f8f6798b581bffac,"[""period""]",0,[1.2541000000238114],10,0,10,0,1
,,,,,,,5d5440b03808390019b8df40,,,,,,5d5440b03808390019b8df40,Kobieta,30,2021-09-06_19h09.06.387,rantool2,2021.1.4,MacIntel,59.84082341,6135e006383e6ea6c3d06a28,61364b04f8f6798b581bffac,"[""comma""]",0,[0.8586999999880618],11,0,11,0,1
,,,,,,,5d5440b03808390019b8df40,,,,,,5d5440b03808390019b8df40,Kobieta,30,2021-09-06_19h09.06.387,rantool2,2021.1.4,MacIntel,59.84082341,6135e006383e6ea6c3d06a28,61364b04f8f6798b581bffac,"[""period""]",0,[1.021899999976199],12,0,12,0,1
,,,,,,,5d5440b03808390019b8df40,,,,,,5d5440b03808390019b8df40,Kobieta,30,2021-09-06_19h09.06.387,rantool2,2021.1.4,MacIntel,59.84082341,6135e006383e6ea6c3d06a28,61364b04f8f6798b581bffac,"[""period""]",0,[1.0886000000238596],13,0,13,0,1
,,,,,,,5d5440b03808390019b8df40,,,,,,5d5440b03808390019b8df40,Kobieta,30,2021-09-06_19h09.06.387,rantool2,2021.1.4,MacIntel,59.84082341,6135e006383e6ea6c3d06a28,61364b04f8f6798b581bffac,"[""period""]",0,[0.7728000000118982],14,0,14,0,1
,,,,,,,5d5440b03808390019b8df40,,,,,,5d5440b03808390019b8df40,Kobieta,30,2021-09-06_19h09.06.387,rantool2,2021.1.4,MacIntel,59.84082341,6135e006383e6ea6c3d06a28,61364b04f8f6798b581bffac,"[""comma""]",0,[0.535399999976164],15,0,15,0,1
,,,,,,,5d5440b03808390019b8df40,,,,,,5d5440b03808390019b8df40,Kobieta,30,2021-09-06_19h09.06.387,rantool2,2021.1.4,MacIntel,59.84082341,6135e006383e6ea6c3d06a28,61364b04f8f6798b581bffac,"[""period""]",0,[0.6190000000000282],16,0,16,0,1
,,,,,,,5d5440b03808390019b8df40,,,,,,5d5440b03808390019b8df40,Kobieta,30,2021-09-06_19h09.06.387,rantool2,2021.1.4,MacIntel,59.84082341,6135e006383e6ea6c3d06a28,61364b04f8f6798b581bffac,"[""period""]",0,[1.3564000000357623],17,0,17,0,1
,,,,,,,5d5440b03808390019b8df40,,,,,,5d5440b03808390019b8df40,Kobieta,30,2021-09-06_19h09.06.387,rantool2,2021.1.4,MacIntel,59.84082341,6135e006383e6ea6c3d06a28,61364b04f8f6798b581bffac,"[""comma""]",0,[1.2375999999642318],18,0,18,0,1
,,,,,,,5d5440b03808390019b8df40,,,,,,5d5440b03808390019b8df40,Kobieta,30,2021-09-06_19h09.06.387,rantool2,2021.1.4,MacIntel,59.84082341,6135e006383e6ea6c3d06a28,61364b04f8f6798b581bffac,"[""comma""]",0,[1.1599000000358046],19,0,19,0,1
,,,,,,,5d5440b03808390019b8df40,,,,,,5d5440b03808390019b8df40,Kobieta,30,2021-09-06_19h09.06.387,rantool2,2021.1.4,MacIntel,59.84082341,6135e006383e6ea6c3d06a28,61364b04f8f6798b581bffac,"[""comma""]",0,[1.2088000000119337],20,0,20,0,1
,,,,,,,5d5440b03808390019b8df40,,,,,,5d5440b03808390019b8df40,Kobieta,30,2021-09-06_19h09.06.387,rantool2,2021.1.4,MacIntel,59.84082341,6135e006383e6ea6c3d06a28,61364b04f8f6798b581bffac,"[""period""]",0,[1.0591000000238182],21,0,21,0,1
,,,,,,,5d5440b03808390019b8df40,,,,,,5d5440b03808390019b8df40,Kobieta,30,2021-09-06_19h09.06.387,rantool2,2021.1.4,MacIntel,59.84082341,6135e006383e6ea6c3d06a28,61364b04f8f6798b581bffac,"[""comma""]",0,[0.7866999999880591],22,0,22,0,1
,,,,,,,5d5440b03808390019b8df40,,,,,,5d5440b03808390019b8df40,Kobieta,30,2021-09-06_19h09.06.387,rantool2,2021.1.4,MacIntel,59.84082341,6135e006383e6ea6c3d06a28,61364b04f8f6798b581bffac,"[""period""]",0,[1.0571000000238655],23,0,23,0,1
,,,,,,,5d5440b03808390019b8df40,,,,,,5d5440b03808390019b8df40,Kobieta,30,2021-09-06_19h09.06.387,rantool2,2021.1.4,MacIntel,59.84082341,6135e006383e6ea6c3d06a28,61364b04f8f6798b581bffac,"[""comma"",""comma""]",0,"[0.5858000000119432,1.6380000000000337]",24,0,24,0,1
,,,,,,,5d5440b03808390019b8df40,,,,,,5d5440b03808390019b8df40,Kobieta,30,2021-09-06_19h09.06.387,rantool2,2021.1.4,MacIntel,59.84082341,6135e006383e6ea6c3d06a28,61364b04f8f6798b581bffac,"[""period""]",0,[1.2874000000357455],25,0,25,0,1
,,,,,,,5d5440b03808390019b8df40,,,,,,5d5440b03808390019b8df40,Kobieta,30,2021-09-06_19h09.06.387,rantool2,2021.1.4,MacIntel,59.84082341,6135e006383e6ea6c3d06a28,61364b04f8f6798b581bffac,"[""period""]",0,[1.2769999999999868],26,0,26,0,1
,,,,,,,5d5440b03808390019b8df40,,,,,,5d5440b03808390019b8df40,Kobieta,30,2021-09-06_19h09.06.387,rantool2,2021.1.4,MacIntel,59.84082341,6135e006383e6ea6c3d06a28,61364b04f8f6798b581bffac,"[""period""]",0,[1.0425000000000182],27,0,27,0,1
,,,,,,,5d5440b03808390019b8df40,,,,,,5d5440b03808390019b8df40,Kobieta,30,2021-09-06_19h09.06.387,rantool2,2021.1.4,MacIntel,59.84082341,6135e006383e6ea6c3d06a28,61364b04f8f6798b581bffac,"[""period""]",0,[0.5028999999761936],28,0,28,0,1
,,,,,,,5d5440b03808390019b8df40,,,,,,5d5440b03808390019b8df40,Kobieta,30,2021-09-06_19h09.06.387,rantool2,2021.1.4,MacIntel,59.84082341,6135e006383e6ea6c3d06a28,61364b04f8f6798b581bffac,"[""period""]",0,[0.2731999999880941],29,0,29,0,1
,,,,,,,5d5440b03808390019b8df40,,,,,,5d5440b03808390019b8df40,Kobieta,30,2021-09-06_19h09.06.387,rantool2,2021.1.4,MacIntel,59.84082341,6135e006383e6ea6c3d06a28,61364b04f8f6798b581bffac,"[""comma"",""comma""]",0,"[0.35300000000000864,1.074800000011919]",30,0,30,0,1
,,,,,,,5d5440b03808390019b8df40,,,,,,5d5440b03808390019b8df40,Kobieta,30,2021-09-06_19h09.06.387,rantool2,2021.1.4,MacIntel,59.84082341,6135e006383e6ea6c3d06a28,61364b04f8f6798b581bffac,"[""comma""]",0,[1.4378999999761959],31,0,31,0,1
,,,,,,,5d5440b03808390019b8df40,,,,,,5d5440b03808390019b8df40,Kobieta,30,2021-09-06_19h09.06.387,rantool2,2021.1.4,MacIntel,59.84082341,6135e006383e6ea6c3d06a28,61364b04f8f6798b581bffac,"[""period""]",0,[1.4606999999880372],32,0,32,0,1
,,,,,,,5d5440b03808390019b8df40,,,,,,5d5440b03808390019b8df40,Kobieta,30,2021-09-06_19h09.06.387,rantool2,2021.1.4,MacIntel,59.84082341,6135e006383e6ea6c3d06a28,61364b04f8f6798b581bffac,"[""comma""]",0,[1.2224999999999682],33,0,33,0,1
,,,,,,,5d5440b03808390019b8df40,,,,,,5d5440b03808390019b8df40,Kobieta,30,2021-09-06_19h09.06.387,rantool2,2021.1.4,MacIntel,59.84082341,6135e006383e6ea6c3d06a28,61364b04f8f6798b581bffac,"[""period""]",0,[1.0405000000000086],34,0,34,0,1
,,,,,,,5d5440b03808390019b8df40,,,,,,5d5440b03808390019b8df40,Kobieta,30,2021-09-06_19h09.06.387,rantool2,2021.1.4,MacIntel,59.84082341,6135e006383e6ea6c3d06a28,61364b04f8f6798b581bffac,"[""comma"",""comma""]",0,"[0.7533000000119614,1.35450000000003]",35,0,35,0,1
,,,,,,,5d5440b03808390019b8df40,,,,,,5d5440b03808390019b8df40,Kobieta,30,2021-09-06_19h09.06.387,rantool2,2021.1.4,MacIntel,59.84082341,6135e006383e6ea6c3d06a28,61364b04f8f6798b581bffac,"[""period""]",0,[1.2873999999761168],36,0,36,0,1
,,,,,,,5d5440b03808390019b8df40,,,,,,5d5440b03808390019b8df40,Kobieta,30,2021-09-06_19h09.06.387,rantool2,2021.1.4,MacIntel,59.84082341,6135e006383e6ea6c3d06a28,61364b04f8f6798b581bffac,"[""period""]",0,[1.6922999999522972],37,0,37,0,1
,,,,,,,5d5440b03808390019b8df40,,,,,,5d5440b03808390019b8df40,Kobieta,30,2021-09-06_19h09.06.387,rantool2,2021.1.4,MacIntel,59.84082341,6135e006383e6ea6c3d06a28,61364b04f8f6798b581bffac,"[""period""]",0,[1.371899999976165],38,0,38,0,1
,,,,,,,5d5440b03808390019b8df40,,,,,,5d5440b03808390019b8df40,Kobieta,30,2021-09-06_19h09.06.387,rantool2,2021.1.4,MacIntel,59.84082341,6135e006383e6ea6c3d06a28,61364b04f8f6798b581bffac,"[""comma""]",0,[1.1415999999642281],39,0,39,0,1
,,,,,,,5d5440b03808390019b8df40,,,,,,5d5440b03808390019b8df40,Kobieta,30,2021-09-06_19h09.06.387,rantool2,2021.1.4,MacIntel,59.84082341,6135e006383e6ea6c3d06a28,61364b04f8f6798b581bffac,"[""comma""]",0,[1.1549999999999727],40,0,40,0,1
,,,,,,,5d5440b03808390019b8df40,,,,,,5d5440b03808390019b8df40,Kobieta,30,2021-09-06_19h09.06.387,rantool2,2021.1.4,MacIntel,59.84082341,6135e006383e6ea6c3d06a28,61364b04f8f6798b581bffac,"[""comma""]",0,[1.089999999999975],41,0,41,0,1
,,,,,,,5d5440b03808390019b8df40,,,,,,5d5440b03808390019b8df40,Kobieta,30,2021-09-06_19h09.06.387,rantool2,2021.1.4,MacIntel,59.84082341,6135e006383e6ea6c3d06a28,61364b04f8f6798b581bffac,"[""period""]",0,[1.0534999999999854],42,0,42,0,1
,,,,,,,5d5440b03808390019b8df40,,,,,,5d5440b03808390019b8df40,Kobieta,30,2021-09-06_19h09.06.387,rantool2,2021.1.4,MacIntel,59.84082341,6135e006383e6ea6c3d06a28,61364b04f8f6798b581bffac,"[""comma""]",0,[1.108800000011911],43,0,43,0,1
,,,,,,,5d5440b03808390019b8df40,,,,,,5d5440b03808390019b8df40,Kobieta,30,2021-09-06_19h09.06.387,rantool2,2021.1.4,MacIntel,59.84082341,6135e006383e6ea6c3d06a28,61364b04f8f6798b581bffac,"[""comma""]",0,[1.3880000000000337],44,0,44,0,1
,,,,,,,5d5440b03808390019b8df40,,,,,,5d5440b03808390019b8df40,Kobieta,30,2021-09-06_19h09.06.387,rantool2,2021.1.4,MacIntel,59.84082341,6135e006383e6ea6c3d06a28,61364b04f8f6798b581bffac,"[""period""]",0,[1.2068000000119241],45,0,45,0,1
,,,,,,,5d5440b03808390019b8df40,,,,,,5d5440b03808390019b8df40,Kobieta,30,2021-09-06_19h09.06.387,rantool2,2021.1.4,MacIntel,59.84082341,6135e006383e6ea6c3d06a28,61364b04f8f6798b581bffac,"[""period""]",0,[1.1545999999642618],46,0,46,0,1
,,,,,,,5d5440b03808390019b8df40,,,,,,5d5440b03808390019b8df40,Kobieta,30,2021-09-06_19h09.06.387,rantool2,2021.1.4,MacIntel,59.84082341,6135e006383e6ea6c3d06a28,61364b04f8f6798b581bffac,"[""period""]",0,[1.339600000023836],47,0,47,0,1
,,,,,,,5d5440b03808390019b8df40,,,,,,5d5440b03808390019b8df40,Kobieta,30,2021-09-06_19h09.06.387,rantool2,2021.1.4,MacIntel,59.84082341,6135e006383e6ea6c3d06a28,61364b04f8f6798b581bffac,"[""comma""]",0,[1.5095999999642231],48,0,48,0,1
,,,,,,,5d5440b03808390019b8df40,,,,,,5d5440b03808390019b8df40,Kobieta,30,2021-09-06_19h09.06.387,rantool2,2021.1.4,MacIntel,59.84082341,6135e006383e6ea6c3d06a28,61364b04f8f6798b581bffac,"[""period""]",0,[1.1866999999880932],49,0,49,0,1
,,,,,,,5d5440b03808390019b8df40,,,,,,5d5440b03808390019b8df40,Kobieta,30,2021-09-06_19h09.06.387,rantool2,2021.1.4,MacIntel,59.84082341,6135e006383e6ea6c3d06a28,61364b04f8f6798b581bffac,"[""period""]",0,[1.3038999999761813],50,0,50,0,1
,,,,,,,5d5440b03808390019b8df40,,,,,,5d5440b03808390019b8df40,Kobieta,30,2021-09-06_19h09.06.387,rantool2,2021.1.4,MacIntel,59.84082341,6135e006383e6ea6c3d06a28,61364b04f8f6798b581bffac,"[""period""]",0,[1.2738999999761518],51,0,51,0,1
,,,,,,,5d5440b03808390019b8df40,,,,,,5d5440b03808390019b8df40,Kobieta,30,2021-09-06_19h09.06.387,rantool2,2021.1.4,MacIntel,59.84082341,6135e006383e6ea6c3d06a28,61364b04f8f6798b581bffac,"[""period""]",0,[1.1283000000119614],52,0,52,0,1
,,,,,,,5d5440b03808390019b8df40,,,,,,5d5440b03808390019b8df40,Kobieta,30,2021-09-06_19h09.06.387,rantool2,2021.1.4,MacIntel,59.84082341,6135e006383e6ea6c3d06a28,61364b04f8f6798b581bffac,"[""comma""]",0,[1.0718000000119332],53,0,53,0,1
,,,,,,,5d5440b03808390019b8df40,,,,,,5d5440b03808390019b8df40,Kobieta,30,2021-09-06_19h09.06.387,rantool2,2021.1.4,MacIntel,59.84082341,6135e006383e6ea6c3d06a28,61364b04f8f6798b581bffac,"[""period""]",0,[1.1366000000238046],54,0,54,0,1
,,,,,,,5d5440b03808390019b8df40,,,,,,5d5440b03808390019b8df40,Kobieta,30,2021-09-06_19h09.06.387,rantool2,2021.1.4,MacIntel,59.84082341,6135e006383e6ea6c3d06a28,61364b04f8f6798b581bffac,"[""comma""]",0,[1.0879999999999654],55,0,55,0,1
,,,,,,,5d5440b03808390019b8df40,,,,,,5d5440b03808390019b8df40,Kobieta,30,2021-09-06_19h09.06.387,rantool2,2021.1.4,MacIntel,59.84082341,6135e006383e6ea6c3d06a28,61364b04f8f6798b581bffac,"[""comma""]",0,[1.2371999999880927],56,0,56,0,1
,,,,,,,5d5440b03808390019b8df40,,,,,,5d5440b03808390019b8df40,Kobieta,30,2021-09-06_19h09.06.387,rantool2,2021.1.4,MacIntel,59.84082341,6135e006383e6ea6c3d06a28,61364b04f8f6798b581bffac,"[""comma""]",0,[1.3043999999761695],57,0,57,0,1
,,,,,,,5d5440b03808390019b8df40,,,,,,5d5440b03808390019b8df40,Kobieta,30,2021-09-06_19h09.06.387,rantool2,2021.1.4,MacIntel,59.84082341,6135e006383e6ea6c3d06a28,61364b04f8f6798b581bffac,"[""comma""]",0,[1.2369999999999663],58,0,58,0,1
,,,,,,,5d5440b03808390019b8df40,,,,,,5d5440b03808390019b8df40,Kobieta,30,2021-09-06_19h09.06.387,rantool2,2021.1.4,MacIntel,59.84082341,6135e006383e6ea6c3d06a28,61364b04f8f6798b581bffac,"[""period""]",0,[1.15329999995231],59,0,59,0,1
,,,,,,,5d5440b03808390019b8df40,,,,,,5d5440b03808390019b8df40,Kobieta,30,2021-09-06_19h09.06.387,rantool2,2021.1.4,MacIntel,59.84082341,6135e006383e6ea6c3d06a28,61364b04f8f6798b581bffac,"[""period""]",0,[1.2729000000357473],60,0,60,0,1
,,,,,,,5d5440b03808390019b8df40,,,,,,5d5440b03808390019b8df40,Kobieta,30,2021-09-06_19h09.06.387,rantool2,2021.1.4,MacIntel,59.84082341,6135e006383e6ea6c3d06a28,61364b04f8f6798b581bffac,"[""comma""]",0,[1.2869999999999777],61,0,61,0,1
,,,,,,,5d5440b03808390019b8df40,,,,,,5d5440b03808390019b8df40,Kobieta,30,2021-09-06_19h09.06.387,rantool2,2021.1.4,MacIntel,59.84082341,6135e006383e6ea6c3d06a28,61364b04f8f6798b581bffac,"[""period""]",0,[1.336999999999989],62,0,62,0,1
,,,,,,,5d5440b03808390019b8df40,,,,,,5d5440b03808390019b8df40,Kobieta,30,2021-09-06_19h09.06.387,rantool2,2021.1.4,MacIntel,59.84082341,6135e006383e6ea6c3d06a28,61364b04f8f6798b581bffac,"[""period""]",0,[1.0913000000119268],63,0,63,0,1
,,,,,,,5d5440b03808390019b8df40,,,,,,5d5440b03808390019b8df40,Kobieta,30,2021-09-06_19h09.06.387,rantool2,2021.1.4,MacIntel,59.84082341,6135e006383e6ea6c3d06a28,61364b04f8f6798b581bffac,"[""period""]",0,[1.154300000011915],64,0,64,0,1
,,,,,,,5d5440b03808390019b8df40,,,,,,5d5440b03808390019b8df40,Kobieta,30,2021-09-06_19h09.06.387,rantool2,2021.1.4,MacIntel,59.84082341,6135e006383e6ea6c3d06a28,61364b04f8f6798b581bffac,"[""comma""]",0,[1.5541999999881],65,0,65,0,1
,,,,,,,5d5440b03808390019b8df40,,,,,,5d5440b03808390019b8df40,Kobieta,30,2021-09-06_19h09.06.387,rantool2,2021.1.4,MacIntel,59.84082341,6135e006383e6ea6c3d06a28,61364b04f8f6798b581bffac,"[""period""]",0,[1.353999999999985],66,0,66,0,1
,,,,,,,5d5440b03808390019b8df40,,,,,,5d5440b03808390019b8df40,Kobieta,30,2021-09-06_19h09.06.387,rantool2,2021.1.4,MacIntel,59.84082341,6135e006383e6ea6c3d06a28,61364b04f8f6798b581bffac,"[""comma""]",0,[1.6214000000357487],67,0,67,0,1
,,,,,,,5d5440b03808390019b8df40,,,,,,5d5440b03808390019b8df40,Kobieta,30,2021-09-06_19h09.06.387,rantool2,2021.1.4,MacIntel,59.84082341,6135e006383e6ea6c3d06a28,61364b04f8f6798b581bffac,0,0,,68,0,68,0,1
,,,,,,,5d5440b03808390019b8df40,,,,,,5d5440b03808390019b8df40,Kobieta,30,2021-09-06_19h09.06.387,rantool2,2021.1.4,MacIntel,59.84082341,6135e006383e6ea6c3d06a28,61364b04f8f6798b581bffac,"[""period"",""period""]",0,"[0.36869999998810954,1.1063999999761904]",69,0,69,0,1
,,,,,,,5d5440b03808390019b8df40,,,,,,5d5440b03808390019b8df40,Kobieta,30,2021-09-06_19h09.06.387,rantool2,2021.1.4,MacIntel,59.84082341,6135e006383e6ea6c3d06a28,61364b04f8f6798b581bffac,"[""period""]",0,[1.2375000000000114],70,0,70,0,1
,,,,,,,5d5440b03808390019b8df40,,,,,,5d5440b03808390019b8df40,Kobieta,30,2021-09-06_19h09.06.387,rantool2,2021.1.4,MacIntel,59.84082341,6135e006383e6ea6c3d06a28,61364b04f8f6798b581bffac,"[""comma""]",0,[1.204899999976135],71,0,71,0,1
,,,,,,,5d5440b03808390019b8df40,,,,,,5d5440b03808390019b8df40,Kobieta,30,2021-09-06_19h09.06.387,rantool2,2021.1.4,MacIntel,59.84082341,6135e006383e6ea6c3d06a28,61364b04f8f6798b581bffac,"[""period""]",0,[1.0708999999761772],72,0,72,0,1
,,,,,,,5d5440b03808390019b8df40,,,,,,5d5440b03808390019b8df40,Kobieta,30,2021-09-06_19h09.06.387,rantool2,2021.1.4,MacIntel,59.84082341,6135e006383e6ea6c3d06a28,61364b04f8f6798b581bffac,"[""comma""]",0,[1.0400000000000205],73,0,73,0,1
,,,,,,,5d5440b03808390019b8df40,,,,,,5d5440b03808390019b8df40,Kobieta,30,2021-09-06_19h09.06.387,rantool2,2021.1.4,MacIntel,59.84082341,6135e006383e6ea6c3d06a28,61364b04f8f6798b581bffac,"[""period""]",0,[1.0031999999880554],74,0,74,0,1
,,,,,,,5d5440b03808390019b8df40,,,,,,5d5440b03808390019b8df40,Kobieta,30,2021-09-06_19h09.06.387,rantool2,2021.1.4,MacIntel,59.84082341,6135e006383e6ea6c3d06a28,61364b04f8f6798b581bffac,"[""period""]",0,[1.0206999999880395],75,0,75,0,1
,,,,,,,5d5440b03808390019b8df40,,,,,,5d5440b03808390019b8df40,Kobieta,30,2021-09-06_19h09.06.387,rantool2,2021.1.4,MacIntel,59.84082341,6135e006383e6ea6c3d06a28,61364b04f8f6798b581bffac,"[""period""]",0,[0.5734999999999673],76,0,76,0,1
,,,,,,,5d5440b03808390019b8df40,,,,,,5d5440b03808390019b8df40,Kobieta,30,2021-09-06_19h09.06.387,rantool2,2021.1.4,MacIntel,59.84082341,6135e006383e6ea6c3d06a28,61364b04f8f6798b581bffac,"[""comma""]",0,[1.0893000000119173],77,0,77,0,1
,,,,,,,5d5440b03808390019b8df40,,,,,,5d5440b03808390019b8df40,Kobieta,30,2021-09-06_19h09.06.387,rantool2,2021.1.4,MacIntel,59.84082341,6135e006383e6ea6c3d06a28,61364b04f8f6798b581bffac,0,0,,78,0,78,0,1
,,,,,,,5d5440b03808390019b8df40,,,,,,5d5440b03808390019b8df40,Kobieta,30,2021-09-06_19h09.06.387,rantool2,2021.1.4,MacIntel,59.84082341,6135e006383e6ea6c3d06a28,61364b04f8f6798b581bffac,"[""period"",""comma""]",0,"[0.0006999999880576979,1.4705000000000155]",79,0,79,0,1
,,,,,,,5d5440b03808390019b8df40,,,,,,5d5440b03808390019b8df40,Kobieta,30,2021-09-06_19h09.06.387,rantool2,2021.1.4,MacIntel,59.84082341,6135e006383e6ea6c3d06a28,61364b04f8f6798b581bffac,"[""period"",""period""]",0,"[0.4018999999761377,1.0866999999880704]",80,0,80,0,1
,,,,,,,5d5440b03808390019b8df40,,,,,,5d5440b03808390019b8df40,Kobieta,30,2021-09-06_19h09.06.387,rantool2,2021.1.4,MacIntel,59.84082341,6135e006383e6ea6c3d06a28,61364b04f8f6798b581bffac,"[""period""]",0,[1.2031000000238237],81,0,81,0,1
,,,,,,,5d5440b03808390019b8df40,,,,,,5d5440b03808390019b8df40,Kobieta,30,2021-09-06_19h09.06.387,rantool2,2021.1.4,MacIntel,59.84082341,6135e006383e6ea6c3d06a28,61364b04f8f6798b581bffac,"[""period""]",0,[1.1428999999761231],82,0,82,0,1
,,,,,,,5d5440b03808390019b8df40,,,,,,5d5440b03808390019b8df40,Kobieta,30,2021-09-06_19h09.06.387,rantool2,2021.1.4,MacIntel,59.84082341,6135e006383e6ea6c3d06a28,61364b04f8f6798b581bffac,"[""comma""]",0,[1.220300000011946],83,0,83,0,1
,,,,,,,5d5440b03808390019b8df40,,,,,,5d5440b03808390019b8df40,Kobieta,30,2021-09-06_19h09.06.387,rantool2,2021.1.4,MacIntel,59.84082341,6135e006383e6ea6c3d06a28,61364b04f8f6798b581bffac,"[""comma""]",0,[1.1535999999642286],84,0,84,0,1
,,,,,,,5d5440b03808390019b8df40,,,,,,5d5440b03808390019b8df40,Kobieta,30,2021-09-06_19h09.06.387,rantool2,2021.1.4,MacIntel,59.84082341,6135e006383e6ea6c3d06a28,61364b04f8f6798b581bffac,"[""period""]",0,[1.204499999999996],85,0,85,0,1
,,,,,,,5d5440b03808390019b8df40,,,,,,5d5440b03808390019b8df40,Kobieta,30,2021-09-06_19h09.06.387,rantool2,2021.1.4,MacIntel,59.84082341,6135e006383e6ea6c3d06a28,61364b04f8f6798b581bffac,"[""comma""]",0,[1.1366999999880818],86,0,86,0,1
,,,,,,,5d5440b03808390019b8df40,,,,,,5d5440b03808390019b8df40,Kobieta,30,2021-09-06_19h09.06.387,rantool2,2021.1.4,MacIntel,59.84082341,6135e006383e6ea6c3d06a28,61364b04f8f6798b581bffac,"[""comma""]",0,[1.3734999999999786],87,0,87,0,1
,,,,,,,5d5440b03808390019b8df40,,,,,,5d5440b03808390019b8df40,Kobieta,30,2021-09-06_19h09.06.387,rantool2,2021.1.4,MacIntel,59.84082341,6135e006383e6ea6c3d06a28,61364b04f8f6798b581bffac,"[""period""]",0,[1.254000000000019],88,0,88,0,1
,,,,,,,5d5440b03808390019b8df40,,,,,,5d5440b03808390019b8df40,Kobieta,30,2021-09-06_19h09.06.387,rantool2,2021.1.4,MacIntel,59.84082341,6135e006383e6ea6c3d06a28,61364b04f8f6798b581bffac,"[""period""]",0,[1.1359999999999673],89,0,89,0,1
,,,,,,,5d5440b03808390019b8df40,,,,,,5d5440b03808390019b8df40,Kobieta,30,2021-09-06_19h09.06.387,rantool2,2021.1.4,MacIntel,59.84082341,6135e006383e6ea6c3d06a28,61364b04f8f6798b581bffac,"[""comma""]",0,[1.1236999999880481],90,0,90,0,1
,,,,,,,5d5440b03808390019b8df40,,,,,,5d5440b03808390019b8df40,Kobieta,30,2021-09-06_19h09.06.387,rantool2,2021.1.4,MacIntel,59.84082341,6135e006383e6ea6c3d06a28,61364b04f8f6798b581bffac,"[""comma""]",0,[1.1896000000238587],91,0,91,0,1
,,,,,,,5d5440b03808390019b8df40,,,,,,5d5440b03808390019b8df40,Kobieta,30,2021-09-06_19h09.06.387,rantool2,2021.1.4,MacIntel,59.84082341,6135e006383e6ea6c3d06a28,61364b04f8f6798b581bffac,"[""period""]",0,[1.0368000000119082],92,0,92,0,1
,,,,,,,5d5440b03808390019b8df40,,,,,,5d5440b03808390019b8df40,Kobieta,30,2021-09-06_19h09.06.387,rantool2,2021.1.4,MacIntel,59.84082341,6135e006383e6ea6c3d06a28,61364b04f8f6798b581bffac,"[""period""]",0,[1.1724000000357364],93,0,93,0,1
,,,,,,,5d5440b03808390019b8df40,,,,,,5d5440b03808390019b8df40,Kobieta,30,2021-09-06_19h09.06.387,rantool2,2021.1.4,MacIntel,59.84082341,6135e006383e6ea6c3d06a28,61364b04f8f6798b581bffac,"[""period""]",0,[1.0891999999880682],94,0,94,0,1
,,,,,,,5d5440b03808390019b8df40,,,,,,5d5440b03808390019b8df40,Kobieta,30,2021-09-06_19h09.06.387,rantool2,2021.1.4,MacIntel,59.84082341,6135e006383e6ea6c3d06a28,61364b04f8f6798b581bffac,"[""period""]",0,[1.0903000000118936],95,0,95,0,1
,,,,,,,5d5440b03808390019b8df40,,,,,,5d5440b03808390019b8df40,Kobieta,30,2021-09-06_19h09.06.387,rantool2,2021.1.4,MacIntel,59.84082341,6135e006383e6ea6c3d06a28,61364b04f8f6798b581bffac,"[""comma""]",0,[1.0696000000238541],96,0,96,0,1
,,,,,,,5d5440b03808390019b8df40,,,,,,5d5440b03808390019b8df40,Kobieta,30,2021-09-06_19h09.06.387,rantool2,2021.1.4,MacIntel,59.84082341,6135e006383e6ea6c3d06a28,61364b04f8f6798b581bffac,"[""comma""]",0,[1.1871999999880813],97,0,97,0,1
,,,,,,,5d5440b03808390019b8df40,,,,,,5d5440b03808390019b8df40,Kobieta,30,2021-09-06_19h09.06.387,rantool2,2021.1.4,MacIntel,59.84082341,6135e006383e6ea6c3d06a28,61364b04f8f6798b581bffac,"[""period""]",0,[1.203699999988089],98,0,98,0,1
,,,,,,,5d5440b03808390019b8df40,,,,,,5d5440b03808390019b8df40,Kobieta,30,2021-09-06_19h09.06.387,rantool2,2021.1.4,MacIntel,59.84082341,6135e006383e6ea6c3d06a28,61364b04f8f6798b581bffac,"[""comma""]",0,[1.09490000003575],99,0,99,0,1
,,,,,,,5d5440b03808390019b8df40,,,,,,5d5440b03808390019b8df40,Kobieta,30,2021-09-06_19h09.06.387,rantool2,2021.1.4,MacIntel,59.84082341,6135e006383e6ea6c3d06a28,61364b04f8f6798b581bffac,"[""period""]",0,[1.170399999976155],100,0,100,0,1
,,,,,,,5d5440b03808390019b8df40,,,,,,5d5440b03808390019b8df40,Kobieta,30,2021-09-06_19h09.06.387,rantool2,2021.1.4,MacIntel,59.84082341,6135e006383e6ea6c3d06a28,61364b04f8f6798b581bffac,"[""period""]",0,[1.2035000000000196],101,0,101,0,1
,,,,,,,5d5440b03808390019b8df40,,,,,,5d5440b03808390019b8df40,Kobieta,30,2021-09-06_19h09.06.387,rantool2,2021.1.4,MacIntel,59.84082341,6135e006383e6ea6c3d06a28,61364b04f8f6798b581bffac,"[""period""]",0,[1.6093999999761195],102,0,102,0,1
,,,,,,,5d5440b03808390019b8df40,,,,,,5d5440b03808390019b8df40,Kobieta,30,2021-09-06_19h09.06.387,rantool2,2021.1.4,MacIntel,59.84082341,6135e006383e6ea6c3d06a28,61364b04f8f6798b581bffac,"[""period""]",0,[1.6376000000238378],103,0,103,0,1
,,,,,,,5d5440b03808390019b8df40,,,,,,5d5440b03808390019b8df40,Kobieta,30,2021-09-06_19h09.06.387,rantool2,2021.1.4,MacIntel,59.84082341,6135e006383e6ea6c3d06a28,61364b04f8f6798b581bffac,"[""period""]",0,[1.0700999999642136],104,0,104,0,1
,,,,,,,5d5440b03808390019b8df40,,,,,,5d5440b03808390019b8df40,Kobieta,30,2021-09-06_19h09.06.387,rantool2,2021.1.4,MacIntel,59.84082341,6135e006383e6ea6c3d06a28,61364b04f8f6798b581bffac,"[""period""]",0,[1.1030000000000086],105,0,105,0,1
,,,,,,,5d5440b03808390019b8df40,,,,,,5d5440b03808390019b8df40,Kobieta,30,2021-09-06_19h09.06.387,rantool2,2021.1.4,MacIntel,59.84082341,6135e006383e6ea6c3d06a28,61364b04f8f6798b581bffac,"[""period""]",0,[1.1048999999761122],106,0,106,0,1
,,,,,,,5d5440b03808390019b8df40,,,,,,5d5440b03808390019b8df40,Kobieta,30,2021-09-06_19h09.06.387,rantool2,2021.1.4,MacIntel,59.84082341,6135e006383e6ea6c3d06a28,61364b04f8f6798b581bffac,0,0,,107,0,107,0,1
,,,,,,,5d5440b03808390019b8df40,,,,,,5d5440b03808390019b8df40,Kobieta,30,2021-09-06_19h09.06.387,rantool2,2021.1.4,MacIntel,59.84082341,6135e006383e6ea6c3d06a28,61364b04f8f6798b581bffac,0,0,,108,0,108,0,1
,,,,,,,5d5440b03808390019b8df40,,,,,,5d5440b03808390019b8df40,Kobieta,30,2021-09-06_19h09.06.387,rantool2,2021.1.4,MacIntel,59.84082341,6135e006383e6ea6c3d06a28,61364b04f8f6798b581bffac,"[""period""]",0,[1.3703999999761436],109,0,109,0,1
,,,,,,,5d5440b03808390019b8df40,,,,,,5d5440b03808390019b8df40,Kobieta,30,2021-09-06_19h09.06.387,rantool2,2021.1.4,MacIntel,59.84082341,6135e006383e6ea6c3d06a28,61364b04f8f6798b581bffac,"[""period""]",0,[1.2038000000119382],110,0,110,0,1
,,,,,,,5d5440b03808390019b8df40,,,,,,5d5440b03808390019b8df40,Kobieta,30,2021-09-06_19h09.06.387,rantool2,2021.1.4,MacIntel,59.84082341,6135e006383e6ea6c3d06a28,61364b04f8f6798b581bffac,"[""period""]",0,[1.053000000000111],111,0,111,0,1
,,,,,,,5d5440b03808390019b8df40,,,,,,5d5440b03808390019b8df40,Kobieta,30,2021-09-06_19h09.06.387,rantool2,2021.1.4,MacIntel,59.84082341,6135e006383e6ea6c3d06a28,61364b04f8f6798b581bffac,"[""period""]",0,[0.6396999999880109],112,0,112,0,1
,,,,,,,5d5440b03808390019b8df40,,,,,,5d5440b03808390019b8df40,Kobieta,30,2021-09-06_19h09.06.387,rantool2,2021.1.4,MacIntel,59.84082341,6135e006383e6ea6c3d06a28,61364b04f8f6798b581bffac,"[""period""]",0,[0.689700000047651],113,0,113,0,1
,,,,,,,5d5440b03808390019b8df40,,,,,,5d5440b03808390019b8df40,Kobieta,30,2021-09-06_19h09.06.387,rantool2,2021.1.4,MacIntel,59.84082341,6135e006383e6ea6c3d06a28,61364b04f8f6798b581bffac,"[""period"",""period""]",0,"[0.34010000002388097,1.9234000000358265]",114,0,114,0,1
,,,,,,,5d5440b03808390019b8df40,,,,,,5d5440b03808390019b8df40,Kobieta,30,2021-09-06_19h09.06.387,rantool2,2021.1.4,MacIntel,59.84082341,6135e006383e6ea6c3d06a28,61364b04f8f6798b581bffac,"[""period""]",0,[1.9068000000119127],115,0,115,0,1
,,,,,,,5d5440b03808390019b8df40,,,,,,5d5440b03808390019b8df40,Kobieta,30,2021-09-06_19h09.06.387,rantool2,2021.1.4,MacIntel,59.84082341,6135e006383e6ea6c3d06a28,61364b04f8f6798b581bffac,"[""period""]",0,[1.1869999999998981],116,0,116,0,1
,,,,,,,5d5440b03808390019b8df40,,,,,,5d5440b03808390019b8df40,Kobieta,30,2021-09-06_19h09.06.387,rantool2,2021.1.4,MacIntel,59.84082341,6135e006383e6ea6c3d06a28,61364b04f8f6798b581bffac,"[""period"",""period""]",0,"[0.3558999999761454,1.1198999999761554]",117,0,117,0,1
,,,,,,,5d5440b03808390019b8df40,,,,,,5d5440b03808390019b8df40,Kobieta,30,2021-09-06_19h09.06.387,rantool2,2021.1.4,MacIntel,59.84082341,6135e006383e6ea6c3d06a28,61364b04f8f6798b581bffac,"[""comma""]",0,[1.5399000000358],118,0,118,0,1
,,,,,,,5d5440b03808390019b8df40,,,,,,5d5440b03808390019b8df40,Kobieta,30,2021-09-06_19h09.06.387,rantool2,2021.1.4,MacIntel,59.84082341,6135e006383e6ea6c3d06a28,61364b04f8f6798b581bffac,"[""period""]",0,[1.3047999999522517],119,0,119,0,1
