key_resp_7.keys,key_resp_7.rt,trials_2.thisRepN,trials_2.thisTrialN,trials_2.thisN,trials_2.thisIndex,trials_2.ran,id,series_0,series_1,acss_0,acss_1,comparison,id*,Płeć*,Wiek*,date,expName,psychopyVersion,OS,frameRate,STUDY_ID,SESSION_ID,key_resp_5.keys,key_resp_5.corr,key_resp_5.rt,trials.thisRepN,trials.thisTrialN,trials.thisN,trials.thisIndex,trials.ran
f,2.2283,0,0,0,35,1,5f1ada2167c7af0009073176,ROOORRO,ROOORRR,21.76276513,22.16977179,series_1,5f1ada2167c7af0009073176,Mężczyzna,24,2021-09-06_19h04.49.650,rantool2,2021.1.4,Win32,75.10326699,6135e006383e6ea6c3d06a28,61364a2413b57ae52a84b5d2,,,,,,,,
f,2.0159,0,1,1,15,1,5f1ada2167c7af0009073176,OORRRRO,OORRRRR,22.10108823,21.74922619,series_0,5f1ada2167c7af0009073176,Mężczyzna,24,2021-09-06_19h04.49.650,rantool2,2021.1.4,Win32,75.10326699,6135e006383e6ea6c3d06a28,61364a2413b57ae52a84b5d2,,,,,,,,
j,1.9114,0,2,2,44,1,5f1ada2167c7af0009073176,RORROOO,RORROOR,21.66733484,22.02566557,series_1,5f1ada2167c7af0009073176,Mężczyzna,24,2021-09-06_19h04.49.650,rantool2,2021.1.4,Win32,75.10326699,6135e006383e6ea6c3d06a28,61364a2413b57ae52a84b5d2,,,,,,,,
f,1.752,0,3,3,23,1,5f1ada2167c7af0009073176,ORORRRO,ORORRRR,22.1285618,21.9921709,series_0,5f1ada2167c7af0009073176,Mężczyzna,24,2021-09-06_19h04.49.650,rantool2,2021.1.4,Win32,75.10326699,6135e006383e6ea6c3d06a28,61364a2413b57ae52a84b5d2,,,,,,,,
j,2.7214,0,4,4,2,1,5f1ada2167c7af0009073176,OOOOROO,OOOOROR,20.43051175,21.02936224,series_1,5f1ada2167c7af0009073176,Mężczyzna,24,2021-09-06_19h04.49.650,rantool2,2021.1.4,Win32,75.10326699,6135e006383e6ea6c3d06a28,61364a2413b57ae52a84b5d2,,,,,,,,
j,2.1511,0,5,5,46,1,5f1ada2167c7af0009073176,RORRROO,RORRROR,22.00300695,21.24781509,series_0,5f1ada2167c7af0009073176,Mężczyzna,24,2021-09-06_19h04.49.650,rantool2,2021.1.4,Win32,75.10326699,6135e006383e6ea6c3d06a28,61364a2413b57ae52a84b5d2,,,,,,,,
f,2.4292,0,6,6,57,1,5f1ada2167c7af0009073176,RRROORO,RRROORR,21.82425538,22.07102821,series_1,5f1ada2167c7af0009073176,Mężczyzna,24,2021-09-06_19h04.49.650,rantool2,2021.1.4,Win32,75.10326699,6135e006383e6ea6c3d06a28,61364a2413b57ae52a84b5d2,,,,,,,,
f,1.6337,0,7,7,54,1,5f1ada2167c7af0009073176,RRORROO,RRORROR,21.55250791,20.9984461,series_0,5f1ada2167c7af0009073176,Mężczyzna,24,2021-09-06_19h04.49.650,rantool2,2021.1.4,Win32,75.10326699,6135e006383e6ea6c3d06a28,61364a2413b57ae52a84b5d2,,,,,,,,
j,1.4409,0,8,8,59,1,5f1ada2167c7af0009073176,RRRORRO,RRRORRR,21.56657303,20.89823192,series_0,5f1ada2167c7af0009073176,Mężczyzna,24,2021-09-06_19h04.49.650,rantool2,2021.1.4,Win32,75.10326699,6135e006383e6ea6c3d06a28,61364a2413b57ae52a84b5d2,,,,,,,,
f,2.2884,0,9,9,39,1,5f1ada2167c7af0009073176,ROORRRO,ROORRRR,21.82425538,21.38562617,series_0,5f1ada2167c7af0009073176,Mężczyzna,24,2021-09-06_19h04.49.650,rantool2,2021.1.4,Win32,75.10326699,6135e006383e6ea6c3d06a28,61364a2413b57ae52a84b5d2,,,,,,,,
f,2.269,0,10,10,13,1,5f1ada2167c7af0009073176,OORRORO,OORRORR,21.66733484,22.11181017,series_1,5f1ada2167c7af0009073176,Mężczyzna,24,2021-09-06_19h04.49.650,rantool2,2021.1.4,Win32,75.10326699,6135e006383e6ea6c3d06a28,61364a2413b57ae52a84b5d2,,,,,,,,
f,2.1637,0,11,11,16,1,5f1ada2167c7af0009073176,OROOOOO,OROOOOR,20.43051175,21.17347734,series_1,5f1ada2167c7af0009073176,Mężczyzna,24,2021-09-06_19h04.49.650,rantool2,2021.1.4,Win32,75.10326699,6135e006383e6ea6c3d06a28,61364a2413b57ae52a84b5d2,,,,,,,,
j,3.3349,0,12,12,24,1,5f1ada2167c7af0009073176,ORROOOO,ORROOOR,21.12383932,22.07102821,series_1,5f1ada2167c7af0009073176,Mężczyzna,24,2021-09-06_19h04.49.650,rantool2,2021.1.4,Win32,75.10326699,6135e006383e6ea6c3d06a28,61364a2413b57ae52a84b5d2,,,,,,,,
f,1.8675,0,13,13,10,1,5f1ada2167c7af0009073176,OOROROO,OOROROR,21.31236711,21.07490964,series_0,5f1ada2167c7af0009073176,Mężczyzna,24,2021-09-06_19h04.49.650,rantool2,2021.1.4,Win32,75.10326699,6135e006383e6ea6c3d06a28,61364a2413b57ae52a84b5d2,,,,,,,,
j,0.9959,0,14,14,51,1,5f1ada2167c7af0009073176,RROORRO,RROORRR,21.89852628,22.02786418,series_1,5f1ada2167c7af0009073176,Mężczyzna,24,2021-09-06_19h04.49.650,rantool2,2021.1.4,Win32,75.10326699,6135e006383e6ea6c3d06a28,61364a2413b57ae52a84b5d2,,,,,,,,
j,1.5369,0,15,15,41,1,5f1ada2167c7af0009073176,ROROORO,ROROORR,20.42602454,21.71443381,series_1,5f1ada2167c7af0009073176,Mężczyzna,24,2021-09-06_19h04.49.650,rantool2,2021.1.4,Win32,75.10326699,6135e006383e6ea6c3d06a28,61364a2413b57ae52a84b5d2,,,,,,,,
j,1.1928,0,16,16,36,1,5f1ada2167c7af0009073176,ROOROOO,ROOROOR,21.07991943,20.9984461,series_0,5f1ada2167c7af0009073176,Mężczyzna,24,2021-09-06_19h04.49.650,rantool2,2021.1.4,Win32,75.10326699,6135e006383e6ea6c3d06a28,61364a2413b57ae52a84b5d2,,,,,,,,
f,1.1508,0,17,17,55,1,5f1ada2167c7af0009073176,RRORRRO,RRORRRR,21.56657303,21.21223021,series_0,5f1ada2167c7af0009073176,Mężczyzna,24,2021-09-06_19h04.49.650,rantool2,2021.1.4,Win32,75.10326699,6135e006383e6ea6c3d06a28,61364a2413b57ae52a84b5d2,,,,,,,,
f,1.521,0,18,18,18,1,5f1ada2167c7af0009073176,OROOROO,OROOROR,20.84860893,21.22513037,series_1,5f1ada2167c7af0009073176,Mężczyzna,24,2021-09-06_19h04.49.650,rantool2,2021.1.4,Win32,75.10326699,6135e006383e6ea6c3d06a28,61364a2413b57ae52a84b5d2,,,,,,,,
j,3.3386,0,19,19,27,1,5f1ada2167c7af0009073176,ORRORRO,ORRORRR,21.55250791,22.2428857,series_1,5f1ada2167c7af0009073176,Mężczyzna,24,2021-09-06_19h04.49.650,rantool2,2021.1.4,Win32,75.10326699,6135e006383e6ea6c3d06a28,61364a2413b57ae52a84b5d2,,,,,,,,
j,2.0274,0,20,20,20,1,5f1ada2167c7af0009073176,OROROOO,OROROOR,21.31236711,21.90565814,series_1,5f1ada2167c7af0009073176,Mężczyzna,24,2021-09-06_19h04.49.650,rantool2,2021.1.4,Win32,75.10326699,6135e006383e6ea6c3d06a28,61364a2413b57ae52a84b5d2,,,,,,,,
f,1.3821,0,21,21,58,1,5f1ada2167c7af0009073176,RRROROO,RRROROR,22.1285618,21.37121559,series_0,5f1ada2167c7af0009073176,Mężczyzna,24,2021-09-06_19h04.49.650,rantool2,2021.1.4,Win32,75.10326699,6135e006383e6ea6c3d06a28,61364a2413b57ae52a84b5d2,,,,,,,,
j,1.6316,0,22,22,42,1,5f1ada2167c7af0009073176,ROROROO,ROROROR,20.39515459,19.8361834,series_0,5f1ada2167c7af0009073176,Mężczyzna,24,2021-09-06_19h04.49.650,rantool2,2021.1.4,Win32,75.10326699,6135e006383e6ea6c3d06a28,61364a2413b57ae52a84b5d2,,,,,,,,
j,2.0361,0,23,23,45,1,5f1ada2167c7af0009073176,RORRORO,RORRORR,20.78182524,21.22513037,series_1,5f1ada2167c7af0009073176,Mężczyzna,24,2021-09-06_19h04.49.650,rantool2,2021.1.4,Win32,75.10326699,6135e006383e6ea6c3d06a28,61364a2413b57ae52a84b5d2,,,,,,,,
j,1.2506,0,24,24,52,1,5f1ada2167c7af0009073176,RROROOO,RROROOR,22.18365867,22.11097995,series_0,5f1ada2167c7af0009073176,Mężczyzna,24,2021-09-06_19h04.49.650,rantool2,2021.1.4,Win32,75.10326699,6135e006383e6ea6c3d06a28,61364a2413b57ae52a84b5d2,,,,,,,,
f,1.4971,0,25,25,47,1,5f1ada2167c7af0009073176,RORRRRO,RORRRRR,21.81333602,21.02936224,series_0,5f1ada2167c7af0009073176,Mężczyzna,24,2021-09-06_19h04.49.650,rantool2,2021.1.4,Win32,75.10326699,6135e006383e6ea6c3d06a28,61364a2413b57ae52a84b5d2,,,,,,,,
j,1.0876,0,26,26,12,1,5f1ada2167c7af0009073176,OORROOO,OORROOR,21.30250474,22.02786418,series_1,5f1ada2167c7af0009073176,Mężczyzna,24,2021-09-06_19h04.49.650,rantool2,2021.1.4,Win32,75.10326699,6135e006383e6ea6c3d06a28,61364a2413b57ae52a84b5d2,,,,,,,,
f,1.3484,0,27,27,43,1,5f1ada2167c7af0009073176,RORORRO,RORORRR,20.71309134,21.07490964,series_1,5f1ada2167c7af0009073176,Mężczyzna,24,2021-09-06_19h04.49.650,rantool2,2021.1.4,Win32,75.10326699,6135e006383e6ea6c3d06a28,61364a2413b57ae52a84b5d2,,,,,,,,
f,1.217,0,28,28,53,1,5f1ada2167c7af0009073176,RRORORO,RRORORR,20.71309134,21.90565814,series_1,5f1ada2167c7af0009073176,Mężczyzna,24,2021-09-06_19h04.49.650,rantool2,2021.1.4,Win32,75.10326699,6135e006383e6ea6c3d06a28,61364a2413b57ae52a84b5d2,,,,,,,,
j,0.8758,0,29,29,33,1,5f1ada2167c7af0009073176,ROOOORO,ROOOORR,20.83779602,22.03072203,series_1,5f1ada2167c7af0009073176,Mężczyzna,24,2021-09-06_19h04.49.650,rantool2,2021.1.4,Win32,75.10326699,6135e006383e6ea6c3d06a28,61364a2413b57ae52a84b5d2,,,,,,,,
j,1.4098,0,30,30,6,1,5f1ada2167c7af0009073176,OOORROO,OOORROR,21.12383932,21.38562617,series_1,5f1ada2167c7af0009073176,Mężczyzna,24,2021-09-06_19h04.49.650,rantool2,2021.1.4,Win32,75.10326699,6135e006383e6ea6c3d06a28,61364a2413b57ae52a84b5d2,,,,,,,,
f,1.4055,0,31,31,0,1,5f1ada2167c7af0009073176,OOOOOOO,OOOOOOR,18.52739004,19.62521613,series_1,5f1ada2167c7af0009073176,Mężczyzna,24,2021-09-06_19h04.49.650,rantool2,2021.1.4,Win32,75.10326699,6135e006383e6ea6c3d06a28,61364a2413b57ae52a84b5d2,,,,,,,,
j,1.3669,0,32,32,28,1,5f1ada2167c7af0009073176,ORRROOO,ORRROOR,22.24142883,22.53364006,series_1,5f1ada2167c7af0009073176,Mężczyzna,24,2021-09-06_19h04.49.650,rantool2,2021.1.4,Win32,75.10326699,6135e006383e6ea6c3d06a28,61364a2413b57ae52a84b5d2,,,,,,,,
f,1.1204,0,33,33,29,1,5f1ada2167c7af0009073176,ORRRORO,ORRRORR,22.00300695,22.12173012,series_1,5f1ada2167c7af0009073176,Mężczyzna,24,2021-09-06_19h04.49.650,rantool2,2021.1.4,Win32,75.10326699,6135e006383e6ea6c3d06a28,61364a2413b57ae52a84b5d2,,,,,,,,
j,1.0827,0,34,34,63,1,5f1ada2167c7af0009073176,RRRRRRO,RRRRRRR,21.35278725,19.62521613,series_0,5f1ada2167c7af0009073176,Mężczyzna,24,2021-09-06_19h04.49.650,rantool2,2021.1.4,Win32,75.10326699,6135e006383e6ea6c3d06a28,61364a2413b57ae52a84b5d2,,,,,,,,
f,1.2862,0,35,35,8,1,5f1ada2167c7af0009073176,OOROOOO,OOROOOR,19.91402015,20.89823192,series_1,5f1ada2167c7af0009073176,Mężczyzna,24,2021-09-06_19h04.49.650,rantool2,2021.1.4,Win32,75.10326699,6135e006383e6ea6c3d06a28,61364a2413b57ae52a84b5d2,,,,,,,,
f,1.8314,0,36,36,30,1,5f1ada2167c7af0009073176,ORRRROO,ORRRROR,22.46748491,22.03072203,series_0,5f1ada2167c7af0009073176,Mężczyzna,24,2021-09-06_19h04.49.650,rantool2,2021.1.4,Win32,75.10326699,6135e006383e6ea6c3d06a28,61364a2413b57ae52a84b5d2,,,,,,,,
j,1.3503,0,37,37,9,1,5f1ada2167c7af0009073176,OOROORO,OOROORR,21.07991943,22.2428857,series_1,5f1ada2167c7af0009073176,Mężczyzna,24,2021-09-06_19h04.49.650,rantool2,2021.1.4,Win32,75.10326699,6135e006383e6ea6c3d06a28,61364a2413b57ae52a84b5d2,,,,,,,,
j,1.0317,0,38,38,48,1,5f1ada2167c7af0009073176,RROOOOO,RROOOOR,20.90986523,22.15934078,series_1,5f1ada2167c7af0009073176,Mężczyzna,24,2021-09-06_19h04.49.650,rantool2,2021.1.4,Win32,75.10326699,6135e006383e6ea6c3d06a28,61364a2413b57ae52a84b5d2,,,,,,,,
f,2.0223,0,39,39,14,1,5f1ada2167c7af0009073176,OORRROO,OORRROR,22.24142883,22.16977179,series_0,5f1ada2167c7af0009073176,Mężczyzna,24,2021-09-06_19h04.49.650,rantool2,2021.1.4,Win32,75.10326699,6135e006383e6ea6c3d06a28,61364a2413b57ae52a84b5d2,,,,,,,,
j,1.7626,0,40,40,7,1,5f1ada2167c7af0009073176,OOORRRO,OOORRRR,21.6194508,21.899017,series_1,5f1ada2167c7af0009073176,Mężczyzna,24,2021-09-06_19h04.49.650,rantool2,2021.1.4,Win32,75.10326699,6135e006383e6ea6c3d06a28,61364a2413b57ae52a84b5d2,,,,,,,,
f,3.4641,0,41,41,25,1,5f1ada2167c7af0009073176,ORROORO,ORROORR,21.79500819,22.61624387,series_1,5f1ada2167c7af0009073176,Mężczyzna,24,2021-09-06_19h04.49.650,rantool2,2021.1.4,Win32,75.10326699,6135e006383e6ea6c3d06a28,61364a2413b57ae52a84b5d2,,,,,,,,
j,1.384,0,42,42,19,1,5f1ada2167c7af0009073176,OROORRO,OROORRR,21.73568164,22.11181017,series_1,5f1ada2167c7af0009073176,Mężczyzna,24,2021-09-06_19h04.49.650,rantool2,2021.1.4,Win32,75.10326699,6135e006383e6ea6c3d06a28,61364a2413b57ae52a84b5d2,,,,,,,,
j,1.0605,0,43,43,17,1,5f1ada2167c7af0009073176,OROOORO,OROOORR,21.03750787,22.12173012,series_1,5f1ada2167c7af0009073176,Mężczyzna,24,2021-09-06_19h04.49.650,rantool2,2021.1.4,Win32,75.10326699,6135e006383e6ea6c3d06a28,61364a2413b57ae52a84b5d2,,,,,,,,
j,1.1207,0,44,44,60,1,5f1ada2167c7af0009073176,RRRROOO,RRRROOR,22.10108823,22.15934078,series_1,5f1ada2167c7af0009073176,Mężczyzna,24,2021-09-06_19h04.49.650,rantool2,2021.1.4,Win32,75.10326699,6135e006383e6ea6c3d06a28,61364a2413b57ae52a84b5d2,,,,,,,,
f,1.3211,0,45,45,56,1,5f1ada2167c7af0009073176,RRROOOO,RRROOOR,21.6194508,22.31681875,series_1,5f1ada2167c7af0009073176,Mężczyzna,24,2021-09-06_19h04.49.650,rantool2,2021.1.4,Win32,75.10326699,6135e006383e6ea6c3d06a28,61364a2413b57ae52a84b5d2,,,,,,,,
f,1.4219,0,46,46,1,1,5f1ada2167c7af0009073176,OOOOORO,OOOOORR,19.92253567,20.74050628,series_1,5f1ada2167c7af0009073176,Mężczyzna,24,2021-09-06_19h04.49.650,rantool2,2021.1.4,Win32,75.10326699,6135e006383e6ea6c3d06a28,61364a2413b57ae52a84b5d2,,,,,,,,
f,1.6593,0,47,47,61,1,5f1ada2167c7af0009073176,RRRRORO,RRRRORR,21.81333602,21.17347734,series_0,5f1ada2167c7af0009073176,Mężczyzna,24,2021-09-06_19h04.49.650,rantool2,2021.1.4,Win32,75.10326699,6135e006383e6ea6c3d06a28,61364a2413b57ae52a84b5d2,,,,,,,,
j,2.7342,0,48,48,50,1,5f1ada2167c7af0009073176,RROOROO,RROOROR,21.73568164,22.02566557,series_1,5f1ada2167c7af0009073176,Mężczyzna,24,2021-09-06_19h04.49.650,rantool2,2021.1.4,Win32,75.10326699,6135e006383e6ea6c3d06a28,61364a2413b57ae52a84b5d2,,,,,,,,
f,1.1951,0,49,49,32,1,5f1ada2167c7af0009073176,ROOOOOO,ROOOOOR,19.92253567,21.27974287,series_1,5f1ada2167c7af0009073176,Mężczyzna,24,2021-09-06_19h04.49.650,rantool2,2021.1.4,Win32,75.10326699,6135e006383e6ea6c3d06a28,61364a2413b57ae52a84b5d2,,,,,,,,
j,1.1879,0,50,50,34,1,5f1ada2167c7af0009073176,ROOOROO,ROOOROR,21.03750787,21.24781509,series_1,5f1ada2167c7af0009073176,Mężczyzna,24,2021-09-06_19h04.49.650,rantool2,2021.1.4,Win32,75.10326699,6135e006383e6ea6c3d06a28,61364a2413b57ae52a84b5d2,,,,,,,,
j,0.9957,0,51,51,62,1,5f1ada2167c7af0009073176,RRRRROO,RRRRROR,22.16413392,21.27974287,series_0,5f1ada2167c7af0009073176,Mężczyzna,24,2021-09-06_19h04.49.650,rantool2,2021.1.4,Win32,75.10326699,6135e006383e6ea6c3d06a28,61364a2413b57ae52a84b5d2,,,,,,,,
f,0.8617,0,52,52,21,1,5f1ada2167c7af0009073176,ORORORO,ORORORR,20.39515459,22.06781359,series_1,5f1ada2167c7af0009073176,Mężczyzna,24,2021-09-06_19h04.49.650,rantool2,2021.1.4,Win32,75.10326699,6135e006383e6ea6c3d06a28,61364a2413b57ae52a84b5d2,,,,,,,,
f,0.8827,0,53,53,22,1,5f1ada2167c7af0009073176,ORORROO,ORORROR,22.02732763,21.57657071,series_0,5f1ada2167c7af0009073176,Mężczyzna,24,2021-09-06_19h04.49.650,rantool2,2021.1.4,Win32,75.10326699,6135e006383e6ea6c3d06a28,61364a2413b57ae52a84b5d2,,,,,,,,
f,0.9143,0,54,54,38,1,5f1ada2167c7af0009073176,ROORROO,ROORROR,21.79500819,21.36812781,series_0,5f1ada2167c7af0009073176,Mężczyzna,24,2021-09-06_19h04.49.650,rantool2,2021.1.4,Win32,75.10326699,6135e006383e6ea6c3d06a28,61364a2413b57ae52a84b5d2,,,,,,,,
j,1.0157,0,55,55,3,1,5f1ada2167c7af0009073176,OOOORRO,OOOORRR,20.90986523,21.74922619,series_1,5f1ada2167c7af0009073176,Mężczyzna,24,2021-09-06_19h04.49.650,rantool2,2021.1.4,Win32,75.10326699,6135e006383e6ea6c3d06a28,61364a2413b57ae52a84b5d2,,,,,,,,
j,1.0668,0,56,56,4,1,5f1ada2167c7af0009073176,OOOROOO,OOOROOR,19.91402015,21.21223021,series_1,5f1ada2167c7af0009073176,Mężczyzna,24,2021-09-06_19h04.49.650,rantool2,2021.1.4,Win32,75.10326699,6135e006383e6ea6c3d06a28,61364a2413b57ae52a84b5d2,,,,,,,,
f,1.5213,0,57,57,11,1,5f1ada2167c7af0009073176,OORORRO,OORORRR,22.18365867,22.6797523,series_1,5f1ada2167c7af0009073176,Mężczyzna,24,2021-09-06_19h04.49.650,rantool2,2021.1.4,Win32,75.10326699,6135e006383e6ea6c3d06a28,61364a2413b57ae52a84b5d2,,,,,,,,
f,1.275,0,58,58,49,1,5f1ada2167c7af0009073176,RROOORO,RROOORR,21.76276513,22.53364006,series_1,5f1ada2167c7af0009073176,Mężczyzna,24,2021-09-06_19h04.49.650,rantool2,2021.1.4,Win32,75.10326699,6135e006383e6ea6c3d06a28,61364a2413b57ae52a84b5d2,,,,,,,,
f,0.8896,0,59,59,26,1,5f1ada2167c7af0009073176,ORROROO,ORROROR,22.02732763,21.71443381,series_0,5f1ada2167c7af0009073176,Mężczyzna,24,2021-09-06_19h04.49.650,rantool2,2021.1.4,Win32,75.10326699,6135e006383e6ea6c3d06a28,61364a2413b57ae52a84b5d2,,,,,,,,
j,0.8351,0,60,60,5,1,5f1ada2167c7af0009073176,OOORORO,OOORORR,20.87963819,21.9921709,series_1,5f1ada2167c7af0009073176,Mężczyzna,24,2021-09-06_19h04.49.650,rantool2,2021.1.4,Win32,75.10326699,6135e006383e6ea6c3d06a28,61364a2413b57ae52a84b5d2,,,,,,,,
f,0.783,0,61,61,37,1,5f1ada2167c7af0009073176,ROORORO,ROORORR,20.42602454,21.57657071,series_1,5f1ada2167c7af0009073176,Mężczyzna,24,2021-09-06_19h04.49.650,rantool2,2021.1.4,Win32,75.10326699,6135e006383e6ea6c3d06a28,61364a2413b57ae52a84b5d2,,,,,,,,
j,1.107,0,62,62,40,1,5f1ada2167c7af0009073176,ROROOOO,ROROOOR,20.87963819,21.37121559,series_1,5f1ada2167c7af0009073176,Mężczyzna,24,2021-09-06_19h04.49.650,rantool2,2021.1.4,Win32,75.10326699,6135e006383e6ea6c3d06a28,61364a2413b57ae52a84b5d2,,,,,,,,
f,0.9678,0,63,63,31,1,5f1ada2167c7af0009073176,ORRRRRO,ORRRRRR,22.16413392,20.74050628,series_0,5f1ada2167c7af0009073176,Mężczyzna,24,2021-09-06_19h04.49.650,rantool2,2021.1.4,Win32,75.10326699,6135e006383e6ea6c3d06a28,61364a2413b57ae52a84b5d2,,,,,,,,
,,,,,,,5f1ada2167c7af0009073176,,,,,,5f1ada2167c7af0009073176,Mężczyzna,24,2021-09-06_19h04.49.650,rantool2,2021.1.4,Win32,75.10326699,6135e006383e6ea6c3d06a28,61364a2413b57ae52a84b5d2,0,,,0,0,0,0,1
,,,,,,,5f1ada2167c7af0009073176,,,,,,5f1ada2167c7af0009073176,Mężczyzna,24,2021-09-06_19h04.49.650,rantool2,2021.1.4,Win32,75.10326699,6135e006383e6ea6c3d06a28,61364a2413b57ae52a84b5d2,"[""comma""]",0,[0.18119999998808112],1,0,1,0,1
,,,,,,,5f1ada2167c7af0009073176,,,,,,5f1ada2167c7af0009073176,Mężczyzna,24,2021-09-06_19h04.49.650,rantool2,2021.1.4,Win32,75.10326699,6135e006383e6ea6c3d06a28,61364a2413b57ae52a84b5d2,"[""period""]",0,[0.2330000000000041],2,0,2,0,1
,,,,,,,5f1ada2167c7af0009073176,,,,,,5f1ada2167c7af0009073176,Mężczyzna,24,2021-09-06_19h04.49.650,rantool2,2021.1.4,Win32,75.10326699,6135e006383e6ea6c3d06a28,61364a2413b57ae52a84b5d2,"[""period""]",0,[0.24009999999404386],3,0,3,0,1
,,,,,,,5f1ada2167c7af0009073176,,,,,,5f1ada2167c7af0009073176,Mężczyzna,24,2021-09-06_19h04.49.650,rantool2,2021.1.4,Win32,75.10326699,6135e006383e6ea6c3d06a28,61364a2413b57ae52a84b5d2,"[""comma"",""comma""]",0,"[0.22679999998211997,1.9660999999940145]",4,0,4,0,1
,,,,,,,5f1ada2167c7af0009073176,,,,,,5f1ada2167c7af0009073176,Mężczyzna,24,2021-09-06_19h04.49.650,rantool2,2021.1.4,Win32,75.10326699,6135e006383e6ea6c3d06a28,61364a2413b57ae52a84b5d2,0,0,,5,0,5,0,1
,,,,,,,5f1ada2167c7af0009073176,,,,,,5f1ada2167c7af0009073176,Mężczyzna,24,2021-09-06_19h04.49.650,rantool2,2021.1.4,Win32,75.10326699,6135e006383e6ea6c3d06a28,61364a2413b57ae52a84b5d2,"[""period""]",0,[0.11790000000596024],6,0,6,0,1
,,,,,,,5f1ada2167c7af0009073176,,,,,,5f1ada2167c7af0009073176,Mężczyzna,24,2021-09-06_19h04.49.650,rantool2,2021.1.4,Win32,75.10326699,6135e006383e6ea6c3d06a28,61364a2413b57ae52a84b5d2,"[""period""]",0,[0.22649999999998727],7,0,7,0,1
,,,,,,,5f1ada2167c7af0009073176,,,,,,5f1ada2167c7af0009073176,Mężczyzna,24,2021-09-06_19h04.49.650,rantool2,2021.1.4,Win32,75.10326699,6135e006383e6ea6c3d06a28,61364a2413b57ae52a84b5d2,"[""comma""]",0,[0.22999999999998977],8,0,8,0,1
,,,,,,,5f1ada2167c7af0009073176,,,,,,5f1ada2167c7af0009073176,Mężczyzna,24,2021-09-06_19h04.49.650,rantool2,2021.1.4,Win32,75.10326699,6135e006383e6ea6c3d06a28,61364a2413b57ae52a84b5d2,"[""comma""]",0,[0.24360000002386073],9,0,9,0,1
,,,,,,,5f1ada2167c7af0009073176,,,,,,5f1ada2167c7af0009073176,Mężczyzna,24,2021-09-06_19h04.49.650,rantool2,2021.1.4,Win32,75.10326699,6135e006383e6ea6c3d06a28,61364a2413b57ae52a84b5d2,"[""period""]",0,[0.24439999997616724],10,0,10,0,1
,,,,,,,5f1ada2167c7af0009073176,,,,,,5f1ada2167c7af0009073176,Mężczyzna,24,2021-09-06_19h04.49.650,rantool2,2021.1.4,Win32,75.10326699,6135e006383e6ea6c3d06a28,61364a2413b57ae52a84b5d2,"[""comma"",""period""]",0,"[0.051100000023836856,1.903700000017892]",11,0,11,0,1
,,,,,,,5f1ada2167c7af0009073176,,,,,,5f1ada2167c7af0009073176,Mężczyzna,24,2021-09-06_19h04.49.650,rantool2,2021.1.4,Win32,75.10326699,6135e006383e6ea6c3d06a28,61364a2413b57ae52a84b5d2,"[""period""]",0,[1.9260999999940225],12,0,12,0,1
,,,,,,,5f1ada2167c7af0009073176,,,,,,5f1ada2167c7af0009073176,Mężczyzna,24,2021-09-06_19h04.49.650,rantool2,2021.1.4,Win32,75.10326699,6135e006383e6ea6c3d06a28,61364a2413b57ae52a84b5d2,"[""comma""]",0,[1.9483000000119262],13,0,13,0,1
,,,,,,,5f1ada2167c7af0009073176,,,,,,5f1ada2167c7af0009073176,Mężczyzna,24,2021-09-06_19h04.49.650,rantool2,2021.1.4,Win32,75.10326699,6135e006383e6ea6c3d06a28,61364a2413b57ae52a84b5d2,0,0,,14,0,14,0,1
,,,,,,,5f1ada2167c7af0009073176,,,,,,5f1ada2167c7af0009073176,Mężczyzna,24,2021-09-06_19h04.49.650,rantool2,2021.1.4,Win32,75.10326699,6135e006383e6ea6c3d06a28,61364a2413b57ae52a84b5d2,"[""comma""]",0,[0.0759999999999934],15,0,15,0,1
,,,,,,,5f1ada2167c7af0009073176,,,,,,5f1ada2167c7af0009073176,Mężczyzna,24,2021-09-06_19h04.49.650,rantool2,2021.1.4,Win32,75.10326699,6135e006383e6ea6c3d06a28,61364a2413b57ae52a84b5d2,"[""period""]",0,[0.10169999998808521],16,0,16,0,1
,,,,,,,5f1ada2167c7af0009073176,,,,,,5f1ada2167c7af0009073176,Mężczyzna,24,2021-09-06_19h04.49.650,rantool2,2021.1.4,Win32,75.10326699,6135e006383e6ea6c3d06a28,61364a2413b57ae52a84b5d2,"[""period"",""comma""]",0,"[0.20280000001193343,1.9410000000000025]",17,0,17,0,1
,,,,,,,5f1ada2167c7af0009073176,,,,,,5f1ada2167c7af0009073176,Mężczyzna,24,2021-09-06_19h04.49.650,rantool2,2021.1.4,Win32,75.10326699,6135e006383e6ea6c3d06a28,61364a2413b57ae52a84b5d2,"[""period""]",0,[1.9795000000000016],18,0,18,0,1
,,,,,,,5f1ada2167c7af0009073176,,,,,,5f1ada2167c7af0009073176,Mężczyzna,24,2021-09-06_19h04.49.650,rantool2,2021.1.4,Win32,75.10326699,6135e006383e6ea6c3d06a28,61364a2413b57ae52a84b5d2,0,0,,19,0,19,0,1
,,,,,,,5f1ada2167c7af0009073176,,,,,,5f1ada2167c7af0009073176,Mężczyzna,24,2021-09-06_19h04.49.650,rantool2,2021.1.4,Win32,75.10326699,6135e006383e6ea6c3d06a28,61364a2413b57ae52a84b5d2,"[""period""]",0,[0.2644999999999982],20,0,20,0,1
,,,,,,,5f1ada2167c7af0009073176,,,,,,5f1ada2167c7af0009073176,Mężczyzna,24,2021-09-06_19h04.49.650,rantool2,2021.1.4,Win32,75.10326699,6135e006383e6ea6c3d06a28,61364a2413b57ae52a84b5d2,"[""comma"",""period""]",0,"[0.0007999999821208803,1.9608999999761636]",21,0,21,0,1
,,,,,,,5f1ada2167c7af0009073176,,,,,,5f1ada2167c7af0009073176,Mężczyzna,24,2021-09-06_19h04.49.650,rantool2,2021.1.4,Win32,75.10326699,6135e006383e6ea6c3d06a28,61364a2413b57ae52a84b5d2,0,0,,22,0,22,0,1
,,,,,,,5f1ada2167c7af0009073176,,,,,,5f1ada2167c7af0009073176,Mężczyzna,24,2021-09-06_19h04.49.650,rantool2,2021.1.4,Win32,75.10326699,6135e006383e6ea6c3d06a28,61364a2413b57ae52a84b5d2,"[""period""]",0,[0.029799999982117242],23,0,23,0,1
,,,,,,,5f1ada2167c7af0009073176,,,,,,5f1ada2167c7af0009073176,Mężczyzna,24,2021-09-06_19h04.49.650,rantool2,2021.1.4,Win32,75.10326699,6135e006383e6ea6c3d06a28,61364a2413b57ae52a84b5d2,"[""period"",""period""]",0,"[0.02619999998805156,1.902299999982091]",24,0,24,0,1
,,,,,,,5f1ada2167c7af0009073176,,,,,,5f1ada2167c7af0009073176,Mężczyzna,24,2021-09-06_19h04.49.650,rantool2,2021.1.4,Win32,75.10326699,6135e006383e6ea6c3d06a28,61364a2413b57ae52a84b5d2,"[""comma""]",0,[1.972699999988066],25,0,25,0,1
,,,,,,,5f1ada2167c7af0009073176,,,,,,5f1ada2167c7af0009073176,Mężczyzna,24,2021-09-06_19h04.49.650,rantool2,2021.1.4,Win32,75.10326699,6135e006383e6ea6c3d06a28,61364a2413b57ae52a84b5d2,0,0,,26,0,26,0,1
,,,,,,,5f1ada2167c7af0009073176,,,,,,5f1ada2167c7af0009073176,Mężczyzna,24,2021-09-06_19h04.49.650,rantool2,2021.1.4,Win32,75.10326699,6135e006383e6ea6c3d06a28,61364a2413b57ae52a84b5d2,"[""comma""]",0,[0.1129000000059932],27,0,27,0,1
,,,,,,,5f1ada2167c7af0009073176,,,,,,5f1ada2167c7af0009073176,Mężczyzna,24,2021-09-06_19h04.49.650,rantool2,2021.1.4,Win32,75.10326699,6135e006383e6ea6c3d06a28,61364a2413b57ae52a84b5d2,"[""period"",""comma""]",0,"[0.18869999998810272,1.586999999999989]",28,0,28,0,1
,,,,,,,5f1ada2167c7af0009073176,,,,,,5f1ada2167c7af0009073176,Mężczyzna,24,2021-09-06_19h04.49.650,rantool2,2021.1.4,Win32,75.10326699,6135e006383e6ea6c3d06a28,61364a2413b57ae52a84b5d2,"[""comma""]",0,[1.8342000000178587],29,0,29,0,1
,,,,,,,5f1ada2167c7af0009073176,,,,,,5f1ada2167c7af0009073176,Mężczyzna,24,2021-09-06_19h04.49.650,rantool2,2021.1.4,Win32,75.10326699,6135e006383e6ea6c3d06a28,61364a2413b57ae52a84b5d2,"[""period""]",0,[1.6535000000000082],30,0,30,0,1
,,,,,,,5f1ada2167c7af0009073176,,,,,,5f1ada2167c7af0009073176,Mężczyzna,24,2021-09-06_19h04.49.650,rantool2,2021.1.4,Win32,75.10326699,6135e006383e6ea6c3d06a28,61364a2413b57ae52a84b5d2,"[""period""]",0,[1.968099999994024],31,0,31,0,1
,,,,,,,5f1ada2167c7af0009073176,,,,,,5f1ada2167c7af0009073176,Mężczyzna,24,2021-09-06_19h04.49.650,rantool2,2021.1.4,Win32,75.10326699,6135e006383e6ea6c3d06a28,61364a2413b57ae52a84b5d2,"[""period""]",0,[1.8206999999880509],32,0,32,0,1
,,,,,,,5f1ada2167c7af0009073176,,,,,,5f1ada2167c7af0009073176,Mężczyzna,24,2021-09-06_19h04.49.650,rantool2,2021.1.4,Win32,75.10326699,6135e006383e6ea6c3d06a28,61364a2413b57ae52a84b5d2,"[""comma""]",0,[1.0559999999999832],33,0,33,0,1
,,,,,,,5f1ada2167c7af0009073176,,,,,,5f1ada2167c7af0009073176,Mężczyzna,24,2021-09-06_19h04.49.650,rantool2,2021.1.4,Win32,75.10326699,6135e006383e6ea6c3d06a28,61364a2413b57ae52a84b5d2,"[""comma"",""comma""]",0,"[0.3270999999940045,1.5665999999940254]",34,0,34,0,1
,,,,,,,5f1ada2167c7af0009073176,,,,,,5f1ada2167c7af0009073176,Mężczyzna,24,2021-09-06_19h04.49.650,rantool2,2021.1.4,Win32,75.10326699,6135e006383e6ea6c3d06a28,61364a2413b57ae52a84b5d2,"[""period"",""period"",""period""]",0,"[0.11379999998212043,1.1590999999939982,1.773099999994031]",35,0,35,0,1
,,,,,,,5f1ada2167c7af0009073176,,,,,,5f1ada2167c7af0009073176,Mężczyzna,24,2021-09-06_19h04.49.650,rantool2,2021.1.4,Win32,75.10326699,6135e006383e6ea6c3d06a28,61364a2413b57ae52a84b5d2,"[""comma"",""period""]",0,"[0.6976999999880604,1.5706999999881077]",36,0,36,0,1
,,,,,,,5f1ada2167c7af0009073176,,,,,,5f1ada2167c7af0009073176,Mężczyzna,24,2021-09-06_19h04.49.650,rantool2,2021.1.4,Win32,75.10326699,6135e006383e6ea6c3d06a28,61364a2413b57ae52a84b5d2,"[""comma"",""comma"",""period""]",0,"[0.23500000000001364,1.0466999999881068,1.95240000000598]",37,0,37,0,1
,,,,,,,5f1ada2167c7af0009073176,,,,,,5f1ada2167c7af0009073176,Mężczyzna,24,2021-09-06_19h04.49.650,rantool2,2021.1.4,Win32,75.10326699,6135e006383e6ea6c3d06a28,61364a2413b57ae52a84b5d2,"[""period""]",0,[1.1873999999761509],38,0,38,0,1
,,,,,,,5f1ada2167c7af0009073176,,,,,,5f1ada2167c7af0009073176,Mężczyzna,24,2021-09-06_19h04.49.650,rantool2,2021.1.4,Win32,75.10326699,6135e006383e6ea6c3d06a28,61364a2413b57ae52a84b5d2,"[""period"",""comma"",""comma""]",0,"[0.0012999999821659003,0.7741999999880704,1.5390999999940504]",39,0,39,0,1
,,,,,,,5f1ada2167c7af0009073176,,,,,,5f1ada2167c7af0009073176,Mężczyzna,24,2021-09-06_19h04.49.650,rantool2,2021.1.4,Win32,75.10326699,6135e006383e6ea6c3d06a28,61364a2413b57ae52a84b5d2,"[""period"",""comma""]",0,"[0.1925999999940018,1.5005999999940514]",40,0,40,0,1
,,,,,,,5f1ada2167c7af0009073176,,,,,,5f1ada2167c7af0009073176,Mężczyzna,24,2021-09-06_19h04.49.650,rantool2,2021.1.4,Win32,75.10326699,6135e006383e6ea6c3d06a28,61364a2413b57ae52a84b5d2,"[""comma"",""period""]",0,"[0.23409999999404363,1.0829000000059636]",41,0,41,0,1
,,,,,,,5f1ada2167c7af0009073176,,,,,,5f1ada2167c7af0009073176,Mężczyzna,24,2021-09-06_19h04.49.650,rantool2,2021.1.4,Win32,75.10326699,6135e006383e6ea6c3d06a28,61364a2413b57ae52a84b5d2,"[""period"",""comma""]",0,"[0.044900000005952734,1.2876999999880923]",42,0,42,0,1
,,,,,,,5f1ada2167c7af0009073176,,,,,,5f1ada2167c7af0009073176,Mężczyzna,24,2021-09-06_19h04.49.650,rantool2,2021.1.4,Win32,75.10326699,6135e006383e6ea6c3d06a28,61364a2413b57ae52a84b5d2,"[""period"",""period""]",0,"[0.17190000000596228,1.2220999999940432]",43,0,43,0,1
,,,,,,,5f1ada2167c7af0009073176,,,,,,5f1ada2167c7af0009073176,Mężczyzna,24,2021-09-06_19h04.49.650,rantool2,2021.1.4,Win32,75.10326699,6135e006383e6ea6c3d06a28,61364a2413b57ae52a84b5d2,"[""period"",""comma""]",0,"[0.12509999999400634,1.0929000000059546]",44,0,44,0,1
,,,,,,,5f1ada2167c7af0009073176,,,,,,5f1ada2167c7af0009073176,Mężczyzna,24,2021-09-06_19h04.49.650,rantool2,2021.1.4,Win32,75.10326699,6135e006383e6ea6c3d06a28,61364a2413b57ae52a84b5d2,"[""period"",""period"",""comma""]",0,"[-0.01359999999408501,0.993900000005965,1.8024999999999523]",45,0,45,0,1
,,,,,,,5f1ada2167c7af0009073176,,,,,,5f1ada2167c7af0009073176,Mężczyzna,24,2021-09-06_19h04.49.650,rantool2,2021.1.4,Win32,75.10326699,6135e006383e6ea6c3d06a28,61364a2413b57ae52a84b5d2,"[""comma"",""period""]",0,"[0.6154999999999973,1.4439000000059536]",46,0,46,0,1
,,,,,,,5f1ada2167c7af0009073176,,,,,,5f1ada2167c7af0009073176,Mężczyzna,24,2021-09-06_19h04.49.650,rantool2,2021.1.4,Win32,75.10326699,6135e006383e6ea6c3d06a28,61364a2413b57ae52a84b5d2,"[""period"",""comma"",""period""]",0,"[0.19819999998810545,0.9283999999761363,1.5590999999940323]",47,0,47,0,1
,,,,,,,5f1ada2167c7af0009073176,,,,,,5f1ada2167c7af0009073176,Mężczyzna,24,2021-09-06_19h04.49.650,rantool2,2021.1.4,Win32,75.10326699,6135e006383e6ea6c3d06a28,61364a2413b57ae52a84b5d2,"[""comma"",""comma"",""period""]",0,"[0.22669999998811363,0.909099999994055,1.5730999999940423]",48,0,48,0,1
,,,,,,,5f1ada2167c7af0009073176,,,,,,5f1ada2167c7af0009073176,Mężczyzna,24,2021-09-06_19h04.49.650,rantool2,2021.1.4,Win32,75.10326699,6135e006383e6ea6c3d06a28,61364a2413b57ae52a84b5d2,"[""period"",""comma"",""comma""]",0,"[0.22959999999403635,0.9096999999881064,1.5050999999940586]",49,0,49,0,1
,,,,,,,5f1ada2167c7af0009073176,,,,,,5f1ada2167c7af0009073176,Mężczyzna,24,2021-09-06_19h04.49.650,rantool2,2021.1.4,Win32,75.10326699,6135e006383e6ea6c3d06a28,61364a2413b57ae52a84b5d2,"[""period"",""period"",""comma""]",0,"[0.14559999999403317,0.7850999999940314,1.4449999999999932]",50,0,50,0,1
,,,,,,,5f1ada2167c7af0009073176,,,,,,5f1ada2167c7af0009073176,Mężczyzna,24,2021-09-06_19h04.49.650,rantool2,2021.1.4,Win32,75.10326699,6135e006383e6ea6c3d06a28,61364a2413b57ae52a84b5d2,"[""comma"",""period"",""period"",""period""]",0,"[0.0006999999880576979,0.06859999999403499,0.7476999999880718,1.3856999999880486]",51,0,51,0,1
,,,,,,,5f1ada2167c7af0009073176,,,,,,5f1ada2167c7af0009073176,Mężczyzna,24,2021-09-06_19h04.49.650,rantool2,2021.1.4,Win32,75.10326699,6135e006383e6ea6c3d06a28,61364a2413b57ae52a84b5d2,"[""comma"",""comma"",""period"",""period""]",0,"[0.011700000017867751,0.5789000000059445,1.23960000002387,1.8532000000178641]",52,0,52,0,1
,,,,,,,5f1ada2167c7af0009073176,,,,,,5f1ada2167c7af0009073176,Mężczyzna,24,2021-09-06_19h04.49.650,rantool2,2021.1.4,Win32,75.10326699,6135e006383e6ea6c3d06a28,61364a2413b57ae52a84b5d2,"[""period"",""period"",""comma""]",0,"[0.39079999998210724,1.0652999999820736,1.6989999999999554]",53,0,53,0,1
,,,,,,,5f1ada2167c7af0009073176,,,,,,5f1ada2167c7af0009073176,Mężczyzna,24,2021-09-06_19h04.49.650,rantool2,2021.1.4,Win32,75.10326699,6135e006383e6ea6c3d06a28,61364a2413b57ae52a84b5d2,"[""comma"",""period"",""period""]",0,"[0.31230000001187364,0.9323000000118782,1.5864000000059377]",54,0,54,0,1
,,,,,,,5f1ada2167c7af0009073176,,,,,,5f1ada2167c7af0009073176,Mężczyzna,24,2021-09-06_19h04.49.650,rantool2,2021.1.4,Win32,75.10326699,6135e006383e6ea6c3d06a28,61364a2413b57ae52a84b5d2,"[""comma"",""comma"",""period""]",0,"[0.21560000002386914,0.8141000000238705,1.4305000000000518]",55,0,55,0,1
,,,,,,,5f1ada2167c7af0009073176,,,,,,5f1ada2167c7af0009073176,Mężczyzna,24,2021-09-06_19h04.49.650,rantool2,2021.1.4,Win32,75.10326699,6135e006383e6ea6c3d06a28,61364a2413b57ae52a84b5d2,"[""comma"",""comma"",""comma""]",0,"[0.10599999999999454,0.74909999999403,1.3697000000178718]",56,0,56,0,1
,,,,,,,5f1ada2167c7af0009073176,,,,,,5f1ada2167c7af0009073176,Mężczyzna,24,2021-09-06_19h04.49.650,rantool2,2021.1.4,Win32,75.10326699,6135e006383e6ea6c3d06a28,61364a2413b57ae52a84b5d2,"[""comma"",""comma"",""comma"",""comma""]",0,"[-0.010699999988105446,0.6174000000059436,1.266200000017875,1.9184999999999945]",57,0,57,0,1
,,,,,,,5f1ada2167c7af0009073176,,,,,,5f1ada2167c7af0009073176,Mężczyzna,24,2021-09-06_19h04.49.650,rantool2,2021.1.4,Win32,75.10326699,6135e006383e6ea6c3d06a28,61364a2413b57ae52a84b5d2,"[""comma"",""comma"",""period""]",0,"[0.54849999999999,1.2000999999940518,1.3390999999940618]",58,0,58,0,1
,,,,,,,5f1ada2167c7af0009073176,,,,,,5f1ada2167c7af0009073176,Mężczyzna,24,2021-09-06_19h04.49.650,rantool2,2021.1.4,Win32,75.10326699,6135e006383e6ea6c3d06a28,61364a2413b57ae52a84b5d2,"[""period"",""period"",""period""]",0,"[0.23109999999405773,1.1290999999940254,1.7390000000000327]",59,0,59,0,1
,,,,,,,5f1ada2167c7af0009073176,,,,,,5f1ada2167c7af0009073176,Mężczyzna,24,2021-09-06_19h04.49.650,rantool2,2021.1.4,Win32,75.10326699,6135e006383e6ea6c3d06a28,61364a2413b57ae52a84b5d2,"[""period""]",0,[0.08659999999406409],60,0,60,0,1
,,,,,,,5f1ada2167c7af0009073176,,,,,,5f1ada2167c7af0009073176,Mężczyzna,24,2021-09-06_19h04.49.650,rantool2,2021.1.4,Win32,75.10326699,6135e006383e6ea6c3d06a28,61364a2413b57ae52a84b5d2,"[""period""]",0,[0.25490000000593227],61,0,61,0,1
,,,,,,,5f1ada2167c7af0009073176,,,,,,5f1ada2167c7af0009073176,Mężczyzna,24,2021-09-06_19h04.49.650,rantool2,2021.1.4,Win32,75.10326699,6135e006383e6ea6c3d06a28,61364a2413b57ae52a84b5d2,"[""comma""]",0,[0.11780000001192548],62,0,62,0,1
,,,,,,,5f1ada2167c7af0009073176,,,,,,5f1ada2167c7af0009073176,Mężczyzna,24,2021-09-06_19h04.49.650,rantool2,2021.1.4,Win32,75.10326699,6135e006383e6ea6c3d06a28,61364a2413b57ae52a84b5d2,"[""period"",""comma""]",0,"[0.2427000000178623,1.9513000000119405]",63,0,63,0,1
,,,,,,,5f1ada2167c7af0009073176,,,,,,5f1ada2167c7af0009073176,Mężczyzna,24,2021-09-06_19h04.49.650,rantool2,2021.1.4,Win32,75.10326699,6135e006383e6ea6c3d06a28,61364a2413b57ae52a84b5d2,"[""comma""]",0,[1.6750000000000114],64,0,64,0,1
,,,,,,,5f1ada2167c7af0009073176,,,,,,5f1ada2167c7af0009073176,Mężczyzna,24,2021-09-06_19h04.49.650,rantool2,2021.1.4,Win32,75.10326699,6135e006383e6ea6c3d06a28,61364a2413b57ae52a84b5d2,"[""comma"",""comma"",""period""]",0,"[0.24579999998212543,0.5251999999881036,1.695799999982114]",65,0,65,0,1
,,,,,,,5f1ada2167c7af0009073176,,,,,,5f1ada2167c7af0009073176,Mężczyzna,24,2021-09-06_19h04.49.650,rantool2,2021.1.4,Win32,75.10326699,6135e006383e6ea6c3d06a28,61364a2413b57ae52a84b5d2,"[""period""]",0,[1.7022999999821309],66,0,66,0,1
,,,,,,,5f1ada2167c7af0009073176,,,,,,5f1ada2167c7af0009073176,Mężczyzna,24,2021-09-06_19h04.49.650,rantool2,2021.1.4,Win32,75.10326699,6135e006383e6ea6c3d06a28,61364a2413b57ae52a84b5d2,"[""comma"",""comma""]",0,"[0.7502999999821327,1.6254999999999882]",67,0,67,0,1
,,,,,,,5f1ada2167c7af0009073176,,,,,,5f1ada2167c7af0009073176,Mężczyzna,24,2021-09-06_19h04.49.650,rantool2,2021.1.4,Win32,75.10326699,6135e006383e6ea6c3d06a28,61364a2413b57ae52a84b5d2,"[""period"",""period""]",0,"[0.856700000017895,1.5870999999940523]",68,0,68,0,1
,,,,,,,5f1ada2167c7af0009073176,,,,,,5f1ada2167c7af0009073176,Mężczyzna,24,2021-09-06_19h04.49.650,rantool2,2021.1.4,Win32,75.10326699,6135e006383e6ea6c3d06a28,61364a2413b57ae52a84b5d2,"[""period"",""period""]",0,"[0.18129999998211588,1.7742999999821336]",69,0,69,0,1
,,,,,,,5f1ada2167c7af0009073176,,,,,,5f1ada2167c7af0009073176,Mężczyzna,24,2021-09-06_19h04.49.650,rantool2,2021.1.4,Win32,75.10326699,6135e006383e6ea6c3d06a28,61364a2413b57ae52a84b5d2,"[""comma"",""comma""]",0,"[0.7448000000118782,1.4121999999880472]",70,0,70,0,1
,,,,,,,5f1ada2167c7af0009073176,,,,,,5f1ada2167c7af0009073176,Mężczyzna,24,2021-09-06_19h04.49.650,rantool2,2021.1.4,Win32,75.10326699,6135e006383e6ea6c3d06a28,61364a2413b57ae52a84b5d2,"[""period"",""period"",""period"",""period""]",0,"[0.13940000000599184,0.7314999999999827,1.2655999999940377,1.8264000000059468]",71,0,71,0,1
,,,,,,,5f1ada2167c7af0009073176,,,,,,5f1ada2167c7af0009073176,Mężczyzna,24,2021-09-06_19h04.49.650,rantool2,2021.1.4,Win32,75.10326699,6135e006383e6ea6c3d06a28,61364a2413b57ae52a84b5d2,"[""comma"",""period"",""period""]",0,"[0.36670000001788594,0.9137000000179114,1.7563000000119473]",72,0,72,0,1
,,,,,,,5f1ada2167c7af0009073176,,,,,,5f1ada2167c7af0009073176,Mężczyzna,24,2021-09-06_19h04.49.650,rantool2,2021.1.4,Win32,75.10326699,6135e006383e6ea6c3d06a28,61364a2413b57ae52a84b5d2,"[""period"",""period"",""comma"",""period"",""comma""]",0,"[0.1672000000178855,0.5790000000000077,0.986500000000035,1.462500000000034,1.8472000000178923]",73,0,73,0,1
,,,,,,,5f1ada2167c7af0009073176,,,,,,5f1ada2167c7af0009073176,Mężczyzna,24,2021-09-06_19h04.49.650,rantool2,2021.1.4,Win32,75.10326699,6135e006383e6ea6c3d06a28,61364a2413b57ae52a84b5d2,"[""comma"",""comma"",""comma""]",0,"[0.23299999999994725,0.61190000000596,1.4687000000178614]",74,0,74,0,1
,,,,,,,5f1ada2167c7af0009073176,,,,,,5f1ada2167c7af0009073176,Mężczyzna,24,2021-09-06_19h04.49.650,rantool2,2021.1.4,Win32,75.10326699,6135e006383e6ea6c3d06a28,61364a2413b57ae52a84b5d2,"[""comma"",""comma"",""period"",""period""]",0,"[0.34149999999999636,0.8850999999940541,1.4376999999881264,1.9614000000059946]",75,0,75,0,1
,,,,,,,5f1ada2167c7af0009073176,,,,,,5f1ada2167c7af0009073176,Mężczyzna,24,2021-09-06_19h04.49.650,rantool2,2021.1.4,Win32,75.10326699,6135e006383e6ea6c3d06a28,61364a2413b57ae52a84b5d2,"[""period"",""period"",""period""]",0,"[0.5294999999999845,1.121499999999969,1.6863999999761177]",76,0,76,0,1
,,,,,,,5f1ada2167c7af0009073176,,,,,,5f1ada2167c7af0009073176,Mężczyzna,24,2021-09-06_19h04.49.650,rantool2,2021.1.4,Win32,75.10326699,6135e006383e6ea6c3d06a28,61364a2413b57ae52a84b5d2,"[""period"",""period"",""comma"",""comma""]",0,"[0.36609999999404863,1.001799999982154,1.4447999999821377,1.8840000000000146]",77,0,77,0,1
,,,,,,,5f1ada2167c7af0009073176,,,,,,5f1ada2167c7af0009073176,Mężczyzna,24,2021-09-06_19h04.49.650,rantool2,2021.1.4,Win32,75.10326699,6135e006383e6ea6c3d06a28,61364a2413b57ae52a84b5d2,"[""comma"",""period"",""period""]",0,"[0.4230000000000018,0.97290000000595,1.6635999999940054]",78,0,78,0,1
,,,,,,,5f1ada2167c7af0009073176,,,,,,5f1ada2167c7af0009073176,Mężczyzna,24,2021-09-06_19h04.49.650,rantool2,2021.1.4,Win32,75.10326699,6135e006383e6ea6c3d06a28,61364a2413b57ae52a84b5d2,"[""period""]",0,[0.21209999999405227],79,0,79,0,1
,,,,,,,5f1ada2167c7af0009073176,,,,,,5f1ada2167c7af0009073176,Mężczyzna,24,2021-09-06_19h04.49.650,rantool2,2021.1.4,Win32,75.10326699,6135e006383e6ea6c3d06a28,61364a2413b57ae52a84b5d2,"[""comma""]",0,[0.20869999998808453],80,0,80,0,1
,,,,,,,5f1ada2167c7af0009073176,,,,,,5f1ada2167c7af0009073176,Mężczyzna,24,2021-09-06_19h04.49.650,rantool2,2021.1.4,Win32,75.10326699,6135e006383e6ea6c3d06a28,61364a2413b57ae52a84b5d2,"[""period""]",0,[0.30680000001194685],81,0,81,0,1
,,,,,,,5f1ada2167c7af0009073176,,,,,,5f1ada2167c7af0009073176,Mężczyzna,24,2021-09-06_19h04.49.650,rantool2,2021.1.4,Win32,75.10326699,6135e006383e6ea6c3d06a28,61364a2413b57ae52a84b5d2,"[""period""]",0,[0.08600000000001273],82,0,82,0,1
,,,,,,,5f1ada2167c7af0009073176,,,,,,5f1ada2167c7af0009073176,Mężczyzna,24,2021-09-06_19h04.49.650,rantool2,2021.1.4,Win32,75.10326699,6135e006383e6ea6c3d06a28,61364a2413b57ae52a84b5d2,"[""comma""]",0,[0.14940000000598275],83,0,83,0,1
,,,,,,,5f1ada2167c7af0009073176,,,,,,5f1ada2167c7af0009073176,Mężczyzna,24,2021-09-06_19h04.49.650,rantool2,2021.1.4,Win32,75.10326699,6135e006383e6ea6c3d06a28,61364a2413b57ae52a84b5d2,"[""period""]",0,[0.11769999998807634],84,0,84,0,1
,,,,,,,5f1ada2167c7af0009073176,,,,,,5f1ada2167c7af0009073176,Mężczyzna,24,2021-09-06_19h04.49.650,rantool2,2021.1.4,Win32,75.10326699,6135e006383e6ea6c3d06a28,61364a2413b57ae52a84b5d2,"[""period"",""period""]",0,"[0.12589999997612722,1.8684999999999832]",85,0,85,0,1
,,,,,,,5f1ada2167c7af0009073176,,,,,,5f1ada2167c7af0009073176,Mężczyzna,24,2021-09-06_19h04.49.650,rantool2,2021.1.4,Win32,75.10326699,6135e006383e6ea6c3d06a28,61364a2413b57ae52a84b5d2,0,0,,86,0,86,0,1
,,,,,,,5f1ada2167c7af0009073176,,,,,,5f1ada2167c7af0009073176,Mężczyzna,24,2021-09-06_19h04.49.650,rantool2,2021.1.4,Win32,75.10326699,6135e006383e6ea6c3d06a28,61364a2413b57ae52a84b5d2,"[""comma"",""period""]",0,"[0.03790000000594773,1.775300000011896]",87,0,87,0,1
,,,,,,,5f1ada2167c7af0009073176,,,,,,5f1ada2167c7af0009073176,Mężczyzna,24,2021-09-06_19h04.49.650,rantool2,2021.1.4,Win32,75.10326699,6135e006383e6ea6c3d06a28,61364a2413b57ae52a84b5d2,"[""period""]",0,[0.47940000000596683],88,0,88,0,1
,,,,,,,5f1ada2167c7af0009073176,,,,,,5f1ada2167c7af0009073176,Mężczyzna,24,2021-09-06_19h04.49.650,rantool2,2021.1.4,Win32,75.10326699,6135e006383e6ea6c3d06a28,61364a2413b57ae52a84b5d2,"[""comma"",""period""]",0,"[0.0995999999940409,1.8735999999940418]",89,0,89,0,1
,,,,,,,5f1ada2167c7af0009073176,,,,,,5f1ada2167c7af0009073176,Mężczyzna,24,2021-09-06_19h04.49.650,rantool2,2021.1.4,Win32,75.10326699,6135e006383e6ea6c3d06a28,61364a2413b57ae52a84b5d2,"[""period""]",0,[0.45690000000593045],90,0,90,0,1
,,,,,,,5f1ada2167c7af0009073176,,,,,,5f1ada2167c7af0009073176,Mężczyzna,24,2021-09-06_19h04.49.650,rantool2,2021.1.4,Win32,75.10326699,6135e006383e6ea6c3d06a28,61364a2413b57ae52a84b5d2,"[""comma""]",0,[0.1441000000238546],91,0,91,0,1
,,,,,,,5f1ada2167c7af0009073176,,,,,,5f1ada2167c7af0009073176,Mężczyzna,24,2021-09-06_19h04.49.650,rantool2,2021.1.4,Win32,75.10326699,6135e006383e6ea6c3d06a28,61364a2413b57ae52a84b5d2,"[""period""]",0,[0.19419999998808635],92,0,92,0,1
,,,,,,,5f1ada2167c7af0009073176,,,,,,5f1ada2167c7af0009073176,Mężczyzna,24,2021-09-06_19h04.49.650,rantool2,2021.1.4,Win32,75.10326699,6135e006383e6ea6c3d06a28,61364a2413b57ae52a84b5d2,"[""period""]",0,[0.2824000000059641],93,0,93,0,1
,,,,,,,5f1ada2167c7af0009073176,,,,,,5f1ada2167c7af0009073176,Mężczyzna,24,2021-09-06_19h04.49.650,rantool2,2021.1.4,Win32,75.10326699,6135e006383e6ea6c3d06a28,61364a2413b57ae52a84b5d2,"[""comma"",""period""]",0,"[0.2943999999761786,1.7715000000000032]",94,0,94,0,1
,,,,,,,5f1ada2167c7af0009073176,,,,,,5f1ada2167c7af0009073176,Mężczyzna,24,2021-09-06_19h04.49.650,rantool2,2021.1.4,Win32,75.10326699,6135e006383e6ea6c3d06a28,61364a2413b57ae52a84b5d2,"[""period""]",0,[0.5449000000059527],95,0,95,0,1
,,,,,,,5f1ada2167c7af0009073176,,,,,,5f1ada2167c7af0009073176,Mężczyzna,24,2021-09-06_19h04.49.650,rantool2,2021.1.4,Win32,75.10326699,6135e006383e6ea6c3d06a28,61364a2413b57ae52a84b5d2,"[""comma"",""comma""]",0,"[0.39800000000002456,0.8015999999940391]",96,0,96,0,1
,,,,,,,5f1ada2167c7af0009073176,,,,,,5f1ada2167c7af0009073176,Mężczyzna,24,2021-09-06_19h04.49.650,rantool2,2021.1.4,Win32,75.10326699,6135e006383e6ea6c3d06a28,61364a2413b57ae52a84b5d2,"[""period"",""period"",""period""]",0,"[0.31819999998805315,0.6972999999821354,1.2312999999821272]",97,0,97,0,1
,,,,,,,5f1ada2167c7af0009073176,,,,,,5f1ada2167c7af0009073176,Mężczyzna,24,2021-09-06_19h04.49.650,rantool2,2021.1.4,Win32,75.10326699,6135e006383e6ea6c3d06a28,61364a2413b57ae52a84b5d2,"[""comma"",""comma""]",0,"[0.29759999999402,0.5977999999821009]",98,0,98,0,1
,,,,,,,5f1ada2167c7af0009073176,,,,,,5f1ada2167c7af0009073176,Mężczyzna,24,2021-09-06_19h04.49.650,rantool2,2021.1.4,Win32,75.10326699,6135e006383e6ea6c3d06a28,61364a2413b57ae52a84b5d2,"[""period"",""period""]",0,"[0.31359999999403954,0.6942999999821495]",99,0,99,0,1
,,,,,,,5f1ada2167c7af0009073176,,,,,,5f1ada2167c7af0009073176,Mężczyzna,24,2021-09-06_19h04.49.650,rantool2,2021.1.4,Win32,75.10326699,6135e006383e6ea6c3d06a28,61364a2413b57ae52a84b5d2,"[""comma"",""comma""]",0,"[0.31100000000003547,0.6387999999821545]",100,0,100,0,1
,,,,,,,5f1ada2167c7af0009073176,,,,,,5f1ada2167c7af0009073176,Mężczyzna,24,2021-09-06_19h04.49.650,rantool2,2021.1.4,Win32,75.10326699,6135e006383e6ea6c3d06a28,61364a2413b57ae52a84b5d2,"[""period"",""period"",""period""]",0,"[0.15039999997617315,0.5582999999821254,1.8311999999880868]",101,0,101,0,1
,,,,,,,5f1ada2167c7af0009073176,,,,,,5f1ada2167c7af0009073176,Mężczyzna,24,2021-09-06_19h04.49.650,rantool2,2021.1.4,Win32,75.10326699,6135e006383e6ea6c3d06a28,61364a2413b57ae52a84b5d2,"[""period"",""period"",""period""]",0,"[0.1742000000178905,0.5323000000119009,1.9139999999999873]",102,0,102,0,1
,,,,,,,5f1ada2167c7af0009073176,,,,,,5f1ada2167c7af0009073176,Mężczyzna,24,2021-09-06_19h04.49.650,rantool2,2021.1.4,Win32,75.10326699,6135e006383e6ea6c3d06a28,61364a2413b57ae52a84b5d2,"[""comma"",""comma"",""comma""]",0,"[0.23509999999401998,0.5625999999940063,0.9409000000059677]",103,0,103,0,1
,,,,,,,5f1ada2167c7af0009073176,,,,,,5f1ada2167c7af0009073176,Mężczyzna,24,2021-09-06_19h04.49.650,rantool2,2021.1.4,Win32,75.10326699,6135e006383e6ea6c3d06a28,61364a2413b57ae52a84b5d2,"[""period"",""period"",""period""]",0,"[0.28309999999407864,0.567800000011971,1.0205000000000268]",104,0,104,0,1
,,,,,,,5f1ada2167c7af0009073176,,,,,,5f1ada2167c7af0009073176,Mężczyzna,24,2021-09-06_19h04.49.650,rantool2,2021.1.4,Win32,75.10326699,6135e006383e6ea6c3d06a28,61364a2413b57ae52a84b5d2,"[""period"",""period"",""period"",""period""]",0,"[0.18660000002387278,0.32240000000598457,0.5641000000238705,1.01670000001792]",105,0,105,0,1
,,,,,,,5f1ada2167c7af0009073176,,,,,,5f1ada2167c7af0009073176,Mężczyzna,24,2021-09-06_19h04.49.650,rantool2,2021.1.4,Win32,75.10326699,6135e006383e6ea6c3d06a28,61364a2413b57ae52a84b5d2,"[""comma"",""comma"",""comma""]",0,"[0.2992000000178905,0.6928000000119141,1.0174000000059777]",106,0,106,0,1
,,,,,,,5f1ada2167c7af0009073176,,,,,,5f1ada2167c7af0009073176,Mężczyzna,24,2021-09-06_19h04.49.650,rantool2,2021.1.4,Win32,75.10326699,6135e006383e6ea6c3d06a28,61364a2413b57ae52a84b5d2,"[""period""]",0,[0.2404000000059341],107,0,107,0,1
,,,,,,,5f1ada2167c7af0009073176,,,,,,5f1ada2167c7af0009073176,Mężczyzna,24,2021-09-06_19h04.49.650,rantool2,2021.1.4,Win32,75.10326699,6135e006383e6ea6c3d06a28,61364a2413b57ae52a84b5d2,"[""comma""]",0,[0.3394000000059805],108,0,108,0,1
,,,,,,,5f1ada2167c7af0009073176,,,,,,5f1ada2167c7af0009073176,Mężczyzna,24,2021-09-06_19h04.49.650,rantool2,2021.1.4,Win32,75.10326699,6135e006383e6ea6c3d06a28,61364a2413b57ae52a84b5d2,"[""period""]",0,[0.28040000000595455],109,0,109,0,1
,,,,,,,5f1ada2167c7af0009073176,,,,,,5f1ada2167c7af0009073176,Mężczyzna,24,2021-09-06_19h04.49.650,rantool2,2021.1.4,Win32,75.10326699,6135e006383e6ea6c3d06a28,61364a2413b57ae52a84b5d2,"[""comma"",""comma""]",0,"[-0.005300000011914108,1.535000000000025]",110,0,110,0,1
,,,,,,,5f1ada2167c7af0009073176,,,,,,5f1ada2167c7af0009073176,Mężczyzna,24,2021-09-06_19h04.49.650,rantool2,2021.1.4,Win32,75.10326699,6135e006383e6ea6c3d06a28,61364a2413b57ae52a84b5d2,"[""comma""]",0,[0.06430000001194003],111,0,111,0,1
,,,,,,,5f1ada2167c7af0009073176,,,,,,5f1ada2167c7af0009073176,Mężczyzna,24,2021-09-06_19h04.49.650,rantool2,2021.1.4,Win32,75.10326699,6135e006383e6ea6c3d06a28,61364a2413b57ae52a84b5d2,"[""period"",""period""]",0,"[0.0028999999761936124,0.5393999999761832]",112,0,112,0,1
,,,,,,,5f1ada2167c7af0009073176,,,,,,5f1ada2167c7af0009073176,Mężczyzna,24,2021-09-06_19h04.49.650,rantool2,2021.1.4,Win32,75.10326699,6135e006383e6ea6c3d06a28,61364a2413b57ae52a84b5d2,"[""comma""]",0,[0.29329999998213907],113,0,113,0,1
,,,,,,,5f1ada2167c7af0009073176,,,,,,5f1ada2167c7af0009073176,Mężczyzna,24,2021-09-06_19h04.49.650,rantool2,2021.1.4,Win32,75.10326699,6135e006383e6ea6c3d06a28,61364a2413b57ae52a84b5d2,"[""comma""]",0,[0.2977000000178691],114,0,114,0,1
,,,,,,,5f1ada2167c7af0009073176,,,,,,5f1ada2167c7af0009073176,Mężczyzna,24,2021-09-06_19h04.49.650,rantool2,2021.1.4,Win32,75.10326699,6135e006383e6ea6c3d06a28,61364a2413b57ae52a84b5d2,"[""period""]",0,[0.3579000000059409],115,0,115,0,1
,,,,,,,5f1ada2167c7af0009073176,,,,,,5f1ada2167c7af0009073176,Mężczyzna,24,2021-09-06_19h04.49.650,rantool2,2021.1.4,Win32,75.10326699,6135e006383e6ea6c3d06a28,61364a2413b57ae52a84b5d2,"[""period""]",0,[0.37409999999403],116,0,116,0,1
,,,,,,,5f1ada2167c7af0009073176,,,,,,5f1ada2167c7af0009073176,Mężczyzna,24,2021-09-06_19h04.49.650,rantool2,2021.1.4,Win32,75.10326699,6135e006383e6ea6c3d06a28,61364a2413b57ae52a84b5d2,"[""comma"",""comma""]",0,"[0.333500000000015,0.8327999999821145]",117,0,117,0,1
,,,,,,,5f1ada2167c7af0009073176,,,,,,5f1ada2167c7af0009073176,Mężczyzna,24,2021-09-06_19h04.49.650,rantool2,2021.1.4,Win32,75.10326699,6135e006383e6ea6c3d06a28,61364a2413b57ae52a84b5d2,"[""comma""]",0,[0.3778999999761936],118,0,118,0,1
,,,,,,,5f1ada2167c7af0009073176,,,,,,5f1ada2167c7af0009073176,Mężczyzna,24,2021-09-06_19h04.49.650,rantool2,2021.1.4,Win32,75.10326699,6135e006383e6ea6c3d06a28,61364a2413b57ae52a84b5d2,"[""period"",""period""]",0,"[0.20540000000596592,0.4285000000000423]",119,0,119,0,1
