key_resp_5.keys,key_resp_5.corr,key_resp_5.rt,trials.thisRepN,trials.thisTrialN,trials.thisN,trials.thisIndex,trials.ran,id*,Płeć*,Wiek*,date,expName,psychopyVersion,OS,frameRate,id,STUDY_ID,SESSION_ID,key_resp_7.keys,key_resp_7.rt,trials_2.thisRepN,trials_2.thisTrialN,trials_2.thisN,trials_2.thisIndex,trials_2.ran,series_0,series_1,acss_0,acss_1,comparison
"[""comma""]",0,[1.1150649999981397],0,0,0,0,1,5e922071b5eae9072f93146c,Mężczyzna,20,2021-07-13_21h24.46.511,rantool2,2021.1.4,Win32,74.94566439,5e922071b5eae9072f93146c,60d9d14f4a8a35a482e0d9bf,60ede864ab195ed380c4f4b2,,,,,,,,,,,,
"[""comma""]",0,[1.0006699999976263],1,0,1,0,1,5e922071b5eae9072f93146c,Mężczyzna,20,2021-07-13_21h24.46.511,rantool2,2021.1.4,Win32,74.94566439,5e922071b5eae9072f93146c,60d9d14f4a8a35a482e0d9bf,60ede864ab195ed380c4f4b2,,,,,,,,,,,,
"[""period""]",0,[0.9956300000012561],2,0,2,0,1,5e922071b5eae9072f93146c,Mężczyzna,20,2021-07-13_21h24.46.511,rantool2,2021.1.4,Win32,74.94566439,5e922071b5eae9072f93146c,60d9d14f4a8a35a482e0d9bf,60ede864ab195ed380c4f4b2,,,,,,,,,,,,
"[""comma""]",0,[1.0139999999992142],3,0,3,0,1,5e922071b5eae9072f93146c,Mężczyzna,20,2021-07-13_21h24.46.511,rantool2,2021.1.4,Win32,74.94566439,5e922071b5eae9072f93146c,60d9d14f4a8a35a482e0d9bf,60ede864ab195ed380c4f4b2,,,,,,,,,,,,
"[""period""]",0,[0.9740000000019791],4,0,4,0,1,5e922071b5eae9072f93146c,Mężczyzna,20,2021-07-13_21h24.46.511,rantool2,2021.1.4,Win32,74.94566439,5e922071b5eae9072f93146c,60d9d14f4a8a35a482e0d9bf,60ede864ab195ed380c4f4b2,,,,,,,,,,,,
"[""period""]",0,[0.9935650000006717],5,0,5,0,1,5e922071b5eae9072f93146c,Mężczyzna,20,2021-07-13_21h24.46.511,rantool2,2021.1.4,Win32,74.94566439,5e922071b5eae9072f93146c,60d9d14f4a8a35a482e0d9bf,60ede864ab195ed380c4f4b2,,,,,,,,,,,,
"[""comma""]",0,[0.9686249999977008],6,0,6,0,1,5e922071b5eae9072f93146c,Mężczyzna,20,2021-07-13_21h24.46.511,rantool2,2021.1.4,Win32,74.94566439,5e922071b5eae9072f93146c,60d9d14f4a8a35a482e0d9bf,60ede864ab195ed380c4f4b2,,,,,,,,,,,,
"[""comma""]",0,[0.9118200000011711],7,0,7,0,1,5e922071b5eae9072f93146c,Mężczyzna,20,2021-07-13_21h24.46.511,rantool2,2021.1.4,Win32,74.94566439,5e922071b5eae9072f93146c,60d9d14f4a8a35a482e0d9bf,60ede864ab195ed380c4f4b2,,,,,,,,,,,,
"[""period""]",0,[0.983090000001539],8,0,8,0,1,5e922071b5eae9072f93146c,Mężczyzna,20,2021-07-13_21h24.46.511,rantool2,2021.1.4,Win32,74.94566439,5e922071b5eae9072f93146c,60d9d14f4a8a35a482e0d9bf,60ede864ab195ed380c4f4b2,,,,,,,,,,,,
"[""period""]",0,[1.0944049999998242],9,0,9,0,1,5e922071b5eae9072f93146c,Mężczyzna,20,2021-07-13_21h24.46.511,rantool2,2021.1.4,Win32,74.94566439,5e922071b5eae9072f93146c,60d9d14f4a8a35a482e0d9bf,60ede864ab195ed380c4f4b2,,,,,,,,,,,,
"[""period""]",0,[1.0538349999987986],10,0,10,0,1,5e922071b5eae9072f93146c,Mężczyzna,20,2021-07-13_21h24.46.511,rantool2,2021.1.4,Win32,74.94566439,5e922071b5eae9072f93146c,60d9d14f4a8a35a482e0d9bf,60ede864ab195ed380c4f4b2,,,,,,,,,,,,
"[""comma""]",0,[1.036804999999731],11,0,11,0,1,5e922071b5eae9072f93146c,Mężczyzna,20,2021-07-13_21h24.46.511,rantool2,2021.1.4,Win32,74.94566439,5e922071b5eae9072f93146c,60d9d14f4a8a35a482e0d9bf,60ede864ab195ed380c4f4b2,,,,,,,,,,,,
"[""comma""]",0,[1.000689999997121],12,0,12,0,1,5e922071b5eae9072f93146c,Mężczyzna,20,2021-07-13_21h24.46.511,rantool2,2021.1.4,Win32,74.94566439,5e922071b5eae9072f93146c,60d9d14f4a8a35a482e0d9bf,60ede864ab195ed380c4f4b2,,,,,,,,,,,,
"[""period""]",0,[0.8592449999996461],13,0,13,0,1,5e922071b5eae9072f93146c,Mężczyzna,20,2021-07-13_21h24.46.511,rantool2,2021.1.4,Win32,74.94566439,5e922071b5eae9072f93146c,60d9d14f4a8a35a482e0d9bf,60ede864ab195ed380c4f4b2,,,,,,,,,,,,
"[""comma""]",0,[0.8672249999981432],14,0,14,0,1,5e922071b5eae9072f93146c,Mężczyzna,20,2021-07-13_21h24.46.511,rantool2,2021.1.4,Win32,74.94566439,5e922071b5eae9072f93146c,60d9d14f4a8a35a482e0d9bf,60ede864ab195ed380c4f4b2,,,,,,,,,,,,
"[""comma""]",0,[0.9872849999992468],15,0,15,0,1,5e922071b5eae9072f93146c,Mężczyzna,20,2021-07-13_21h24.46.511,rantool2,2021.1.4,Win32,74.94566439,5e922071b5eae9072f93146c,60d9d14f4a8a35a482e0d9bf,60ede864ab195ed380c4f4b2,,,,,,,,,,,,
"[""comma""]",0,[1.0170900000011898],16,0,16,0,1,5e922071b5eae9072f93146c,Mężczyzna,20,2021-07-13_21h24.46.511,rantool2,2021.1.4,Win32,74.94566439,5e922071b5eae9072f93146c,60d9d14f4a8a35a482e0d9bf,60ede864ab195ed380c4f4b2,,,,,,,,,,,,
"[""period""]",0,[0.9522499999984575],17,0,17,0,1,5e922071b5eae9072f93146c,Mężczyzna,20,2021-07-13_21h24.46.511,rantool2,2021.1.4,Win32,74.94566439,5e922071b5eae9072f93146c,60d9d14f4a8a35a482e0d9bf,60ede864ab195ed380c4f4b2,,,,,,,,,,,,
"[""period""]",0,[0.8634350000029372],18,0,18,0,1,5e922071b5eae9072f93146c,Mężczyzna,20,2021-07-13_21h24.46.511,rantool2,2021.1.4,Win32,74.94566439,5e922071b5eae9072f93146c,60d9d14f4a8a35a482e0d9bf,60ede864ab195ed380c4f4b2,,,,,,,,,,,,
"[""period""]",0,[0.779950000000099],19,0,19,0,1,5e922071b5eae9072f93146c,Mężczyzna,20,2021-07-13_21h24.46.511,rantool2,2021.1.4,Win32,74.94566439,5e922071b5eae9072f93146c,60d9d14f4a8a35a482e0d9bf,60ede864ab195ed380c4f4b2,,,,,,,,,,,,
"[""comma""]",0,[0.9074250000012398],20,0,20,0,1,5e922071b5eae9072f93146c,Mężczyzna,20,2021-07-13_21h24.46.511,rantool2,2021.1.4,Win32,74.94566439,5e922071b5eae9072f93146c,60d9d14f4a8a35a482e0d9bf,60ede864ab195ed380c4f4b2,,,,,,,,,,,,
"[""period""]",0,[1.0007299999997485],21,0,21,0,1,5e922071b5eae9072f93146c,Mężczyzna,20,2021-07-13_21h24.46.511,rantool2,2021.1.4,Win32,74.94566439,5e922071b5eae9072f93146c,60d9d14f4a8a35a482e0d9bf,60ede864ab195ed380c4f4b2,,,,,,,,,,,,
"[""comma""]",0,[0.9938450000008743],22,0,22,0,1,5e922071b5eae9072f93146c,Mężczyzna,20,2021-07-13_21h24.46.511,rantool2,2021.1.4,Win32,74.94566439,5e922071b5eae9072f93146c,60d9d14f4a8a35a482e0d9bf,60ede864ab195ed380c4f4b2,,,,,,,,,,,,
"[""comma""]",0,[0.9929799999990792],23,0,23,0,1,5e922071b5eae9072f93146c,Mężczyzna,20,2021-07-13_21h24.46.511,rantool2,2021.1.4,Win32,74.94566439,5e922071b5eae9072f93146c,60d9d14f4a8a35a482e0d9bf,60ede864ab195ed380c4f4b2,,,,,,,,,,,,
"[""comma""]",0,[0.9605749999973341],24,0,24,0,1,5e922071b5eae9072f93146c,Mężczyzna,20,2021-07-13_21h24.46.511,rantool2,2021.1.4,Win32,74.94566439,5e922071b5eae9072f93146c,60d9d14f4a8a35a482e0d9bf,60ede864ab195ed380c4f4b2,,,,,,,,,,,,
"[""period""]",0,[0.8805649999994785],25,0,25,0,1,5e922071b5eae9072f93146c,Mężczyzna,20,2021-07-13_21h24.46.511,rantool2,2021.1.4,Win32,74.94566439,5e922071b5eae9072f93146c,60d9d14f4a8a35a482e0d9bf,60ede864ab195ed380c4f4b2,,,,,,,,,,,,
"[""period""]",0,[0.9605450000017299],26,0,26,0,1,5e922071b5eae9072f93146c,Mężczyzna,20,2021-07-13_21h24.46.511,rantool2,2021.1.4,Win32,74.94566439,5e922071b5eae9072f93146c,60d9d14f4a8a35a482e0d9bf,60ede864ab195ed380c4f4b2,,,,,,,,,,,,
"[""period""]",0,[1.0060950000006414],27,0,27,0,1,5e922071b5eae9072f93146c,Mężczyzna,20,2021-07-13_21h24.46.511,rantool2,2021.1.4,Win32,74.94566439,5e922071b5eae9072f93146c,60d9d14f4a8a35a482e0d9bf,60ede864ab195ed380c4f4b2,,,,,,,,,,,,
"[""period""]",0,[0.94917500000156],28,0,28,0,1,5e922071b5eae9072f93146c,Mężczyzna,20,2021-07-13_21h24.46.511,rantool2,2021.1.4,Win32,74.94566439,5e922071b5eae9072f93146c,60d9d14f4a8a35a482e0d9bf,60ede864ab195ed380c4f4b2,,,,,,,,,,,,
"[""comma""]",0,[0.9403949999978067],29,0,29,0,1,5e922071b5eae9072f93146c,Mężczyzna,20,2021-07-13_21h24.46.511,rantool2,2021.1.4,Win32,74.94566439,5e922071b5eae9072f93146c,60d9d14f4a8a35a482e0d9bf,60ede864ab195ed380c4f4b2,,,,,,,,,,,,
"[""comma""]",0,[0.9396249999990687],30,0,30,0,1,5e922071b5eae9072f93146c,Mężczyzna,20,2021-07-13_21h24.46.511,rantool2,2021.1.4,Win32,74.94566439,5e922071b5eae9072f93146c,60d9d14f4a8a35a482e0d9bf,60ede864ab195ed380c4f4b2,,,,,,,,,,,,
"[""period""]",0,[0.9740100000017264],31,0,31,0,1,5e922071b5eae9072f93146c,Mężczyzna,20,2021-07-13_21h24.46.511,rantool2,2021.1.4,Win32,74.94566439,5e922071b5eae9072f93146c,60d9d14f4a8a35a482e0d9bf,60ede864ab195ed380c4f4b2,,,,,,,,,,,,
"[""comma""]",0,[0.9780700000010256],32,0,32,0,1,5e922071b5eae9072f93146c,Mężczyzna,20,2021-07-13_21h24.46.511,rantool2,2021.1.4,Win32,74.94566439,5e922071b5eae9072f93146c,60d9d14f4a8a35a482e0d9bf,60ede864ab195ed380c4f4b2,,,,,,,,,,,,
"[""comma""]",0,[0.9615099999973609],33,0,33,0,1,5e922071b5eae9072f93146c,Mężczyzna,20,2021-07-13_21h24.46.511,rantool2,2021.1.4,Win32,74.94566439,5e922071b5eae9072f93146c,60d9d14f4a8a35a482e0d9bf,60ede864ab195ed380c4f4b2,,,,,,,,,,,,
"[""comma""]",0,[0.9525749999993423],34,0,34,0,1,5e922071b5eae9072f93146c,Mężczyzna,20,2021-07-13_21h24.46.511,rantool2,2021.1.4,Win32,74.94566439,5e922071b5eae9072f93146c,60d9d14f4a8a35a482e0d9bf,60ede864ab195ed380c4f4b2,,,,,,,,,,,,
"[""period""]",0,[0.9205250000013621],35,0,35,0,1,5e922071b5eae9072f93146c,Mężczyzna,20,2021-07-13_21h24.46.511,rantool2,2021.1.4,Win32,74.94566439,5e922071b5eae9072f93146c,60d9d14f4a8a35a482e0d9bf,60ede864ab195ed380c4f4b2,,,,,,,,,,,,
"[""period""]",0,[0.924380000000383],36,0,36,0,1,5e922071b5eae9072f93146c,Mężczyzna,20,2021-07-13_21h24.46.511,rantool2,2021.1.4,Win32,74.94566439,5e922071b5eae9072f93146c,60d9d14f4a8a35a482e0d9bf,60ede864ab195ed380c4f4b2,,,,,,,,,,,,
"[""period""]",0,[0.9487300000000687],37,0,37,0,1,5e922071b5eae9072f93146c,Mężczyzna,20,2021-07-13_21h24.46.511,rantool2,2021.1.4,Win32,74.94566439,5e922071b5eae9072f93146c,60d9d14f4a8a35a482e0d9bf,60ede864ab195ed380c4f4b2,,,,,,,,,,,,
"[""period""]",0,[0.8508900000015274],38,0,38,0,1,5e922071b5eae9072f93146c,Mężczyzna,20,2021-07-13_21h24.46.511,rantool2,2021.1.4,Win32,74.94566439,5e922071b5eae9072f93146c,60d9d14f4a8a35a482e0d9bf,60ede864ab195ed380c4f4b2,,,,,,,,,,,,
"[""comma""]",0,[0.7703399999991234],39,0,39,0,1,5e922071b5eae9072f93146c,Mężczyzna,20,2021-07-13_21h24.46.511,rantool2,2021.1.4,Win32,74.94566439,5e922071b5eae9072f93146c,60d9d14f4a8a35a482e0d9bf,60ede864ab195ed380c4f4b2,,,,,,,,,,,,
"[""comma""]",0,[0.9463299999988521],40,0,40,0,1,5e922071b5eae9072f93146c,Mężczyzna,20,2021-07-13_21h24.46.511,rantool2,2021.1.4,Win32,74.94566439,5e922071b5eae9072f93146c,60d9d14f4a8a35a482e0d9bf,60ede864ab195ed380c4f4b2,,,,,,,,,,,,
"[""period""]",0,[0.7525350000032631],41,0,41,0,1,5e922071b5eae9072f93146c,Mężczyzna,20,2021-07-13_21h24.46.511,rantool2,2021.1.4,Win32,74.94566439,5e922071b5eae9072f93146c,60d9d14f4a8a35a482e0d9bf,60ede864ab195ed380c4f4b2,,,,,,,,,,,,
"[""comma""]",0,[0.6540099999983795],42,0,42,0,1,5e922071b5eae9072f93146c,Mężczyzna,20,2021-07-13_21h24.46.511,rantool2,2021.1.4,Win32,74.94566439,5e922071b5eae9072f93146c,60d9d14f4a8a35a482e0d9bf,60ede864ab195ed380c4f4b2,,,,,,,,,,,,
"[""period""]",0,[0.8004849999997532],43,0,43,0,1,5e922071b5eae9072f93146c,Mężczyzna,20,2021-07-13_21h24.46.511,rantool2,2021.1.4,Win32,74.94566439,5e922071b5eae9072f93146c,60d9d14f4a8a35a482e0d9bf,60ede864ab195ed380c4f4b2,,,,,,,,,,,,
"[""comma""]",0,[0.7985000000007858],44,0,44,0,1,5e922071b5eae9072f93146c,Mężczyzna,20,2021-07-13_21h24.46.511,rantool2,2021.1.4,Win32,74.94566439,5e922071b5eae9072f93146c,60d9d14f4a8a35a482e0d9bf,60ede864ab195ed380c4f4b2,,,,,,,,,,,,
"[""comma""]",0,[0.757579999997688],45,0,45,0,1,5e922071b5eae9072f93146c,Mężczyzna,20,2021-07-13_21h24.46.511,rantool2,2021.1.4,Win32,74.94566439,5e922071b5eae9072f93146c,60d9d14f4a8a35a482e0d9bf,60ede864ab195ed380c4f4b2,,,,,,,,,,,,
"[""period""]",0,[0.8539499999969848],46,0,46,0,1,5e922071b5eae9072f93146c,Mężczyzna,20,2021-07-13_21h24.46.511,rantool2,2021.1.4,Win32,74.94566439,5e922071b5eae9072f93146c,60d9d14f4a8a35a482e0d9bf,60ede864ab195ed380c4f4b2,,,,,,,,,,,,
"[""period""]",0,[0.8600000000005821],47,0,47,0,1,5e922071b5eae9072f93146c,Mężczyzna,20,2021-07-13_21h24.46.511,rantool2,2021.1.4,Win32,74.94566439,5e922071b5eae9072f93146c,60d9d14f4a8a35a482e0d9bf,60ede864ab195ed380c4f4b2,,,,,,,,,,,,
"[""comma""]",0,[0.9152350000003935],48,0,48,0,1,5e922071b5eae9072f93146c,Mężczyzna,20,2021-07-13_21h24.46.511,rantool2,2021.1.4,Win32,74.94566439,5e922071b5eae9072f93146c,60d9d14f4a8a35a482e0d9bf,60ede864ab195ed380c4f4b2,,,,,,,,,,,,
"[""comma""]",0,[0.850654999998369],49,0,49,0,1,5e922071b5eae9072f93146c,Mężczyzna,20,2021-07-13_21h24.46.511,rantool2,2021.1.4,Win32,74.94566439,5e922071b5eae9072f93146c,60d9d14f4a8a35a482e0d9bf,60ede864ab195ed380c4f4b2,,,,,,,,,,,,
"[""period""]",0,[0.8097150000030524],50,0,50,0,1,5e922071b5eae9072f93146c,Mężczyzna,20,2021-07-13_21h24.46.511,rantool2,2021.1.4,Win32,74.94566439,5e922071b5eae9072f93146c,60d9d14f4a8a35a482e0d9bf,60ede864ab195ed380c4f4b2,,,,,,,,,,,,
"[""comma""]",0,[0.7528600000005099],51,0,51,0,1,5e922071b5eae9072f93146c,Mężczyzna,20,2021-07-13_21h24.46.511,rantool2,2021.1.4,Win32,74.94566439,5e922071b5eae9072f93146c,60d9d14f4a8a35a482e0d9bf,60ede864ab195ed380c4f4b2,,,,,,,,,,,,
"[""period""]",0,[0.8405600000005506],52,0,52,0,1,5e922071b5eae9072f93146c,Mężczyzna,20,2021-07-13_21h24.46.511,rantool2,2021.1.4,Win32,74.94566439,5e922071b5eae9072f93146c,60d9d14f4a8a35a482e0d9bf,60ede864ab195ed380c4f4b2,,,,,,,,,,,,
"[""period""]",0,[0.8406199999990349],53,0,53,0,1,5e922071b5eae9072f93146c,Mężczyzna,20,2021-07-13_21h24.46.511,rantool2,2021.1.4,Win32,74.94566439,5e922071b5eae9072f93146c,60d9d14f4a8a35a482e0d9bf,60ede864ab195ed380c4f4b2,,,,,,,,,,,,
"[""period""]",0,[0.7738400000016554],54,0,54,0,1,5e922071b5eae9072f93146c,Mężczyzna,20,2021-07-13_21h24.46.511,rantool2,2021.1.4,Win32,74.94566439,5e922071b5eae9072f93146c,60d9d14f4a8a35a482e0d9bf,60ede864ab195ed380c4f4b2,,,,,,,,,,,,
"[""comma""]",0,[0.7154150000023947],55,0,55,0,1,5e922071b5eae9072f93146c,Mężczyzna,20,2021-07-13_21h24.46.511,rantool2,2021.1.4,Win32,74.94566439,5e922071b5eae9072f93146c,60d9d14f4a8a35a482e0d9bf,60ede864ab195ed380c4f4b2,,,,,,,,,,,,
"[""comma""]",0,[0.850429999998596],56,0,56,0,1,5e922071b5eae9072f93146c,Mężczyzna,20,2021-07-13_21h24.46.511,rantool2,2021.1.4,Win32,74.94566439,5e922071b5eae9072f93146c,60d9d14f4a8a35a482e0d9bf,60ede864ab195ed380c4f4b2,,,,,,,,,,,,
"[""period""]",0,[0.6977100000003702],57,0,57,0,1,5e922071b5eae9072f93146c,Mężczyzna,20,2021-07-13_21h24.46.511,rantool2,2021.1.4,Win32,74.94566439,5e922071b5eae9072f93146c,60d9d14f4a8a35a482e0d9bf,60ede864ab195ed380c4f4b2,,,,,,,,,,,,
"[""period""]",0,[0.8170049999971525],58,0,58,0,1,5e922071b5eae9072f93146c,Mężczyzna,20,2021-07-13_21h24.46.511,rantool2,2021.1.4,Win32,74.94566439,5e922071b5eae9072f93146c,60d9d14f4a8a35a482e0d9bf,60ede864ab195ed380c4f4b2,,,,,,,,,,,,
"[""period""]",0,[0.8722150000030524],59,0,59,0,1,5e922071b5eae9072f93146c,Mężczyzna,20,2021-07-13_21h24.46.511,rantool2,2021.1.4,Win32,74.94566439,5e922071b5eae9072f93146c,60d9d14f4a8a35a482e0d9bf,60ede864ab195ed380c4f4b2,,,,,,,,,,,,
"[""period""]",0,[0.9275850000012724],60,0,60,0,1,5e922071b5eae9072f93146c,Mężczyzna,20,2021-07-13_21h24.46.511,rantool2,2021.1.4,Win32,74.94566439,5e922071b5eae9072f93146c,60d9d14f4a8a35a482e0d9bf,60ede864ab195ed380c4f4b2,,,,,,,,,,,,
"[""period""]",0,[0.9107450000010431],61,0,61,0,1,5e922071b5eae9072f93146c,Mężczyzna,20,2021-07-13_21h24.46.511,rantool2,2021.1.4,Win32,74.94566439,5e922071b5eae9072f93146c,60d9d14f4a8a35a482e0d9bf,60ede864ab195ed380c4f4b2,,,,,,,,,,,,
"[""comma""]",0,[0.8541299999997136],62,0,62,0,1,5e922071b5eae9072f93146c,Mężczyzna,20,2021-07-13_21h24.46.511,rantool2,2021.1.4,Win32,74.94566439,5e922071b5eae9072f93146c,60d9d14f4a8a35a482e0d9bf,60ede864ab195ed380c4f4b2,,,,,,,,,,,,
"[""comma""]",0,[0.7651349999978265],63,0,63,0,1,5e922071b5eae9072f93146c,Mężczyzna,20,2021-07-13_21h24.46.511,rantool2,2021.1.4,Win32,74.94566439,5e922071b5eae9072f93146c,60d9d14f4a8a35a482e0d9bf,60ede864ab195ed380c4f4b2,,,,,,,,,,,,
"[""period""]",0,[0.7338500000005297],64,0,64,0,1,5e922071b5eae9072f93146c,Mężczyzna,20,2021-07-13_21h24.46.511,rantool2,2021.1.4,Win32,74.94566439,5e922071b5eae9072f93146c,60d9d14f4a8a35a482e0d9bf,60ede864ab195ed380c4f4b2,,,,,,,,,,,,
"[""comma""]",0,[0.9397900000003574],65,0,65,0,1,5e922071b5eae9072f93146c,Mężczyzna,20,2021-07-13_21h24.46.511,rantool2,2021.1.4,Win32,74.94566439,5e922071b5eae9072f93146c,60d9d14f4a8a35a482e0d9bf,60ede864ab195ed380c4f4b2,,,,,,,,,,,,
"[""comma""]",0,[0.8539100000016333],66,0,66,0,1,5e922071b5eae9072f93146c,Mężczyzna,20,2021-07-13_21h24.46.511,rantool2,2021.1.4,Win32,74.94566439,5e922071b5eae9072f93146c,60d9d14f4a8a35a482e0d9bf,60ede864ab195ed380c4f4b2,,,,,,,,,,,,
"[""comma""]",0,[0.6980049999983748],67,0,67,0,1,5e922071b5eae9072f93146c,Mężczyzna,20,2021-07-13_21h24.46.511,rantool2,2021.1.4,Win32,74.94566439,5e922071b5eae9072f93146c,60d9d14f4a8a35a482e0d9bf,60ede864ab195ed380c4f4b2,,,,,,,,,,,,
"[""comma""]",0,[0.5372900000002119],68,0,68,0,1,5e922071b5eae9072f93146c,Mężczyzna,20,2021-07-13_21h24.46.511,rantool2,2021.1.4,Win32,74.94566439,5e922071b5eae9072f93146c,60d9d14f4a8a35a482e0d9bf,60ede864ab195ed380c4f4b2,,,,,,,,,,,,
"[""comma""]",0,[0.6565699999991921],69,0,69,0,1,5e922071b5eae9072f93146c,Mężczyzna,20,2021-07-13_21h24.46.511,rantool2,2021.1.4,Win32,74.94566439,5e922071b5eae9072f93146c,60d9d14f4a8a35a482e0d9bf,60ede864ab195ed380c4f4b2,,,,,,,,,,,,
"[""period""]",0,[0.5429100000001199],70,0,70,0,1,5e922071b5eae9072f93146c,Mężczyzna,20,2021-07-13_21h24.46.511,rantool2,2021.1.4,Win32,74.94566439,5e922071b5eae9072f93146c,60d9d14f4a8a35a482e0d9bf,60ede864ab195ed380c4f4b2,,,,,,,,,,,,
"[""comma"",""period""]",0,"[0.40055000000211294,1.7243300000009185]",71,0,71,0,1,5e922071b5eae9072f93146c,Mężczyzna,20,2021-07-13_21h24.46.511,rantool2,2021.1.4,Win32,74.94566439,5e922071b5eae9072f93146c,60d9d14f4a8a35a482e0d9bf,60ede864ab195ed380c4f4b2,,,,,,,,,,,,
"[""period""]",0,[0.499614999996993],72,0,72,0,1,5e922071b5eae9072f93146c,Mężczyzna,20,2021-07-13_21h24.46.511,rantool2,2021.1.4,Win32,74.94566439,5e922071b5eae9072f93146c,60d9d14f4a8a35a482e0d9bf,60ede864ab195ed380c4f4b2,,,,,,,,,,,,
"[""comma""]",0,[0.6349499999996624],73,0,73,0,1,5e922071b5eae9072f93146c,Mężczyzna,20,2021-07-13_21h24.46.511,rantool2,2021.1.4,Win32,74.94566439,5e922071b5eae9072f93146c,60d9d14f4a8a35a482e0d9bf,60ede864ab195ed380c4f4b2,,,,,,,,,,,,
"[""period""]",0,[0.7940699999999197],74,0,74,0,1,5e922071b5eae9072f93146c,Mężczyzna,20,2021-07-13_21h24.46.511,rantool2,2021.1.4,Win32,74.94566439,5e922071b5eae9072f93146c,60d9d14f4a8a35a482e0d9bf,60ede864ab195ed380c4f4b2,,,,,,,,,,,,
"[""comma""]",0,[0.48130999999921187],75,0,75,0,1,5e922071b5eae9072f93146c,Mężczyzna,20,2021-07-13_21h24.46.511,rantool2,2021.1.4,Win32,74.94566439,5e922071b5eae9072f93146c,60d9d14f4a8a35a482e0d9bf,60ede864ab195ed380c4f4b2,,,,,,,,,,,,
"[""period""]",0,[0.5926949999993667],76,0,76,0,1,5e922071b5eae9072f93146c,Mężczyzna,20,2021-07-13_21h24.46.511,rantool2,2021.1.4,Win32,74.94566439,5e922071b5eae9072f93146c,60d9d14f4a8a35a482e0d9bf,60ede864ab195ed380c4f4b2,,,,,,,,,,,,
"[""comma""]",0,[0.8805600000014238],77,0,77,0,1,5e922071b5eae9072f93146c,Mężczyzna,20,2021-07-13_21h24.46.511,rantool2,2021.1.4,Win32,74.94566439,5e922071b5eae9072f93146c,60d9d14f4a8a35a482e0d9bf,60ede864ab195ed380c4f4b2,,,,,,,,,,,,
"[""comma""]",0,[0.6870799999996962],78,0,78,0,1,5e922071b5eae9072f93146c,Mężczyzna,20,2021-07-13_21h24.46.511,rantool2,2021.1.4,Win32,74.94566439,5e922071b5eae9072f93146c,60d9d14f4a8a35a482e0d9bf,60ede864ab195ed380c4f4b2,,,,,,,,,,,,
"[""comma""]",0,[1.502635000000737],79,0,79,0,1,5e922071b5eae9072f93146c,Mężczyzna,20,2021-07-13_21h24.46.511,rantool2,2021.1.4,Win32,74.94566439,5e922071b5eae9072f93146c,60d9d14f4a8a35a482e0d9bf,60ede864ab195ed380c4f4b2,,,,,,,,,,,,
"[""period""]",0,[0.9814750000005006],80,0,80,0,1,5e922071b5eae9072f93146c,Mężczyzna,20,2021-07-13_21h24.46.511,rantool2,2021.1.4,Win32,74.94566439,5e922071b5eae9072f93146c,60d9d14f4a8a35a482e0d9bf,60ede864ab195ed380c4f4b2,,,,,,,,,,,,
"[""comma""]",0,[0.6808149999997113],81,0,81,0,1,5e922071b5eae9072f93146c,Mężczyzna,20,2021-07-13_21h24.46.511,rantool2,2021.1.4,Win32,74.94566439,5e922071b5eae9072f93146c,60d9d14f4a8a35a482e0d9bf,60ede864ab195ed380c4f4b2,,,,,,,,,,,,
"[""period""]",0,[0.5872400000007474],82,0,82,0,1,5e922071b5eae9072f93146c,Mężczyzna,20,2021-07-13_21h24.46.511,rantool2,2021.1.4,Win32,74.94566439,5e922071b5eae9072f93146c,60d9d14f4a8a35a482e0d9bf,60ede864ab195ed380c4f4b2,,,,,,,,,,,,
"[""comma""]",0,[0.6673749999972642],83,0,83,0,1,5e922071b5eae9072f93146c,Mężczyzna,20,2021-07-13_21h24.46.511,rantool2,2021.1.4,Win32,74.94566439,5e922071b5eae9072f93146c,60d9d14f4a8a35a482e0d9bf,60ede864ab195ed380c4f4b2,,,,,,,,,,,,
"[""comma""]",0,[0.7226100000007136],84,0,84,0,1,5e922071b5eae9072f93146c,Mężczyzna,20,2021-07-13_21h24.46.511,rantool2,2021.1.4,Win32,74.94566439,5e922071b5eae9072f93146c,60d9d14f4a8a35a482e0d9bf,60ede864ab195ed380c4f4b2,,,,,,,,,,,,
"[""comma""]",0,[0.6576849999983096],85,0,85,0,1,5e922071b5eae9072f93146c,Mężczyzna,20,2021-07-13_21h24.46.511,rantool2,2021.1.4,Win32,74.94566439,5e922071b5eae9072f93146c,60d9d14f4a8a35a482e0d9bf,60ede864ab195ed380c4f4b2,,,,,,,,,,,,
"[""period""]",0,[0.7131250000020373],86,0,86,0,1,5e922071b5eae9072f93146c,Mężczyzna,20,2021-07-13_21h24.46.511,rantool2,2021.1.4,Win32,74.94566439,5e922071b5eae9072f93146c,60d9d14f4a8a35a482e0d9bf,60ede864ab195ed380c4f4b2,,,,,,,,,,,,
"[""period""]",0,[0.8321900000009919],87,0,87,0,1,5e922071b5eae9072f93146c,Mężczyzna,20,2021-07-13_21h24.46.511,rantool2,2021.1.4,Win32,74.94566439,5e922071b5eae9072f93146c,60d9d14f4a8a35a482e0d9bf,60ede864ab195ed380c4f4b2,,,,,,,,,,,,
"[""comma""]",0,[0.5473399999973481],88,0,88,0,1,5e922071b5eae9072f93146c,Mężczyzna,20,2021-07-13_21h24.46.511,rantool2,2021.1.4,Win32,74.94566439,5e922071b5eae9072f93146c,60d9d14f4a8a35a482e0d9bf,60ede864ab195ed380c4f4b2,,,,,,,,,,,,
"[""period""]",0,[0.4138749999983702],89,0,89,0,1,5e922071b5eae9072f93146c,Mężczyzna,20,2021-07-13_21h24.46.511,rantool2,2021.1.4,Win32,74.94566439,5e922071b5eae9072f93146c,60d9d14f4a8a35a482e0d9bf,60ede864ab195ed380c4f4b2,,,,,,,,,,,,
"[""period""]",0,[0.5873250000004191],90,0,90,0,1,5e922071b5eae9072f93146c,Mężczyzna,20,2021-07-13_21h24.46.511,rantool2,2021.1.4,Win32,74.94566439,5e922071b5eae9072f93146c,60d9d14f4a8a35a482e0d9bf,60ede864ab195ed380c4f4b2,,,,,,,,,,,,
"[""comma""]",0,[0.7546099999999569],91,0,91,0,1,5e922071b5eae9072f93146c,Mężczyzna,20,2021-07-13_21h24.46.511,rantool2,2021.1.4,Win32,74.94566439,5e922071b5eae9072f93146c,60d9d14f4a8a35a482e0d9bf,60ede864ab195ed380c4f4b2,,,,,,,,,,,,
"[""comma""]",0,[0.6673599999994622],92,0,92,0,1,5e922071b5eae9072f93146c,Mężczyzna,20,2021-07-13_21h24.46.511,rantool2,2021.1.4,Win32,74.94566439,5e922071b5eae9072f93146c,60d9d14f4a8a35a482e0d9bf,60ede864ab195ed380c4f4b2,,,,,,,,,,,,
"[""period""]",0,[0.48892999999941367],93,0,93,0,1,5e922071b5eae9072f93146c,Mężczyzna,20,2021-07-13_21h24.46.511,rantool2,2021.1.4,Win32,74.94566439,5e922071b5eae9072f93146c,60d9d14f4a8a35a482e0d9bf,60ede864ab195ed380c4f4b2,,,,,,,,,,,,
"[""period""]",0,[0.6404900000016482],94,0,94,0,1,5e922071b5eae9072f93146c,Mężczyzna,20,2021-07-13_21h24.46.511,rantool2,2021.1.4,Win32,74.94566439,5e922071b5eae9072f93146c,60d9d14f4a8a35a482e0d9bf,60ede864ab195ed380c4f4b2,,,,,,,,,,,,
"[""comma""]",0,[0.49539499999821146],95,0,95,0,1,5e922071b5eae9072f93146c,Mężczyzna,20,2021-07-13_21h24.46.511,rantool2,2021.1.4,Win32,74.94566439,5e922071b5eae9072f93146c,60d9d14f4a8a35a482e0d9bf,60ede864ab195ed380c4f4b2,,,,,,,,,,,,
"[""comma""]",0,[0.4547000000020489],96,0,96,0,1,5e922071b5eae9072f93146c,Mężczyzna,20,2021-07-13_21h24.46.511,rantool2,2021.1.4,Win32,74.94566439,5e922071b5eae9072f93146c,60d9d14f4a8a35a482e0d9bf,60ede864ab195ed380c4f4b2,,,,,,,,,,,,
"[""comma""]",0,[0.5100549999987152],97,0,97,0,1,5e922071b5eae9072f93146c,Mężczyzna,20,2021-07-13_21h24.46.511,rantool2,2021.1.4,Win32,74.94566439,5e922071b5eae9072f93146c,60d9d14f4a8a35a482e0d9bf,60ede864ab195ed380c4f4b2,,,,,,,,,,,,
"[""period""]",0,[0.3971200000015642],98,0,98,0,1,5e922071b5eae9072f93146c,Mężczyzna,20,2021-07-13_21h24.46.511,rantool2,2021.1.4,Win32,74.94566439,5e922071b5eae9072f93146c,60d9d14f4a8a35a482e0d9bf,60ede864ab195ed380c4f4b2,,,,,,,,,,,,
"[""period""]",0,[0.6138800000008473],99,0,99,0,1,5e922071b5eae9072f93146c,Mężczyzna,20,2021-07-13_21h24.46.511,rantool2,2021.1.4,Win32,74.94566439,5e922071b5eae9072f93146c,60d9d14f4a8a35a482e0d9bf,60ede864ab195ed380c4f4b2,,,,,,,,,,,,
"[""comma""]",0,[0.47469500000084963],100,0,100,0,1,5e922071b5eae9072f93146c,Mężczyzna,20,2021-07-13_21h24.46.511,rantool2,2021.1.4,Win32,74.94566439,5e922071b5eae9072f93146c,60d9d14f4a8a35a482e0d9bf,60ede864ab195ed380c4f4b2,,,,,,,,,,,,
"[""period""]",0,[0.2828150000023584],101,0,101,0,1,5e922071b5eae9072f93146c,Mężczyzna,20,2021-07-13_21h24.46.511,rantool2,2021.1.4,Win32,74.94566439,5e922071b5eae9072f93146c,60d9d14f4a8a35a482e0d9bf,60ede864ab195ed380c4f4b2,,,,,,,,,,,,
"[""period""]",0,[0.5942599999980303],102,0,102,0,1,5e922071b5eae9072f93146c,Mężczyzna,20,2021-07-13_21h24.46.511,rantool2,2021.1.4,Win32,74.94566439,5e922071b5eae9072f93146c,60d9d14f4a8a35a482e0d9bf,60ede864ab195ed380c4f4b2,,,,,,,,,,,,
"[""comma""]",0,[0.5773450000015714],103,0,103,0,1,5e922071b5eae9072f93146c,Mężczyzna,20,2021-07-13_21h24.46.511,rantool2,2021.1.4,Win32,74.94566439,5e922071b5eae9072f93146c,60d9d14f4a8a35a482e0d9bf,60ede864ab195ed380c4f4b2,,,,,,,,,,,,
"[""comma""]",0,[0.7472600000000398],104,0,104,0,1,5e922071b5eae9072f93146c,Mężczyzna,20,2021-07-13_21h24.46.511,rantool2,2021.1.4,Win32,74.94566439,5e922071b5eae9072f93146c,60d9d14f4a8a35a482e0d9bf,60ede864ab195ed380c4f4b2,,,,,,,,,,,,
"[""period""]",0,[0.7517650000008871],105,0,105,0,1,5e922071b5eae9072f93146c,Mężczyzna,20,2021-07-13_21h24.46.511,rantool2,2021.1.4,Win32,74.94566439,5e922071b5eae9072f93146c,60d9d14f4a8a35a482e0d9bf,60ede864ab195ed380c4f4b2,,,,,,,,,,,,
"[""comma""]",0,[0.733875000001774],106,0,106,0,1,5e922071b5eae9072f93146c,Mężczyzna,20,2021-07-13_21h24.46.511,rantool2,2021.1.4,Win32,74.94566439,5e922071b5eae9072f93146c,60d9d14f4a8a35a482e0d9bf,60ede864ab195ed380c4f4b2,,,,,,,,,,,,
"[""period""]",0,[0.6278600000006236],107,0,107,0,1,5e922071b5eae9072f93146c,Mężczyzna,20,2021-07-13_21h24.46.511,rantool2,2021.1.4,Win32,74.94566439,5e922071b5eae9072f93146c,60d9d14f4a8a35a482e0d9bf,60ede864ab195ed380c4f4b2,,,,,,,,,,,,
"[""period""]",0,[0.6672450000006052],108,0,108,0,1,5e922071b5eae9072f93146c,Mężczyzna,20,2021-07-13_21h24.46.511,rantool2,2021.1.4,Win32,74.94566439,5e922071b5eae9072f93146c,60d9d14f4a8a35a482e0d9bf,60ede864ab195ed380c4f4b2,,,,,,,,,,,,
"[""comma""]",0,[0.6980599999987476],109,0,109,0,1,5e922071b5eae9072f93146c,Mężczyzna,20,2021-07-13_21h24.46.511,rantool2,2021.1.4,Win32,74.94566439,5e922071b5eae9072f93146c,60d9d14f4a8a35a482e0d9bf,60ede864ab195ed380c4f4b2,,,,,,,,,,,,
"[""comma""]",0,[0.6672550000004094],110,0,110,0,1,5e922071b5eae9072f93146c,Mężczyzna,20,2021-07-13_21h24.46.511,rantool2,2021.1.4,Win32,74.94566439,5e922071b5eae9072f93146c,60d9d14f4a8a35a482e0d9bf,60ede864ab195ed380c4f4b2,,,,,,,,,,,,
"[""comma""]",0,[0.9125749999984123],111,0,111,0,1,5e922071b5eae9072f93146c,Mężczyzna,20,2021-07-13_21h24.46.511,rantool2,2021.1.4,Win32,74.94566439,5e922071b5eae9072f93146c,60d9d14f4a8a35a482e0d9bf,60ede864ab195ed380c4f4b2,,,,,,,,,,,,
"[""comma""]",0,[0.7839249999996696],112,0,112,0,1,5e922071b5eae9072f93146c,Mężczyzna,20,2021-07-13_21h24.46.511,rantool2,2021.1.4,Win32,74.94566439,5e922071b5eae9072f93146c,60d9d14f4a8a35a482e0d9bf,60ede864ab195ed380c4f4b2,,,,,,,,,,,,
"[""comma""]",0,[0.6309000000001674],113,0,113,0,1,5e922071b5eae9072f93146c,Mężczyzna,20,2021-07-13_21h24.46.511,rantool2,2021.1.4,Win32,74.94566439,5e922071b5eae9072f93146c,60d9d14f4a8a35a482e0d9bf,60ede864ab195ed380c4f4b2,,,,,,,,,,,,
"[""comma""]",0,[0.7984849999993457],114,0,114,0,1,5e922071b5eae9072f93146c,Mężczyzna,20,2021-07-13_21h24.46.511,rantool2,2021.1.4,Win32,74.94566439,5e922071b5eae9072f93146c,60d9d14f4a8a35a482e0d9bf,60ede864ab195ed380c4f4b2,,,,,,,,,,,,
"[""period""]",0,[0.5894350000016857],115,0,115,0,1,5e922071b5eae9072f93146c,Mężczyzna,20,2021-07-13_21h24.46.511,rantool2,2021.1.4,Win32,74.94566439,5e922071b5eae9072f93146c,60d9d14f4a8a35a482e0d9bf,60ede864ab195ed380c4f4b2,,,,,,,,,,,,
"[""comma""]",0,[0.5967249999993669],116,0,116,0,1,5e922071b5eae9072f93146c,Mężczyzna,20,2021-07-13_21h24.46.511,rantool2,2021.1.4,Win32,74.94566439,5e922071b5eae9072f93146c,60d9d14f4a8a35a482e0d9bf,60ede864ab195ed380c4f4b2,,,,,,,,,,,,
"[""period""]",0,[0.5738700000000563],117,0,117,0,1,5e922071b5eae9072f93146c,Mężczyzna,20,2021-07-13_21h24.46.511,rantool2,2021.1.4,Win32,74.94566439,5e922071b5eae9072f93146c,60d9d14f4a8a35a482e0d9bf,60ede864ab195ed380c4f4b2,,,,,,,,,,,,
"[""comma""]",0,[0.6833650000007196],118,0,118,0,1,5e922071b5eae9072f93146c,Mężczyzna,20,2021-07-13_21h24.46.511,rantool2,2021.1.4,Win32,74.94566439,5e922071b5eae9072f93146c,60d9d14f4a8a35a482e0d9bf,60ede864ab195ed380c4f4b2,,,,,,,,,,,,
"[""comma""]",0,[0.7144650000009847],119,0,119,0,1,5e922071b5eae9072f93146c,Mężczyzna,20,2021-07-13_21h24.46.511,rantool2,2021.1.4,Win32,74.94566439,5e922071b5eae9072f93146c,60d9d14f4a8a35a482e0d9bf,60ede864ab195ed380c4f4b2,,,,,,,,,,,,
,,,,,,,,5e922071b5eae9072f93146c,Mężczyzna,20,2021-07-13_21h24.46.511,rantool2,2021.1.4,Win32,74.94566439,5e922071b5eae9072f93146c,60d9d14f4a8a35a482e0d9bf,60ede864ab195ed380c4f4b2,f,1.33682,0,0,0,10,1,OOROROO,OOROROR,21.31236711,21.07490964,series_0
,,,,,,,,5e922071b5eae9072f93146c,Mężczyzna,20,2021-07-13_21h24.46.511,rantool2,2021.1.4,Win32,74.94566439,5e922071b5eae9072f93146c,60d9d14f4a8a35a482e0d9bf,60ede864ab195ed380c4f4b2,j,1.275905,0,1,1,45,1,RORRORO,RORRORR,20.78182524,21.22513037,series_1
,,,,,,,,5e922071b5eae9072f93146c,Mężczyzna,20,2021-07-13_21h24.46.511,rantool2,2021.1.4,Win32,74.94566439,5e922071b5eae9072f93146c,60d9d14f4a8a35a482e0d9bf,60ede864ab195ed380c4f4b2,j,1.230095,0,2,2,20,1,OROROOO,OROROOR,21.31236711,21.90565814,series_1
,,,,,,,,5e922071b5eae9072f93146c,Mężczyzna,20,2021-07-13_21h24.46.511,rantool2,2021.1.4,Win32,74.94566439,5e922071b5eae9072f93146c,60d9d14f4a8a35a482e0d9bf,60ede864ab195ed380c4f4b2,f,1.28079,0,3,3,60,1,RRRROOO,RRRROOR,22.10108823,22.15934078,series_1
,,,,,,,,5e922071b5eae9072f93146c,Mężczyzna,20,2021-07-13_21h24.46.511,rantool2,2021.1.4,Win32,74.94566439,5e922071b5eae9072f93146c,60d9d14f4a8a35a482e0d9bf,60ede864ab195ed380c4f4b2,j,1.28095,0,4,4,3,1,OOOORRO,OOOORRR,20.90986523,21.74922619,series_1
,,,,,,,,5e922071b5eae9072f93146c,Mężczyzna,20,2021-07-13_21h24.46.511,rantool2,2021.1.4,Win32,74.94566439,5e922071b5eae9072f93146c,60d9d14f4a8a35a482e0d9bf,60ede864ab195ed380c4f4b2,j,1.287255,0,5,5,51,1,RROORRO,RROORRR,21.89852628,22.02786418,series_1
,,,,,,,,5e922071b5eae9072f93146c,Mężczyzna,20,2021-07-13_21h24.46.511,rantool2,2021.1.4,Win32,74.94566439,5e922071b5eae9072f93146c,60d9d14f4a8a35a482e0d9bf,60ede864ab195ed380c4f4b2,j,1.94011,0,6,6,54,1,RRORROO,RRORROR,21.55250791,20.9984461,series_0
,,,,,,,,5e922071b5eae9072f93146c,Mężczyzna,20,2021-07-13_21h24.46.511,rantool2,2021.1.4,Win32,74.94566439,5e922071b5eae9072f93146c,60d9d14f4a8a35a482e0d9bf,60ede864ab195ed380c4f4b2,f,1.65153,0,7,7,8,1,OOROOOO,OOROOOR,19.91402015,20.89823192,series_1
,,,,,,,,5e922071b5eae9072f93146c,Mężczyzna,20,2021-07-13_21h24.46.511,rantool2,2021.1.4,Win32,74.94566439,5e922071b5eae9072f93146c,60d9d14f4a8a35a482e0d9bf,60ede864ab195ed380c4f4b2,j,1.75207,0,8,8,13,1,OORRORO,OORRORR,21.66733484,22.11181017,series_1
,,,,,,,,5e922071b5eae9072f93146c,Mężczyzna,20,2021-07-13_21h24.46.511,rantool2,2021.1.4,Win32,74.94566439,5e922071b5eae9072f93146c,60d9d14f4a8a35a482e0d9bf,60ede864ab195ed380c4f4b2,j,2.454695,0,9,9,58,1,RRROROO,RRROROR,22.1285618,21.37121559,series_0
,,,,,,,,5e922071b5eae9072f93146c,Mężczyzna,20,2021-07-13_21h24.46.511,rantool2,2021.1.4,Win32,74.94566439,5e922071b5eae9072f93146c,60d9d14f4a8a35a482e0d9bf,60ede864ab195ed380c4f4b2,j,2.16632,0,10,10,27,1,ORRORRO,ORRORRR,21.55250791,22.2428857,series_1
,,,,,,,,5e922071b5eae9072f93146c,Mężczyzna,20,2021-07-13_21h24.46.511,rantool2,2021.1.4,Win32,74.94566439,5e922071b5eae9072f93146c,60d9d14f4a8a35a482e0d9bf,60ede864ab195ed380c4f4b2,f,1.98771,0,11,11,12,1,OORROOO,OORROOR,21.30250474,22.02786418,series_1
,,,,,,,,5e922071b5eae9072f93146c,Mężczyzna,20,2021-07-13_21h24.46.511,rantool2,2021.1.4,Win32,74.94566439,5e922071b5eae9072f93146c,60d9d14f4a8a35a482e0d9bf,60ede864ab195ed380c4f4b2,j,1.789005,0,12,12,44,1,RORROOO,RORROOR,21.66733484,22.02566557,series_1
,,,,,,,,5e922071b5eae9072f93146c,Mężczyzna,20,2021-07-13_21h24.46.511,rantool2,2021.1.4,Win32,74.94566439,5e922071b5eae9072f93146c,60d9d14f4a8a35a482e0d9bf,60ede864ab195ed380c4f4b2,f,1.91081,0,13,13,14,1,OORRROO,OORRROR,22.24142883,22.16977179,series_0
,,,,,,,,5e922071b5eae9072f93146c,Mężczyzna,20,2021-07-13_21h24.46.511,rantool2,2021.1.4,Win32,74.94566439,5e922071b5eae9072f93146c,60d9d14f4a8a35a482e0d9bf,60ede864ab195ed380c4f4b2,j,1.9767,0,14,14,5,1,OOORORO,OOORORR,20.87963819,21.9921709,series_1
,,,,,,,,5e922071b5eae9072f93146c,Mężczyzna,20,2021-07-13_21h24.46.511,rantool2,2021.1.4,Win32,74.94566439,5e922071b5eae9072f93146c,60d9d14f4a8a35a482e0d9bf,60ede864ab195ed380c4f4b2,f,2.64134,0,15,15,7,1,OOORRRO,OOORRRR,21.6194508,21.899017,series_1
,,,,,,,,5e922071b5eae9072f93146c,Mężczyzna,20,2021-07-13_21h24.46.511,rantool2,2021.1.4,Win32,74.94566439,5e922071b5eae9072f93146c,60d9d14f4a8a35a482e0d9bf,60ede864ab195ed380c4f4b2,j,2.15631,0,16,16,55,1,RRORRRO,RRORRRR,21.56657303,21.21223021,series_0
,,,,,,,,5e922071b5eae9072f93146c,Mężczyzna,20,2021-07-13_21h24.46.511,rantool2,2021.1.4,Win32,74.94566439,5e922071b5eae9072f93146c,60d9d14f4a8a35a482e0d9bf,60ede864ab195ed380c4f4b2,f,2.014455,0,17,17,18,1,OROOROO,OROOROR,20.84860893,21.22513037,series_1
,,,,,,,,5e922071b5eae9072f93146c,Mężczyzna,20,2021-07-13_21h24.46.511,rantool2,2021.1.4,Win32,74.94566439,5e922071b5eae9072f93146c,60d9d14f4a8a35a482e0d9bf,60ede864ab195ed380c4f4b2,j,1.93069,0,18,18,32,1,ROOOOOO,ROOOOOR,19.92253567,21.27974287,series_1
,,,,,,,,5e922071b5eae9072f93146c,Mężczyzna,20,2021-07-13_21h24.46.511,rantool2,2021.1.4,Win32,74.94566439,5e922071b5eae9072f93146c,60d9d14f4a8a35a482e0d9bf,60ede864ab195ed380c4f4b2,f,2.027835,0,19,19,50,1,RROOROO,RROOROR,21.73568164,22.02566557,series_1
,,,,,,,,5e922071b5eae9072f93146c,Mężczyzna,20,2021-07-13_21h24.46.511,rantool2,2021.1.4,Win32,74.94566439,5e922071b5eae9072f93146c,60d9d14f4a8a35a482e0d9bf,60ede864ab195ed380c4f4b2,j,1.69461,0,20,20,4,1,OOOROOO,OOOROOR,19.91402015,21.21223021,series_1
,,,,,,,,5e922071b5eae9072f93146c,Mężczyzna,20,2021-07-13_21h24.46.511,rantool2,2021.1.4,Win32,74.94566439,5e922071b5eae9072f93146c,60d9d14f4a8a35a482e0d9bf,60ede864ab195ed380c4f4b2,f,1.82987,0,21,21,0,1,OOOOOOO,OOOOOOR,18.52739004,19.62521613,series_1
,,,,,,,,5e922071b5eae9072f93146c,Mężczyzna,20,2021-07-13_21h24.46.511,rantool2,2021.1.4,Win32,74.94566439,5e922071b5eae9072f93146c,60d9d14f4a8a35a482e0d9bf,60ede864ab195ed380c4f4b2,j,2.361165,0,22,22,39,1,ROORRRO,ROORRRR,21.82425538,21.38562617,series_0
,,,,,,,,5e922071b5eae9072f93146c,Mężczyzna,20,2021-07-13_21h24.46.511,rantool2,2021.1.4,Win32,74.94566439,5e922071b5eae9072f93146c,60d9d14f4a8a35a482e0d9bf,60ede864ab195ed380c4f4b2,f,2.26046,0,23,23,15,1,OORRRRO,OORRRRR,22.10108823,21.74922619,series_0
,,,,,,,,5e922071b5eae9072f93146c,Mężczyzna,20,2021-07-13_21h24.46.511,rantool2,2021.1.4,Win32,74.94566439,5e922071b5eae9072f93146c,60d9d14f4a8a35a482e0d9bf,60ede864ab195ed380c4f4b2,j,2.371375,0,24,24,53,1,RRORORO,RRORORR,20.71309134,21.90565814,series_1
,,,,,,,,5e922071b5eae9072f93146c,Mężczyzna,20,2021-07-13_21h24.46.511,rantool2,2021.1.4,Win32,74.94566439,5e922071b5eae9072f93146c,60d9d14f4a8a35a482e0d9bf,60ede864ab195ed380c4f4b2,f,2.14381,0,25,25,1,1,OOOOORO,OOOOORR,19.92253567,20.74050628,series_1
,,,,,,,,5e922071b5eae9072f93146c,Mężczyzna,20,2021-07-13_21h24.46.511,rantool2,2021.1.4,Win32,74.94566439,5e922071b5eae9072f93146c,60d9d14f4a8a35a482e0d9bf,60ede864ab195ed380c4f4b2,j,2.486925,0,26,26,30,1,ORRRROO,ORRRROR,22.46748491,22.03072203,series_0
,,,,,,,,5e922071b5eae9072f93146c,Mężczyzna,20,2021-07-13_21h24.46.511,rantool2,2021.1.4,Win32,74.94566439,5e922071b5eae9072f93146c,60d9d14f4a8a35a482e0d9bf,60ede864ab195ed380c4f4b2,f,2.03535,0,27,27,19,1,OROORRO,OROORRR,21.73568164,22.11181017,series_1
,,,,,,,,5e922071b5eae9072f93146c,Mężczyzna,20,2021-07-13_21h24.46.511,rantool2,2021.1.4,Win32,74.94566439,5e922071b5eae9072f93146c,60d9d14f4a8a35a482e0d9bf,60ede864ab195ed380c4f4b2,j,2.061455,0,28,28,25,1,ORROORO,ORROORR,21.79500819,22.61624387,series_1
,,,,,,,,5e922071b5eae9072f93146c,Mężczyzna,20,2021-07-13_21h24.46.511,rantool2,2021.1.4,Win32,74.94566439,5e922071b5eae9072f93146c,60d9d14f4a8a35a482e0d9bf,60ede864ab195ed380c4f4b2,f,2.436445,0,29,29,61,1,RRRRORO,RRRRORR,21.81333602,21.17347734,series_0
,,,,,,,,5e922071b5eae9072f93146c,Mężczyzna,20,2021-07-13_21h24.46.511,rantool2,2021.1.4,Win32,74.94566439,5e922071b5eae9072f93146c,60d9d14f4a8a35a482e0d9bf,60ede864ab195ed380c4f4b2,j,1.990115,0,30,30,11,1,OORORRO,OORORRR,22.18365867,22.6797523,series_1
,,,,,,,,5e922071b5eae9072f93146c,Mężczyzna,20,2021-07-13_21h24.46.511,rantool2,2021.1.4,Win32,74.94566439,5e922071b5eae9072f93146c,60d9d14f4a8a35a482e0d9bf,60ede864ab195ed380c4f4b2,f,1.95204,0,31,31,40,1,ROROOOO,ROROOOR,20.87963819,21.37121559,series_1
,,,,,,,,5e922071b5eae9072f93146c,Mężczyzna,20,2021-07-13_21h24.46.511,rantool2,2021.1.4,Win32,74.94566439,5e922071b5eae9072f93146c,60d9d14f4a8a35a482e0d9bf,60ede864ab195ed380c4f4b2,j,2.137995,0,32,32,62,1,RRRRROO,RRRRROR,22.16413392,21.27974287,series_0
,,,,,,,,5e922071b5eae9072f93146c,Mężczyzna,20,2021-07-13_21h24.46.511,rantool2,2021.1.4,Win32,74.94566439,5e922071b5eae9072f93146c,60d9d14f4a8a35a482e0d9bf,60ede864ab195ed380c4f4b2,f,2.361395,0,33,33,56,1,RRROOOO,RRROOOR,21.6194508,22.31681875,series_1
,,,,,,,,5e922071b5eae9072f93146c,Mężczyzna,20,2021-07-13_21h24.46.511,rantool2,2021.1.4,Win32,74.94566439,5e922071b5eae9072f93146c,60d9d14f4a8a35a482e0d9bf,60ede864ab195ed380c4f4b2,j,1.86161,0,34,34,34,1,ROOOROO,ROOOROR,21.03750787,21.24781509,series_1
,,,,,,,,5e922071b5eae9072f93146c,Mężczyzna,20,2021-07-13_21h24.46.511,rantool2,2021.1.4,Win32,74.94566439,5e922071b5eae9072f93146c,60d9d14f4a8a35a482e0d9bf,60ede864ab195ed380c4f4b2,f,2.060855,0,35,35,42,1,ROROROO,ROROROR,20.39515459,19.8361834,series_0
,,,,,,,,5e922071b5eae9072f93146c,Mężczyzna,20,2021-07-13_21h24.46.511,rantool2,2021.1.4,Win32,74.94566439,5e922071b5eae9072f93146c,60d9d14f4a8a35a482e0d9bf,60ede864ab195ed380c4f4b2,j,2.972215,0,36,36,48,1,RROOOOO,RROOOOR,20.90986523,22.15934078,series_1
,,,,,,,,5e922071b5eae9072f93146c,Mężczyzna,20,2021-07-13_21h24.46.511,rantool2,2021.1.4,Win32,74.94566439,5e922071b5eae9072f93146c,60d9d14f4a8a35a482e0d9bf,60ede864ab195ed380c4f4b2,f,2.1211,0,37,37,49,1,RROOORO,RROOORR,21.76276513,22.53364006,series_1
,,,,,,,,5e922071b5eae9072f93146c,Mężczyzna,20,2021-07-13_21h24.46.511,rantool2,2021.1.4,Win32,74.94566439,5e922071b5eae9072f93146c,60d9d14f4a8a35a482e0d9bf,60ede864ab195ed380c4f4b2,j,1.92492,0,38,38,16,1,OROOOOO,OROOOOR,20.43051175,21.17347734,series_1
,,,,,,,,5e922071b5eae9072f93146c,Mężczyzna,20,2021-07-13_21h24.46.511,rantool2,2021.1.4,Win32,74.94566439,5e922071b5eae9072f93146c,60d9d14f4a8a35a482e0d9bf,60ede864ab195ed380c4f4b2,f,2.14538,0,39,39,36,1,ROOROOO,ROOROOR,21.07991943,20.9984461,series_0
,,,,,,,,5e922071b5eae9072f93146c,Mężczyzna,20,2021-07-13_21h24.46.511,rantool2,2021.1.4,Win32,74.94566439,5e922071b5eae9072f93146c,60d9d14f4a8a35a482e0d9bf,60ede864ab195ed380c4f4b2,j,1.8165,0,40,40,28,1,ORRROOO,ORRROOR,22.24142883,22.53364006,series_1
,,,,,,,,5e922071b5eae9072f93146c,Mężczyzna,20,2021-07-13_21h24.46.511,rantool2,2021.1.4,Win32,74.94566439,5e922071b5eae9072f93146c,60d9d14f4a8a35a482e0d9bf,60ede864ab195ed380c4f4b2,f,2.14381,0,41,41,29,1,ORRRORO,ORRRORR,22.00300695,22.12173012,series_1
,,,,,,,,5e922071b5eae9072f93146c,Mężczyzna,20,2021-07-13_21h24.46.511,rantool2,2021.1.4,Win32,74.94566439,5e922071b5eae9072f93146c,60d9d14f4a8a35a482e0d9bf,60ede864ab195ed380c4f4b2,j,1.94775,0,42,42,46,1,RORRROO,RORRROR,22.00300695,21.24781509,series_0
,,,,,,,,5e922071b5eae9072f93146c,Mężczyzna,20,2021-07-13_21h24.46.511,rantool2,2021.1.4,Win32,74.94566439,5e922071b5eae9072f93146c,60d9d14f4a8a35a482e0d9bf,60ede864ab195ed380c4f4b2,f,1.66223,0,43,43,6,1,OOORROO,OOORROR,21.12383932,21.38562617,series_1
,,,,,,,,5e922071b5eae9072f93146c,Mężczyzna,20,2021-07-13_21h24.46.511,rantool2,2021.1.4,Win32,74.94566439,5e922071b5eae9072f93146c,60d9d14f4a8a35a482e0d9bf,60ede864ab195ed380c4f4b2,j,1.861755,0,44,44,22,1,ORORROO,ORORROR,22.02732763,21.57657071,series_0
,,,,,,,,5e922071b5eae9072f93146c,Mężczyzna,20,2021-07-13_21h24.46.511,rantool2,2021.1.4,Win32,74.94566439,5e922071b5eae9072f93146c,60d9d14f4a8a35a482e0d9bf,60ede864ab195ed380c4f4b2,f,1.90091,0,45,45,41,1,ROROORO,ROROORR,20.42602454,21.71443381,series_1
,,,,,,,,5e922071b5eae9072f93146c,Mężczyzna,20,2021-07-13_21h24.46.511,rantool2,2021.1.4,Win32,74.94566439,5e922071b5eae9072f93146c,60d9d14f4a8a35a482e0d9bf,60ede864ab195ed380c4f4b2,f,1.90821,0,46,46,26,1,ORROROO,ORROROR,22.02732763,21.71443381,series_0
,,,,,,,,5e922071b5eae9072f93146c,Mężczyzna,20,2021-07-13_21h24.46.511,rantool2,2021.1.4,Win32,74.94566439,5e922071b5eae9072f93146c,60d9d14f4a8a35a482e0d9bf,60ede864ab195ed380c4f4b2,f,1.966105,0,47,47,33,1,ROOOORO,ROOOORR,20.83779602,22.03072203,series_1
,,,,,,,,5e922071b5eae9072f93146c,Mężczyzna,20,2021-07-13_21h24.46.511,rantool2,2021.1.4,Win32,74.94566439,5e922071b5eae9072f93146c,60d9d14f4a8a35a482e0d9bf,60ede864ab195ed380c4f4b2,j,1.618745,0,48,48,57,1,RRROORO,RRROORR,21.82425538,22.07102821,series_1
,,,,,,,,5e922071b5eae9072f93146c,Mężczyzna,20,2021-07-13_21h24.46.511,rantool2,2021.1.4,Win32,74.94566439,5e922071b5eae9072f93146c,60d9d14f4a8a35a482e0d9bf,60ede864ab195ed380c4f4b2,f,1.94779,0,49,49,63,1,RRRRRRO,RRRRRRR,21.35278725,19.62521613,series_0
,,,,,,,,5e922071b5eae9072f93146c,Mężczyzna,20,2021-07-13_21h24.46.511,rantool2,2021.1.4,Win32,74.94566439,5e922071b5eae9072f93146c,60d9d14f4a8a35a482e0d9bf,60ede864ab195ed380c4f4b2,j,2.633455,0,50,50,43,1,RORORRO,RORORRR,20.71309134,21.07490964,series_1
,,,,,,,,5e922071b5eae9072f93146c,Mężczyzna,20,2021-07-13_21h24.46.511,rantool2,2021.1.4,Win32,74.94566439,5e922071b5eae9072f93146c,60d9d14f4a8a35a482e0d9bf,60ede864ab195ed380c4f4b2,f,2.082915,0,51,51,59,1,RRRORRO,RRRORRR,21.56657303,20.89823192,series_0
,,,,,,,,5e922071b5eae9072f93146c,Mężczyzna,20,2021-07-13_21h24.46.511,rantool2,2021.1.4,Win32,74.94566439,5e922071b5eae9072f93146c,60d9d14f4a8a35a482e0d9bf,60ede864ab195ed380c4f4b2,j,1.72746,0,52,52,47,1,RORRRRO,RORRRRR,21.81333602,21.02936224,series_0
,,,,,,,,5e922071b5eae9072f93146c,Mężczyzna,20,2021-07-13_21h24.46.511,rantool2,2021.1.4,Win32,74.94566439,5e922071b5eae9072f93146c,60d9d14f4a8a35a482e0d9bf,60ede864ab195ed380c4f4b2,f,2.02021,0,53,53,17,1,OROOORO,OROOORR,21.03750787,22.12173012,series_1
,,,,,,,,5e922071b5eae9072f93146c,Mężczyzna,20,2021-07-13_21h24.46.511,rantool2,2021.1.4,Win32,74.94566439,5e922071b5eae9072f93146c,60d9d14f4a8a35a482e0d9bf,60ede864ab195ed380c4f4b2,f,3.291375,0,54,54,37,1,ROORORO,ROORORR,20.42602454,21.57657071,series_1
,,,,,,,,5e922071b5eae9072f93146c,Mężczyzna,20,2021-07-13_21h24.46.511,rantool2,2021.1.4,Win32,74.94566439,5e922071b5eae9072f93146c,60d9d14f4a8a35a482e0d9bf,60ede864ab195ed380c4f4b2,f,2.06376,0,55,55,38,1,ROORROO,ROORROR,21.79500819,21.36812781,series_0
,,,,,,,,5e922071b5eae9072f93146c,Mężczyzna,20,2021-07-13_21h24.46.511,rantool2,2021.1.4,Win32,74.94566439,5e922071b5eae9072f93146c,60d9d14f4a8a35a482e0d9bf,60ede864ab195ed380c4f4b2,f,1.91068,0,56,56,9,1,OOROORO,OOROORR,21.07991943,22.2428857,series_1
,,,,,,,,5e922071b5eae9072f93146c,Mężczyzna,20,2021-07-13_21h24.46.511,rantool2,2021.1.4,Win32,74.94566439,5e922071b5eae9072f93146c,60d9d14f4a8a35a482e0d9bf,60ede864ab195ed380c4f4b2,f,1.984655,0,57,57,24,1,ORROOOO,ORROOOR,21.12383932,22.07102821,series_1
,,,,,,,,5e922071b5eae9072f93146c,Mężczyzna,20,2021-07-13_21h24.46.511,rantool2,2021.1.4,Win32,74.94566439,5e922071b5eae9072f93146c,60d9d14f4a8a35a482e0d9bf,60ede864ab195ed380c4f4b2,j,2.247765,0,58,58,31,1,ORRRRRO,ORRRRRR,22.16413392,20.74050628,series_0
,,,,,,,,5e922071b5eae9072f93146c,Mężczyzna,20,2021-07-13_21h24.46.511,rantool2,2021.1.4,Win32,74.94566439,5e922071b5eae9072f93146c,60d9d14f4a8a35a482e0d9bf,60ede864ab195ed380c4f4b2,f,2.428285,0,59,59,35,1,ROOORRO,ROOORRR,21.76276513,22.16977179,series_1
,,,,,,,,5e922071b5eae9072f93146c,Mężczyzna,20,2021-07-13_21h24.46.511,rantool2,2021.1.4,Win32,74.94566439,5e922071b5eae9072f93146c,60d9d14f4a8a35a482e0d9bf,60ede864ab195ed380c4f4b2,f,1.422105,0,60,60,52,1,RROROOO,RROROOR,22.18365867,22.11097995,series_0
,,,,,,,,5e922071b5eae9072f93146c,Mężczyzna,20,2021-07-13_21h24.46.511,rantool2,2021.1.4,Win32,74.94566439,5e922071b5eae9072f93146c,60d9d14f4a8a35a482e0d9bf,60ede864ab195ed380c4f4b2,f,1.374145,0,61,61,2,1,OOOOROO,OOOOROR,20.43051175,21.02936224,series_1
,,,,,,,,5e922071b5eae9072f93146c,Mężczyzna,20,2021-07-13_21h24.46.511,rantool2,2021.1.4,Win32,74.94566439,5e922071b5eae9072f93146c,60d9d14f4a8a35a482e0d9bf,60ede864ab195ed380c4f4b2,f,2.10096,0,62,62,21,1,ORORORO,ORORORR,20.39515459,22.06781359,series_1
,,,,,,,,5e922071b5eae9072f93146c,Mężczyzna,20,2021-07-13_21h24.46.511,rantool2,2021.1.4,Win32,74.94566439,5e922071b5eae9072f93146c,60d9d14f4a8a35a482e0d9bf,60ede864ab195ed380c4f4b2,f,1.89215,0,63,63,23,1,ORORRRO,ORORRRR,22.1285618,21.9921709,series_0
