key_resp_5.keys,key_resp_5.corr,key_resp_5.rt,trials.thisRepN,trials.thisTrialN,trials.thisN,trials.thisIndex,trials.ran,id*,Płeć*,Wiek*,date,expName,psychopyVersion,OS,frameRate,id,STUDY_ID,SESSION_ID,key_resp_7.keys,trials_2.thisRepN,trials_2.thisTrialN,trials_2.thisN,trials_2.thisIndex,trials_2.ran,series_0,series_1,acss_0,acss_1,comparison,key_resp_7.rt
0,,,0,0,0,0,1,60ec2827fd1b1477d55ce969,Kobieta,18,2021-07-13_21h58.36.004,rantool2,2021.1.4,Win32,74.0521327,60ec2827fd1b1477d55ce969,60d9d14f4a8a35a482e0d9bf,60edefdbfec4daef84578eac,,,,,,,,,,,,
0,,,1,0,1,0,1,60ec2827fd1b1477d55ce969,Kobieta,18,2021-07-13_21h58.36.004,rantool2,2021.1.4,Win32,74.0521327,60ec2827fd1b1477d55ce969,60d9d14f4a8a35a482e0d9bf,60edefdbfec4daef84578eac,,,,,,,,,,,,
0,,,2,0,2,0,1,60ec2827fd1b1477d55ce969,Kobieta,18,2021-07-13_21h58.36.004,rantool2,2021.1.4,Win32,74.0521327,60ec2827fd1b1477d55ce969,60d9d14f4a8a35a482e0d9bf,60edefdbfec4daef84578eac,,,,,,,,,,,,
0,,,3,0,3,0,1,60ec2827fd1b1477d55ce969,Kobieta,18,2021-07-13_21h58.36.004,rantool2,2021.1.4,Win32,74.0521327,60ec2827fd1b1477d55ce969,60d9d14f4a8a35a482e0d9bf,60edefdbfec4daef84578eac,,,,,,,,,,,,
0,,,4,0,4,0,1,60ec2827fd1b1477d55ce969,Kobieta,18,2021-07-13_21h58.36.004,rantool2,2021.1.4,Win32,74.0521327,60ec2827fd1b1477d55ce969,60d9d14f4a8a35a482e0d9bf,60edefdbfec4daef84578eac,,,,,,,,,,,,
"[""comma""]",0,[1.0680299999949057],5,0,5,0,1,60ec2827fd1b1477d55ce969,Kobieta,18,2021-07-13_21h58.36.004,rantool2,2021.1.4,Win32,74.0521327,60ec2827fd1b1477d55ce969,60d9d14f4a8a35a482e0d9bf,60edefdbfec4daef84578eac,,,,,,,,,,,,
0,0,,6,0,6,0,1,60ec2827fd1b1477d55ce969,Kobieta,18,2021-07-13_21h58.36.004,rantool2,2021.1.4,Win32,74.0521327,60ec2827fd1b1477d55ce969,60d9d14f4a8a35a482e0d9bf,60edefdbfec4daef84578eac,,,,,,,,,,,,
"[""period""]",0,[0.2832900000066729],7,0,7,0,1,60ec2827fd1b1477d55ce969,Kobieta,18,2021-07-13_21h58.36.004,rantool2,2021.1.4,Win32,74.0521327,60ec2827fd1b1477d55ce969,60d9d14f4a8a35a482e0d9bf,60edefdbfec4daef84578eac,,,,,,,,,,,,
"[""comma""]",0,[0.40033499999844935],8,0,8,0,1,60ec2827fd1b1477d55ce969,Kobieta,18,2021-07-13_21h58.36.004,rantool2,2021.1.4,Win32,74.0521327,60ec2827fd1b1477d55ce969,60d9d14f4a8a35a482e0d9bf,60edefdbfec4daef84578eac,,,,,,,,,,,,
"[""period""]",0,[0.9126600000017788],9,0,9,0,1,60ec2827fd1b1477d55ce969,Kobieta,18,2021-07-13_21h58.36.004,rantool2,2021.1.4,Win32,74.0521327,60ec2827fd1b1477d55ce969,60d9d14f4a8a35a482e0d9bf,60edefdbfec4daef84578eac,,,,,,,,,,,,
"[""comma""]",0,[0.11830000000190921],10,0,10,0,1,60ec2827fd1b1477d55ce969,Kobieta,18,2021-07-13_21h58.36.004,rantool2,2021.1.4,Win32,74.0521327,60ec2827fd1b1477d55ce969,60d9d14f4a8a35a482e0d9bf,60edefdbfec4daef84578eac,,,,,,,,,,,,
"[""comma"",""period"",""period""]",0,"[0.2956300000078045,1.0292650000046706,1.7928499999979977]",11,0,11,0,1,60ec2827fd1b1477d55ce969,Kobieta,18,2021-07-13_21h58.36.004,rantool2,2021.1.4,Win32,74.0521327,60ec2827fd1b1477d55ce969,60d9d14f4a8a35a482e0d9bf,60edefdbfec4daef84578eac,,,,,,,,,,,,
0,0,,12,0,12,0,1,60ec2827fd1b1477d55ce969,Kobieta,18,2021-07-13_21h58.36.004,rantool2,2021.1.4,Win32,74.0521327,60ec2827fd1b1477d55ce969,60d9d14f4a8a35a482e0d9bf,60edefdbfec4daef84578eac,,,,,,,,,,,,
"[""comma""]",0,[0.37158000000636093],13,0,13,0,1,60ec2827fd1b1477d55ce969,Kobieta,18,2021-07-13_21h58.36.004,rantool2,2021.1.4,Win32,74.0521327,60ec2827fd1b1477d55ce969,60d9d14f4a8a35a482e0d9bf,60edefdbfec4daef84578eac,,,,,,,,,,,,
"[""period""]",0,[0.4840649999969173],14,0,14,0,1,60ec2827fd1b1477d55ce969,Kobieta,18,2021-07-13_21h58.36.004,rantool2,2021.1.4,Win32,74.0521327,60ec2827fd1b1477d55ce969,60d9d14f4a8a35a482e0d9bf,60edefdbfec4daef84578eac,,,,,,,,,,,,
"[""period""]",0,[0.3141649999888614],15,0,15,0,1,60ec2827fd1b1477d55ce969,Kobieta,18,2021-07-13_21h58.36.004,rantool2,2021.1.4,Win32,74.0521327,60ec2827fd1b1477d55ce969,60d9d14f4a8a35a482e0d9bf,60edefdbfec4daef84578eac,,,,,,,,,,,,
"[""period""]",0,[1.1372949999931734],16,0,16,0,1,60ec2827fd1b1477d55ce969,Kobieta,18,2021-07-13_21h58.36.004,rantool2,2021.1.4,Win32,74.0521327,60ec2827fd1b1477d55ce969,60d9d14f4a8a35a482e0d9bf,60edefdbfec4daef84578eac,,,,,,,,,,,,
"[""comma""]",0,[0.25900499999988824],17,0,17,0,1,60ec2827fd1b1477d55ce969,Kobieta,18,2021-07-13_21h58.36.004,rantool2,2021.1.4,Win32,74.0521327,60ec2827fd1b1477d55ce969,60d9d14f4a8a35a482e0d9bf,60edefdbfec4daef84578eac,,,,,,,,,,,,
"[""period""]",0,[0.08130499999970198],18,0,18,0,1,60ec2827fd1b1477d55ce969,Kobieta,18,2021-07-13_21h58.36.004,rantool2,2021.1.4,Win32,74.0521327,60ec2827fd1b1477d55ce969,60d9d14f4a8a35a482e0d9bf,60edefdbfec4daef84578eac,,,,,,,,,,,,
"[""comma""]",0,[0.40735000000859145],19,0,19,0,1,60ec2827fd1b1477d55ce969,Kobieta,18,2021-07-13_21h58.36.004,rantool2,2021.1.4,Win32,74.0521327,60ec2827fd1b1477d55ce969,60d9d14f4a8a35a482e0d9bf,60edefdbfec4daef84578eac,,,,,,,,,,,,
"[""period""]",0,[0.288139999989653],20,0,20,0,1,60ec2827fd1b1477d55ce969,Kobieta,18,2021-07-13_21h58.36.004,rantool2,2021.1.4,Win32,74.0521327,60ec2827fd1b1477d55ce969,60d9d14f4a8a35a482e0d9bf,60edefdbfec4daef84578eac,,,,,,,,,,,,
"[""period""]",0,[0.845934999990277],21,0,21,0,1,60ec2827fd1b1477d55ce969,Kobieta,18,2021-07-13_21h58.36.004,rantool2,2021.1.4,Win32,74.0521327,60ec2827fd1b1477d55ce969,60d9d14f4a8a35a482e0d9bf,60edefdbfec4daef84578eac,,,,,,,,,,,,
"[""comma""]",0,[1.3124949999910314],22,0,22,0,1,60ec2827fd1b1477d55ce969,Kobieta,18,2021-07-13_21h58.36.004,rantool2,2021.1.4,Win32,74.0521327,60ec2827fd1b1477d55ce969,60d9d14f4a8a35a482e0d9bf,60edefdbfec4daef84578eac,,,,,,,,,,,,
"[""comma""]",0,[0.4471300000004703],23,0,23,0,1,60ec2827fd1b1477d55ce969,Kobieta,18,2021-07-13_21h58.36.004,rantool2,2021.1.4,Win32,74.0521327,60ec2827fd1b1477d55ce969,60d9d14f4a8a35a482e0d9bf,60edefdbfec4daef84578eac,,,,,,,,,,,,
"[""period"",""comma""]",0,"[0.36639999999897555,1.7766149999952177]",24,0,24,0,1,60ec2827fd1b1477d55ce969,Kobieta,18,2021-07-13_21h58.36.004,rantool2,2021.1.4,Win32,74.0521327,60ec2827fd1b1477d55ce969,60d9d14f4a8a35a482e0d9bf,60edefdbfec4daef84578eac,,,,,,,,,,,,
"[""period""]",0,[1.0381250000064028],25,0,25,0,1,60ec2827fd1b1477d55ce969,Kobieta,18,2021-07-13_21h58.36.004,rantool2,2021.1.4,Win32,74.0521327,60ec2827fd1b1477d55ce969,60d9d14f4a8a35a482e0d9bf,60edefdbfec4daef84578eac,,,,,,,,,,,,
"[""period"",""comma"",""comma"",""comma""]",0,"[0.3648749999993015,0.9169850000034785,1.2054550000029849,1.5747250000131316]",26,0,26,0,1,60ec2827fd1b1477d55ce969,Kobieta,18,2021-07-13_21h58.36.004,rantool2,2021.1.4,Win32,74.0521327,60ec2827fd1b1477d55ce969,60d9d14f4a8a35a482e0d9bf,60edefdbfec4daef84578eac,,,,,,,,,,,,
"[""period"",""comma"",""comma"",""period""]",0,"[0.09472500000265427,0.3509650000050897,1.6886450000019977,1.8787549999979092]",27,0,27,0,1,60ec2827fd1b1477d55ce969,Kobieta,18,2021-07-13_21h58.36.004,rantool2,2021.1.4,Win32,74.0521327,60ec2827fd1b1477d55ce969,60d9d14f4a8a35a482e0d9bf,60edefdbfec4daef84578eac,,,,,,,,,,,,
0,0,,28,0,28,0,1,60ec2827fd1b1477d55ce969,Kobieta,18,2021-07-13_21h58.36.004,rantool2,2021.1.4,Win32,74.0521327,60ec2827fd1b1477d55ce969,60d9d14f4a8a35a482e0d9bf,60edefdbfec4daef84578eac,,,,,,,,,,,,
"[""period""]",0,[0.09708500000124332],29,0,29,0,1,60ec2827fd1b1477d55ce969,Kobieta,18,2021-07-13_21h58.36.004,rantool2,2021.1.4,Win32,74.0521327,60ec2827fd1b1477d55ce969,60d9d14f4a8a35a482e0d9bf,60edefdbfec4daef84578eac,,,,,,,,,,,,
0,0,,30,0,30,0,1,60ec2827fd1b1477d55ce969,Kobieta,18,2021-07-13_21h58.36.004,rantool2,2021.1.4,Win32,74.0521327,60ec2827fd1b1477d55ce969,60d9d14f4a8a35a482e0d9bf,60edefdbfec4daef84578eac,,,,,,,,,,,,
0,0,,31,0,31,0,1,60ec2827fd1b1477d55ce969,Kobieta,18,2021-07-13_21h58.36.004,rantool2,2021.1.4,Win32,74.0521327,60ec2827fd1b1477d55ce969,60d9d14f4a8a35a482e0d9bf,60edefdbfec4daef84578eac,,,,,,,,,,,,
"[""period""]",0,[0.4011000000027707],32,0,32,0,1,60ec2827fd1b1477d55ce969,Kobieta,18,2021-07-13_21h58.36.004,rantool2,2021.1.4,Win32,74.0521327,60ec2827fd1b1477d55ce969,60d9d14f4a8a35a482e0d9bf,60edefdbfec4daef84578eac,,,,,,,,,,,,
"[""comma""]",0,[0.04143500000645872],33,0,33,0,1,60ec2827fd1b1477d55ce969,Kobieta,18,2021-07-13_21h58.36.004,rantool2,2021.1.4,Win32,74.0521327,60ec2827fd1b1477d55ce969,60d9d14f4a8a35a482e0d9bf,60edefdbfec4daef84578eac,,,,,,,,,,,,
0,0,,34,0,34,0,1,60ec2827fd1b1477d55ce969,Kobieta,18,2021-07-13_21h58.36.004,rantool2,2021.1.4,Win32,74.0521327,60ec2827fd1b1477d55ce969,60d9d14f4a8a35a482e0d9bf,60edefdbfec4daef84578eac,,,,,,,,,,,,
0,0,,35,0,35,0,1,60ec2827fd1b1477d55ce969,Kobieta,18,2021-07-13_21h58.36.004,rantool2,2021.1.4,Win32,74.0521327,60ec2827fd1b1477d55ce969,60d9d14f4a8a35a482e0d9bf,60edefdbfec4daef84578eac,,,,,,,,,,,,
0,0,,36,0,36,0,1,60ec2827fd1b1477d55ce969,Kobieta,18,2021-07-13_21h58.36.004,rantool2,2021.1.4,Win32,74.0521327,60ec2827fd1b1477d55ce969,60d9d14f4a8a35a482e0d9bf,60edefdbfec4daef84578eac,,,,,,,,,,,,
0,0,,37,0,37,0,1,60ec2827fd1b1477d55ce969,Kobieta,18,2021-07-13_21h58.36.004,rantool2,2021.1.4,Win32,74.0521327,60ec2827fd1b1477d55ce969,60d9d14f4a8a35a482e0d9bf,60edefdbfec4daef84578eac,,,,,,,,,,,,
"[""period"",""comma"",""period"",""comma"",""period"",""comma"",""period""]",0,"[0.9927950000128476,1.1730100000131642,1.374869999999646,1.5208850000053644,1.6807100000005448,1.8328350000083447,1.8989250000013271]",38,0,38,0,1,60ec2827fd1b1477d55ce969,Kobieta,18,2021-07-13_21h58.36.004,rantool2,2021.1.4,Win32,74.0521327,60ec2827fd1b1477d55ce969,60d9d14f4a8a35a482e0d9bf,60edefdbfec4daef84578eac,,,,,,,,,,,,
"[""comma"",""comma"",""period"",""comma"",""period"",""comma"",""period"",""comma"",""period"",""comma""]",0,"[-0.009149999998044223,0.15878499999234919,0.2635000000009313,0.29214499999943655,0.39121000000159256,0.419964999993681,0.5189149999932852,0.5191649999906076,0.6230700000014622,0.6232049999962328]",39,0,39,0,1,60ec2827fd1b1477d55ce969,Kobieta,18,2021-07-13_21h58.36.004,rantool2,2021.1.4,Win32,74.0521327,60ec2827fd1b1477d55ce969,60d9d14f4a8a35a482e0d9bf,60edefdbfec4daef84578eac,,,,,,,,,,,,
0,0,,40,0,40,0,1,60ec2827fd1b1477d55ce969,Kobieta,18,2021-07-13_21h58.36.004,rantool2,2021.1.4,Win32,74.0521327,60ec2827fd1b1477d55ce969,60d9d14f4a8a35a482e0d9bf,60edefdbfec4daef84578eac,,,,,,,,,,,,
0,0,,41,0,41,0,1,60ec2827fd1b1477d55ce969,Kobieta,18,2021-07-13_21h58.36.004,rantool2,2021.1.4,Win32,74.0521327,60ec2827fd1b1477d55ce969,60d9d14f4a8a35a482e0d9bf,60edefdbfec4daef84578eac,,,,,,,,,,,,
0,0,,42,0,42,0,1,60ec2827fd1b1477d55ce969,Kobieta,18,2021-07-13_21h58.36.004,rantool2,2021.1.4,Win32,74.0521327,60ec2827fd1b1477d55ce969,60d9d14f4a8a35a482e0d9bf,60edefdbfec4daef84578eac,,,,,,,,,,,,
0,0,,43,0,43,0,1,60ec2827fd1b1477d55ce969,Kobieta,18,2021-07-13_21h58.36.004,rantool2,2021.1.4,Win32,74.0521327,60ec2827fd1b1477d55ce969,60d9d14f4a8a35a482e0d9bf,60edefdbfec4daef84578eac,,,,,,,,,,,,
0,0,,44,0,44,0,1,60ec2827fd1b1477d55ce969,Kobieta,18,2021-07-13_21h58.36.004,rantool2,2021.1.4,Win32,74.0521327,60ec2827fd1b1477d55ce969,60d9d14f4a8a35a482e0d9bf,60edefdbfec4daef84578eac,,,,,,,,,,,,
0,0,,45,0,45,0,1,60ec2827fd1b1477d55ce969,Kobieta,18,2021-07-13_21h58.36.004,rantool2,2021.1.4,Win32,74.0521327,60ec2827fd1b1477d55ce969,60d9d14f4a8a35a482e0d9bf,60edefdbfec4daef84578eac,,,,,,,,,,,,
0,0,,46,0,46,0,1,60ec2827fd1b1477d55ce969,Kobieta,18,2021-07-13_21h58.36.004,rantool2,2021.1.4,Win32,74.0521327,60ec2827fd1b1477d55ce969,60d9d14f4a8a35a482e0d9bf,60edefdbfec4daef84578eac,,,,,,,,,,,,
0,0,,47,0,47,0,1,60ec2827fd1b1477d55ce969,Kobieta,18,2021-07-13_21h58.36.004,rantool2,2021.1.4,Win32,74.0521327,60ec2827fd1b1477d55ce969,60d9d14f4a8a35a482e0d9bf,60edefdbfec4daef84578eac,,,,,,,,,,,,
0,0,,48,0,48,0,1,60ec2827fd1b1477d55ce969,Kobieta,18,2021-07-13_21h58.36.004,rantool2,2021.1.4,Win32,74.0521327,60ec2827fd1b1477d55ce969,60d9d14f4a8a35a482e0d9bf,60edefdbfec4daef84578eac,,,,,,,,,,,,
0,0,,49,0,49,0,1,60ec2827fd1b1477d55ce969,Kobieta,18,2021-07-13_21h58.36.004,rantool2,2021.1.4,Win32,74.0521327,60ec2827fd1b1477d55ce969,60d9d14f4a8a35a482e0d9bf,60edefdbfec4daef84578eac,,,,,,,,,,,,
0,0,,50,0,50,0,1,60ec2827fd1b1477d55ce969,Kobieta,18,2021-07-13_21h58.36.004,rantool2,2021.1.4,Win32,74.0521327,60ec2827fd1b1477d55ce969,60d9d14f4a8a35a482e0d9bf,60edefdbfec4daef84578eac,,,,,,,,,,,,
0,0,,51,0,51,0,1,60ec2827fd1b1477d55ce969,Kobieta,18,2021-07-13_21h58.36.004,rantool2,2021.1.4,Win32,74.0521327,60ec2827fd1b1477d55ce969,60d9d14f4a8a35a482e0d9bf,60edefdbfec4daef84578eac,,,,,,,,,,,,
0,0,,52,0,52,0,1,60ec2827fd1b1477d55ce969,Kobieta,18,2021-07-13_21h58.36.004,rantool2,2021.1.4,Win32,74.0521327,60ec2827fd1b1477d55ce969,60d9d14f4a8a35a482e0d9bf,60edefdbfec4daef84578eac,,,,,,,,,,,,
0,0,,53,0,53,0,1,60ec2827fd1b1477d55ce969,Kobieta,18,2021-07-13_21h58.36.004,rantool2,2021.1.4,Win32,74.0521327,60ec2827fd1b1477d55ce969,60d9d14f4a8a35a482e0d9bf,60edefdbfec4daef84578eac,,,,,,,,,,,,
0,0,,54,0,54,0,1,60ec2827fd1b1477d55ce969,Kobieta,18,2021-07-13_21h58.36.004,rantool2,2021.1.4,Win32,74.0521327,60ec2827fd1b1477d55ce969,60d9d14f4a8a35a482e0d9bf,60edefdbfec4daef84578eac,,,,,,,,,,,,
0,0,,55,0,55,0,1,60ec2827fd1b1477d55ce969,Kobieta,18,2021-07-13_21h58.36.004,rantool2,2021.1.4,Win32,74.0521327,60ec2827fd1b1477d55ce969,60d9d14f4a8a35a482e0d9bf,60edefdbfec4daef84578eac,,,,,,,,,,,,
0,0,,56,0,56,0,1,60ec2827fd1b1477d55ce969,Kobieta,18,2021-07-13_21h58.36.004,rantool2,2021.1.4,Win32,74.0521327,60ec2827fd1b1477d55ce969,60d9d14f4a8a35a482e0d9bf,60edefdbfec4daef84578eac,,,,,,,,,,,,
0,0,,57,0,57,0,1,60ec2827fd1b1477d55ce969,Kobieta,18,2021-07-13_21h58.36.004,rantool2,2021.1.4,Win32,74.0521327,60ec2827fd1b1477d55ce969,60d9d14f4a8a35a482e0d9bf,60edefdbfec4daef84578eac,,,,,,,,,,,,
0,0,,58,0,58,0,1,60ec2827fd1b1477d55ce969,Kobieta,18,2021-07-13_21h58.36.004,rantool2,2021.1.4,Win32,74.0521327,60ec2827fd1b1477d55ce969,60d9d14f4a8a35a482e0d9bf,60edefdbfec4daef84578eac,,,,,,,,,,,,
0,0,,59,0,59,0,1,60ec2827fd1b1477d55ce969,Kobieta,18,2021-07-13_21h58.36.004,rantool2,2021.1.4,Win32,74.0521327,60ec2827fd1b1477d55ce969,60d9d14f4a8a35a482e0d9bf,60edefdbfec4daef84578eac,,,,,,,,,,,,
0,0,,60,0,60,0,1,60ec2827fd1b1477d55ce969,Kobieta,18,2021-07-13_21h58.36.004,rantool2,2021.1.4,Win32,74.0521327,60ec2827fd1b1477d55ce969,60d9d14f4a8a35a482e0d9bf,60edefdbfec4daef84578eac,,,,,,,,,,,,
0,0,,61,0,61,0,1,60ec2827fd1b1477d55ce969,Kobieta,18,2021-07-13_21h58.36.004,rantool2,2021.1.4,Win32,74.0521327,60ec2827fd1b1477d55ce969,60d9d14f4a8a35a482e0d9bf,60edefdbfec4daef84578eac,,,,,,,,,,,,
0,0,,62,0,62,0,1,60ec2827fd1b1477d55ce969,Kobieta,18,2021-07-13_21h58.36.004,rantool2,2021.1.4,Win32,74.0521327,60ec2827fd1b1477d55ce969,60d9d14f4a8a35a482e0d9bf,60edefdbfec4daef84578eac,,,,,,,,,,,,
0,0,,63,0,63,0,1,60ec2827fd1b1477d55ce969,Kobieta,18,2021-07-13_21h58.36.004,rantool2,2021.1.4,Win32,74.0521327,60ec2827fd1b1477d55ce969,60d9d14f4a8a35a482e0d9bf,60edefdbfec4daef84578eac,,,,,,,,,,,,
0,0,,64,0,64,0,1,60ec2827fd1b1477d55ce969,Kobieta,18,2021-07-13_21h58.36.004,rantool2,2021.1.4,Win32,74.0521327,60ec2827fd1b1477d55ce969,60d9d14f4a8a35a482e0d9bf,60edefdbfec4daef84578eac,,,,,,,,,,,,
0,0,,65,0,65,0,1,60ec2827fd1b1477d55ce969,Kobieta,18,2021-07-13_21h58.36.004,rantool2,2021.1.4,Win32,74.0521327,60ec2827fd1b1477d55ce969,60d9d14f4a8a35a482e0d9bf,60edefdbfec4daef84578eac,,,,,,,,,,,,
0,0,,66,0,66,0,1,60ec2827fd1b1477d55ce969,Kobieta,18,2021-07-13_21h58.36.004,rantool2,2021.1.4,Win32,74.0521327,60ec2827fd1b1477d55ce969,60d9d14f4a8a35a482e0d9bf,60edefdbfec4daef84578eac,,,,,,,,,,,,
0,0,,67,0,67,0,1,60ec2827fd1b1477d55ce969,Kobieta,18,2021-07-13_21h58.36.004,rantool2,2021.1.4,Win32,74.0521327,60ec2827fd1b1477d55ce969,60d9d14f4a8a35a482e0d9bf,60edefdbfec4daef84578eac,,,,,,,,,,,,
0,0,,68,0,68,0,1,60ec2827fd1b1477d55ce969,Kobieta,18,2021-07-13_21h58.36.004,rantool2,2021.1.4,Win32,74.0521327,60ec2827fd1b1477d55ce969,60d9d14f4a8a35a482e0d9bf,60edefdbfec4daef84578eac,,,,,,,,,,,,
"[""period"",""period"",""comma"",""period"",""comma"",""comma"",""period"",""period"",""comma"",""comma""]",0,"[1.0676300000050105,1.4058600000134902,1.4261100000003353,1.5833800000109477,1.5834650000033434,1.694115000005695,1.7153250000119442,1.8348750000004657,1.8353750000096625,1.927590000006603]",69,0,69,0,1,60ec2827fd1b1477d55ce969,Kobieta,18,2021-07-13_21h58.36.004,rantool2,2021.1.4,Win32,74.0521327,60ec2827fd1b1477d55ce969,60d9d14f4a8a35a482e0d9bf,60edefdbfec4daef84578eac,,,,,,,,,,,,
"[""period""]",0,[-0.013874999989639036],70,0,70,0,1,60ec2827fd1b1477d55ce969,Kobieta,18,2021-07-13_21h58.36.004,rantool2,2021.1.4,Win32,74.0521327,60ec2827fd1b1477d55ce969,60d9d14f4a8a35a482e0d9bf,60edefdbfec4daef84578eac,,,,,,,,,,,,
"[""comma"",""period"",""comma"",""period"",""period"",""comma"",""period"",""comma"",""comma""]",0,"[1.3478699999977835,1.4195000000036089,1.5794850000092993,1.6036850000091363,1.7238700000016252,1.7240949999977602,1.859745000008843,1.8599800000083633,1.9794700000056764]",71,0,71,0,1,60ec2827fd1b1477d55ce969,Kobieta,18,2021-07-13_21h58.36.004,rantool2,2021.1.4,Win32,74.0521327,60ec2827fd1b1477d55ce969,60d9d14f4a8a35a482e0d9bf,60edefdbfec4daef84578eac,,,,,,,,,,,,
"[""period"",""period"",""comma"",""period"",""comma"",""comma"",""period"",""comma"",""period"",""period"",""comma"",""period""]",0,"[0.001504999992903322,0.12172500000451691,0.12195000000065193,0.2415000000037253,0.25759500000276603,0.3707949999952689,0.3935899999924004,0.4735649999929592,0.4977599999983795,0.617805000001681,0.6180349999922328,0.7055200000031618]",72,0,72,0,1,60ec2827fd1b1477d55ce969,Kobieta,18,2021-07-13_21h58.36.004,rantool2,2021.1.4,Win32,74.0521327,60ec2827fd1b1477d55ce969,60d9d14f4a8a35a482e0d9bf,60edefdbfec4daef84578eac,,,,,,,,,,,,
0,0,,73,0,73,0,1,60ec2827fd1b1477d55ce969,Kobieta,18,2021-07-13_21h58.36.004,rantool2,2021.1.4,Win32,74.0521327,60ec2827fd1b1477d55ce969,60d9d14f4a8a35a482e0d9bf,60edefdbfec4daef84578eac,,,,,,,,,,,,
0,0,,74,0,74,0,1,60ec2827fd1b1477d55ce969,Kobieta,18,2021-07-13_21h58.36.004,rantool2,2021.1.4,Win32,74.0521327,60ec2827fd1b1477d55ce969,60d9d14f4a8a35a482e0d9bf,60edefdbfec4daef84578eac,,,,,,,,,,,,
0,0,,75,0,75,0,1,60ec2827fd1b1477d55ce969,Kobieta,18,2021-07-13_21h58.36.004,rantool2,2021.1.4,Win32,74.0521327,60ec2827fd1b1477d55ce969,60d9d14f4a8a35a482e0d9bf,60edefdbfec4daef84578eac,,,,,,,,,,,,
0,0,,76,0,76,0,1,60ec2827fd1b1477d55ce969,Kobieta,18,2021-07-13_21h58.36.004,rantool2,2021.1.4,Win32,74.0521327,60ec2827fd1b1477d55ce969,60d9d14f4a8a35a482e0d9bf,60edefdbfec4daef84578eac,,,,,,,,,,,,
0,0,,77,0,77,0,1,60ec2827fd1b1477d55ce969,Kobieta,18,2021-07-13_21h58.36.004,rantool2,2021.1.4,Win32,74.0521327,60ec2827fd1b1477d55ce969,60d9d14f4a8a35a482e0d9bf,60edefdbfec4daef84578eac,,,,,,,,,,,,
0,0,,78,0,78,0,1,60ec2827fd1b1477d55ce969,Kobieta,18,2021-07-13_21h58.36.004,rantool2,2021.1.4,Win32,74.0521327,60ec2827fd1b1477d55ce969,60d9d14f4a8a35a482e0d9bf,60edefdbfec4daef84578eac,,,,,,,,,,,,
0,0,,79,0,79,0,1,60ec2827fd1b1477d55ce969,Kobieta,18,2021-07-13_21h58.36.004,rantool2,2021.1.4,Win32,74.0521327,60ec2827fd1b1477d55ce969,60d9d14f4a8a35a482e0d9bf,60edefdbfec4daef84578eac,,,,,,,,,,,,
0,0,,80,0,80,0,1,60ec2827fd1b1477d55ce969,Kobieta,18,2021-07-13_21h58.36.004,rantool2,2021.1.4,Win32,74.0521327,60ec2827fd1b1477d55ce969,60d9d14f4a8a35a482e0d9bf,60edefdbfec4daef84578eac,,,,,,,,,,,,
0,0,,81,0,81,0,1,60ec2827fd1b1477d55ce969,Kobieta,18,2021-07-13_21h58.36.004,rantool2,2021.1.4,Win32,74.0521327,60ec2827fd1b1477d55ce969,60d9d14f4a8a35a482e0d9bf,60edefdbfec4daef84578eac,,,,,,,,,,,,
0,0,,82,0,82,0,1,60ec2827fd1b1477d55ce969,Kobieta,18,2021-07-13_21h58.36.004,rantool2,2021.1.4,Win32,74.0521327,60ec2827fd1b1477d55ce969,60d9d14f4a8a35a482e0d9bf,60edefdbfec4daef84578eac,,,,,,,,,,,,
0,0,,83,0,83,0,1,60ec2827fd1b1477d55ce969,Kobieta,18,2021-07-13_21h58.36.004,rantool2,2021.1.4,Win32,74.0521327,60ec2827fd1b1477d55ce969,60d9d14f4a8a35a482e0d9bf,60edefdbfec4daef84578eac,,,,,,,,,,,,
0,0,,84,0,84,0,1,60ec2827fd1b1477d55ce969,Kobieta,18,2021-07-13_21h58.36.004,rantool2,2021.1.4,Win32,74.0521327,60ec2827fd1b1477d55ce969,60d9d14f4a8a35a482e0d9bf,60edefdbfec4daef84578eac,,,,,,,,,,,,
0,0,,85,0,85,0,1,60ec2827fd1b1477d55ce969,Kobieta,18,2021-07-13_21h58.36.004,rantool2,2021.1.4,Win32,74.0521327,60ec2827fd1b1477d55ce969,60d9d14f4a8a35a482e0d9bf,60edefdbfec4daef84578eac,,,,,,,,,,,,
0,0,,86,0,86,0,1,60ec2827fd1b1477d55ce969,Kobieta,18,2021-07-13_21h58.36.004,rantool2,2021.1.4,Win32,74.0521327,60ec2827fd1b1477d55ce969,60d9d14f4a8a35a482e0d9bf,60edefdbfec4daef84578eac,,,,,,,,,,,,
0,0,,87,0,87,0,1,60ec2827fd1b1477d55ce969,Kobieta,18,2021-07-13_21h58.36.004,rantool2,2021.1.4,Win32,74.0521327,60ec2827fd1b1477d55ce969,60d9d14f4a8a35a482e0d9bf,60edefdbfec4daef84578eac,,,,,,,,,,,,
0,0,,88,0,88,0,1,60ec2827fd1b1477d55ce969,Kobieta,18,2021-07-13_21h58.36.004,rantool2,2021.1.4,Win32,74.0521327,60ec2827fd1b1477d55ce969,60d9d14f4a8a35a482e0d9bf,60edefdbfec4daef84578eac,,,,,,,,,,,,
0,0,,89,0,89,0,1,60ec2827fd1b1477d55ce969,Kobieta,18,2021-07-13_21h58.36.004,rantool2,2021.1.4,Win32,74.0521327,60ec2827fd1b1477d55ce969,60d9d14f4a8a35a482e0d9bf,60edefdbfec4daef84578eac,,,,,,,,,,,,
0,0,,90,0,90,0,1,60ec2827fd1b1477d55ce969,Kobieta,18,2021-07-13_21h58.36.004,rantool2,2021.1.4,Win32,74.0521327,60ec2827fd1b1477d55ce969,60d9d14f4a8a35a482e0d9bf,60edefdbfec4daef84578eac,,,,,,,,,,,,
0,0,,91,0,91,0,1,60ec2827fd1b1477d55ce969,Kobieta,18,2021-07-13_21h58.36.004,rantool2,2021.1.4,Win32,74.0521327,60ec2827fd1b1477d55ce969,60d9d14f4a8a35a482e0d9bf,60edefdbfec4daef84578eac,,,,,,,,,,,,
0,0,,92,0,92,0,1,60ec2827fd1b1477d55ce969,Kobieta,18,2021-07-13_21h58.36.004,rantool2,2021.1.4,Win32,74.0521327,60ec2827fd1b1477d55ce969,60d9d14f4a8a35a482e0d9bf,60edefdbfec4daef84578eac,,,,,,,,,,,,
0,0,,93,0,93,0,1,60ec2827fd1b1477d55ce969,Kobieta,18,2021-07-13_21h58.36.004,rantool2,2021.1.4,Win32,74.0521327,60ec2827fd1b1477d55ce969,60d9d14f4a8a35a482e0d9bf,60edefdbfec4daef84578eac,,,,,,,,,,,,
0,0,,94,0,94,0,1,60ec2827fd1b1477d55ce969,Kobieta,18,2021-07-13_21h58.36.004,rantool2,2021.1.4,Win32,74.0521327,60ec2827fd1b1477d55ce969,60d9d14f4a8a35a482e0d9bf,60edefdbfec4daef84578eac,,,,,,,,,,,,
0,0,,95,0,95,0,1,60ec2827fd1b1477d55ce969,Kobieta,18,2021-07-13_21h58.36.004,rantool2,2021.1.4,Win32,74.0521327,60ec2827fd1b1477d55ce969,60d9d14f4a8a35a482e0d9bf,60edefdbfec4daef84578eac,,,,,,,,,,,,
0,0,,96,0,96,0,1,60ec2827fd1b1477d55ce969,Kobieta,18,2021-07-13_21h58.36.004,rantool2,2021.1.4,Win32,74.0521327,60ec2827fd1b1477d55ce969,60d9d14f4a8a35a482e0d9bf,60edefdbfec4daef84578eac,,,,,,,,,,,,
0,0,,97,0,97,0,1,60ec2827fd1b1477d55ce969,Kobieta,18,2021-07-13_21h58.36.004,rantool2,2021.1.4,Win32,74.0521327,60ec2827fd1b1477d55ce969,60d9d14f4a8a35a482e0d9bf,60edefdbfec4daef84578eac,,,,,,,,,,,,
0,0,,98,0,98,0,1,60ec2827fd1b1477d55ce969,Kobieta,18,2021-07-13_21h58.36.004,rantool2,2021.1.4,Win32,74.0521327,60ec2827fd1b1477d55ce969,60d9d14f4a8a35a482e0d9bf,60edefdbfec4daef84578eac,,,,,,,,,,,,
0,0,,99,0,99,0,1,60ec2827fd1b1477d55ce969,Kobieta,18,2021-07-13_21h58.36.004,rantool2,2021.1.4,Win32,74.0521327,60ec2827fd1b1477d55ce969,60d9d14f4a8a35a482e0d9bf,60edefdbfec4daef84578eac,,,,,,,,,,,,
0,0,,100,0,100,0,1,60ec2827fd1b1477d55ce969,Kobieta,18,2021-07-13_21h58.36.004,rantool2,2021.1.4,Win32,74.0521327,60ec2827fd1b1477d55ce969,60d9d14f4a8a35a482e0d9bf,60edefdbfec4daef84578eac,,,,,,,,,,,,
0,0,,101,0,101,0,1,60ec2827fd1b1477d55ce969,Kobieta,18,2021-07-13_21h58.36.004,rantool2,2021.1.4,Win32,74.0521327,60ec2827fd1b1477d55ce969,60d9d14f4a8a35a482e0d9bf,60edefdbfec4daef84578eac,,,,,,,,,,,,
0,0,,102,0,102,0,1,60ec2827fd1b1477d55ce969,Kobieta,18,2021-07-13_21h58.36.004,rantool2,2021.1.4,Win32,74.0521327,60ec2827fd1b1477d55ce969,60d9d14f4a8a35a482e0d9bf,60edefdbfec4daef84578eac,,,,,,,,,,,,
0,0,,103,0,103,0,1,60ec2827fd1b1477d55ce969,Kobieta,18,2021-07-13_21h58.36.004,rantool2,2021.1.4,Win32,74.0521327,60ec2827fd1b1477d55ce969,60d9d14f4a8a35a482e0d9bf,60edefdbfec4daef84578eac,,,,,,,,,,,,
0,0,,104,0,104,0,1,60ec2827fd1b1477d55ce969,Kobieta,18,2021-07-13_21h58.36.004,rantool2,2021.1.4,Win32,74.0521327,60ec2827fd1b1477d55ce969,60d9d14f4a8a35a482e0d9bf,60edefdbfec4daef84578eac,,,,,,,,,,,,
0,0,,105,0,105,0,1,60ec2827fd1b1477d55ce969,Kobieta,18,2021-07-13_21h58.36.004,rantool2,2021.1.4,Win32,74.0521327,60ec2827fd1b1477d55ce969,60d9d14f4a8a35a482e0d9bf,60edefdbfec4daef84578eac,,,,,,,,,,,,
0,0,,106,0,106,0,1,60ec2827fd1b1477d55ce969,Kobieta,18,2021-07-13_21h58.36.004,rantool2,2021.1.4,Win32,74.0521327,60ec2827fd1b1477d55ce969,60d9d14f4a8a35a482e0d9bf,60edefdbfec4daef84578eac,,,,,,,,,,,,
0,0,,107,0,107,0,1,60ec2827fd1b1477d55ce969,Kobieta,18,2021-07-13_21h58.36.004,rantool2,2021.1.4,Win32,74.0521327,60ec2827fd1b1477d55ce969,60d9d14f4a8a35a482e0d9bf,60edefdbfec4daef84578eac,,,,,,,,,,,,
0,0,,108,0,108,0,1,60ec2827fd1b1477d55ce969,Kobieta,18,2021-07-13_21h58.36.004,rantool2,2021.1.4,Win32,74.0521327,60ec2827fd1b1477d55ce969,60d9d14f4a8a35a482e0d9bf,60edefdbfec4daef84578eac,,,,,,,,,,,,
0,0,,109,0,109,0,1,60ec2827fd1b1477d55ce969,Kobieta,18,2021-07-13_21h58.36.004,rantool2,2021.1.4,Win32,74.0521327,60ec2827fd1b1477d55ce969,60d9d14f4a8a35a482e0d9bf,60edefdbfec4daef84578eac,,,,,,,,,,,,
0,0,,110,0,110,0,1,60ec2827fd1b1477d55ce969,Kobieta,18,2021-07-13_21h58.36.004,rantool2,2021.1.4,Win32,74.0521327,60ec2827fd1b1477d55ce969,60d9d14f4a8a35a482e0d9bf,60edefdbfec4daef84578eac,,,,,,,,,,,,
0,0,,111,0,111,0,1,60ec2827fd1b1477d55ce969,Kobieta,18,2021-07-13_21h58.36.004,rantool2,2021.1.4,Win32,74.0521327,60ec2827fd1b1477d55ce969,60d9d14f4a8a35a482e0d9bf,60edefdbfec4daef84578eac,,,,,,,,,,,,
0,0,,112,0,112,0,1,60ec2827fd1b1477d55ce969,Kobieta,18,2021-07-13_21h58.36.004,rantool2,2021.1.4,Win32,74.0521327,60ec2827fd1b1477d55ce969,60d9d14f4a8a35a482e0d9bf,60edefdbfec4daef84578eac,,,,,,,,,,,,
0,0,,113,0,113,0,1,60ec2827fd1b1477d55ce969,Kobieta,18,2021-07-13_21h58.36.004,rantool2,2021.1.4,Win32,74.0521327,60ec2827fd1b1477d55ce969,60d9d14f4a8a35a482e0d9bf,60edefdbfec4daef84578eac,,,,,,,,,,,,
0,0,,114,0,114,0,1,60ec2827fd1b1477d55ce969,Kobieta,18,2021-07-13_21h58.36.004,rantool2,2021.1.4,Win32,74.0521327,60ec2827fd1b1477d55ce969,60d9d14f4a8a35a482e0d9bf,60edefdbfec4daef84578eac,,,,,,,,,,,,
0,0,,115,0,115,0,1,60ec2827fd1b1477d55ce969,Kobieta,18,2021-07-13_21h58.36.004,rantool2,2021.1.4,Win32,74.0521327,60ec2827fd1b1477d55ce969,60d9d14f4a8a35a482e0d9bf,60edefdbfec4daef84578eac,,,,,,,,,,,,
0,0,,116,0,116,0,1,60ec2827fd1b1477d55ce969,Kobieta,18,2021-07-13_21h58.36.004,rantool2,2021.1.4,Win32,74.0521327,60ec2827fd1b1477d55ce969,60d9d14f4a8a35a482e0d9bf,60edefdbfec4daef84578eac,,,,,,,,,,,,
0,0,,117,0,117,0,1,60ec2827fd1b1477d55ce969,Kobieta,18,2021-07-13_21h58.36.004,rantool2,2021.1.4,Win32,74.0521327,60ec2827fd1b1477d55ce969,60d9d14f4a8a35a482e0d9bf,60edefdbfec4daef84578eac,,,,,,,,,,,,
0,0,,118,0,118,0,1,60ec2827fd1b1477d55ce969,Kobieta,18,2021-07-13_21h58.36.004,rantool2,2021.1.4,Win32,74.0521327,60ec2827fd1b1477d55ce969,60d9d14f4a8a35a482e0d9bf,60edefdbfec4daef84578eac,,,,,,,,,,,,
0,0,,119,0,119,0,1,60ec2827fd1b1477d55ce969,Kobieta,18,2021-07-13_21h58.36.004,rantool2,2021.1.4,Win32,74.0521327,60ec2827fd1b1477d55ce969,60d9d14f4a8a35a482e0d9bf,60edefdbfec4daef84578eac,,,,,,,,,,,,
,,,,,,,,60ec2827fd1b1477d55ce969,Kobieta,18,2021-07-13_21h58.36.004,rantool2,2021.1.4,Win32,74.0521327,60ec2827fd1b1477d55ce969,60d9d14f4a8a35a482e0d9bf,60edefdbfec4daef84578eac,,0,0,0,3,1,OOOORRO,OOOORRR,20.90986523,21.74922619,series_1,
,,,,,,,,60ec2827fd1b1477d55ce969,Kobieta,18,2021-07-13_21h58.36.004,rantool2,2021.1.4,Win32,74.0521327,60ec2827fd1b1477d55ce969,60d9d14f4a8a35a482e0d9bf,60edefdbfec4daef84578eac,f,0,1,1,52,1,RROROOO,RROROOR,22.18365867,22.11097995,series_0,1.52635
,,,,,,,,60ec2827fd1b1477d55ce969,Kobieta,18,2021-07-13_21h58.36.004,rantool2,2021.1.4,Win32,74.0521327,60ec2827fd1b1477d55ce969,60d9d14f4a8a35a482e0d9bf,60edefdbfec4daef84578eac,j,0,2,2,32,1,ROOOOOO,ROOOOOR,19.92253567,21.27974287,series_1,3.332545
,,,,,,,,60ec2827fd1b1477d55ce969,Kobieta,18,2021-07-13_21h58.36.004,rantool2,2021.1.4,Win32,74.0521327,60ec2827fd1b1477d55ce969,60d9d14f4a8a35a482e0d9bf,60edefdbfec4daef84578eac,j,0,3,3,42,1,ROROROO,ROROROR,20.39515459,19.8361834,series_0,3.06825
,,,,,,,,60ec2827fd1b1477d55ce969,Kobieta,18,2021-07-13_21h58.36.004,rantool2,2021.1.4,Win32,74.0521327,60ec2827fd1b1477d55ce969,60d9d14f4a8a35a482e0d9bf,60edefdbfec4daef84578eac,j,0,4,4,50,1,RROOROO,RROOROR,21.73568164,22.02566557,series_1,1.565115
,,,,,,,,60ec2827fd1b1477d55ce969,Kobieta,18,2021-07-13_21h58.36.004,rantool2,2021.1.4,Win32,74.0521327,60ec2827fd1b1477d55ce969,60d9d14f4a8a35a482e0d9bf,60edefdbfec4daef84578eac,f,0,5,5,53,1,RRORORO,RRORORR,20.71309134,21.90565814,series_1,2.346295
,,,,,,,,60ec2827fd1b1477d55ce969,Kobieta,18,2021-07-13_21h58.36.004,rantool2,2021.1.4,Win32,74.0521327,60ec2827fd1b1477d55ce969,60d9d14f4a8a35a482e0d9bf,60edefdbfec4daef84578eac,j,0,6,6,22,1,ORORROO,ORORROR,22.02732763,21.57657071,series_0,1.41703
,,,,,,,,60ec2827fd1b1477d55ce969,Kobieta,18,2021-07-13_21h58.36.004,rantool2,2021.1.4,Win32,74.0521327,60ec2827fd1b1477d55ce969,60d9d14f4a8a35a482e0d9bf,60edefdbfec4daef84578eac,j,0,7,7,37,1,ROORORO,ROORORR,20.42602454,21.57657071,series_1,1.35015
,,,,,,,,60ec2827fd1b1477d55ce969,Kobieta,18,2021-07-13_21h58.36.004,rantool2,2021.1.4,Win32,74.0521327,60ec2827fd1b1477d55ce969,60d9d14f4a8a35a482e0d9bf,60edefdbfec4daef84578eac,j,0,8,8,43,1,RORORRO,RORORRR,20.71309134,21.07490964,series_1,1.884455
,,,,,,,,60ec2827fd1b1477d55ce969,Kobieta,18,2021-07-13_21h58.36.004,rantool2,2021.1.4,Win32,74.0521327,60ec2827fd1b1477d55ce969,60d9d14f4a8a35a482e0d9bf,60edefdbfec4daef84578eac,f,0,9,9,26,1,ORROROO,ORROROR,22.02732763,21.71443381,series_0,1.1055
,,,,,,,,60ec2827fd1b1477d55ce969,Kobieta,18,2021-07-13_21h58.36.004,rantool2,2021.1.4,Win32,74.0521327,60ec2827fd1b1477d55ce969,60d9d14f4a8a35a482e0d9bf,60edefdbfec4daef84578eac,j,0,10,10,24,1,ORROOOO,ORROOOR,21.12383932,22.07102821,series_1,1.419555
,,,,,,,,60ec2827fd1b1477d55ce969,Kobieta,18,2021-07-13_21h58.36.004,rantool2,2021.1.4,Win32,74.0521327,60ec2827fd1b1477d55ce969,60d9d14f4a8a35a482e0d9bf,60edefdbfec4daef84578eac,f,0,11,11,27,1,ORRORRO,ORRORRR,21.55250791,22.2428857,series_1,1.85304
,,,,,,,,60ec2827fd1b1477d55ce969,Kobieta,18,2021-07-13_21h58.36.004,rantool2,2021.1.4,Win32,74.0521327,60ec2827fd1b1477d55ce969,60d9d14f4a8a35a482e0d9bf,60edefdbfec4daef84578eac,j,0,12,12,7,1,OOORRRO,OOORRRR,21.6194508,21.899017,series_1,1.43665
,,,,,,,,60ec2827fd1b1477d55ce969,Kobieta,18,2021-07-13_21h58.36.004,rantool2,2021.1.4,Win32,74.0521327,60ec2827fd1b1477d55ce969,60d9d14f4a8a35a482e0d9bf,60edefdbfec4daef84578eac,j,0,13,13,17,1,OROOORO,OROOORR,21.03750787,22.12173012,series_1,1.850405
,,,,,,,,60ec2827fd1b1477d55ce969,Kobieta,18,2021-07-13_21h58.36.004,rantool2,2021.1.4,Win32,74.0521327,60ec2827fd1b1477d55ce969,60d9d14f4a8a35a482e0d9bf,60edefdbfec4daef84578eac,f,0,14,14,62,1,RRRRROO,RRRRROR,22.16413392,21.27974287,series_0,2.44539
,,,,,,,,60ec2827fd1b1477d55ce969,Kobieta,18,2021-07-13_21h58.36.004,rantool2,2021.1.4,Win32,74.0521327,60ec2827fd1b1477d55ce969,60d9d14f4a8a35a482e0d9bf,60edefdbfec4daef84578eac,j,0,15,15,16,1,OROOOOO,OROOOOR,20.43051175,21.17347734,series_1,1.882065
,,,,,,,,60ec2827fd1b1477d55ce969,Kobieta,18,2021-07-13_21h58.36.004,rantool2,2021.1.4,Win32,74.0521327,60ec2827fd1b1477d55ce969,60d9d14f4a8a35a482e0d9bf,60edefdbfec4daef84578eac,j,0,16,16,54,1,RRORROO,RRORROR,21.55250791,20.9984461,series_0,1.7614
,,,,,,,,60ec2827fd1b1477d55ce969,Kobieta,18,2021-07-13_21h58.36.004,rantool2,2021.1.4,Win32,74.0521327,60ec2827fd1b1477d55ce969,60d9d14f4a8a35a482e0d9bf,60edefdbfec4daef84578eac,f,0,17,17,25,1,ORROORO,ORROORR,21.79500819,22.61624387,series_1,0.509415
,,,,,,,,60ec2827fd1b1477d55ce969,Kobieta,18,2021-07-13_21h58.36.004,rantool2,2021.1.4,Win32,74.0521327,60ec2827fd1b1477d55ce969,60d9d14f4a8a35a482e0d9bf,60edefdbfec4daef84578eac,j,0,18,18,12,1,OORROOO,OORROOR,21.30250474,22.02786418,series_1,0.41442
,,,,,,,,60ec2827fd1b1477d55ce969,Kobieta,18,2021-07-13_21h58.36.004,rantool2,2021.1.4,Win32,74.0521327,60ec2827fd1b1477d55ce969,60d9d14f4a8a35a482e0d9bf,60edefdbfec4daef84578eac,j,0,19,19,59,1,RRRORRO,RRRORRR,21.56657303,20.89823192,series_0,0.444035
,,,,,,,,60ec2827fd1b1477d55ce969,Kobieta,18,2021-07-13_21h58.36.004,rantool2,2021.1.4,Win32,74.0521327,60ec2827fd1b1477d55ce969,60d9d14f4a8a35a482e0d9bf,60edefdbfec4daef84578eac,f,0,20,20,40,1,ROROOOO,ROROOOR,20.87963819,21.37121559,series_1,0.360735
,,,,,,,,60ec2827fd1b1477d55ce969,Kobieta,18,2021-07-13_21h58.36.004,rantool2,2021.1.4,Win32,74.0521327,60ec2827fd1b1477d55ce969,60d9d14f4a8a35a482e0d9bf,60edefdbfec4daef84578eac,j,0,21,21,48,1,RROOOOO,RROOOOR,20.90986523,22.15934078,series_1,0.26443
,,,,,,,,60ec2827fd1b1477d55ce969,Kobieta,18,2021-07-13_21h58.36.004,rantool2,2021.1.4,Win32,74.0521327,60ec2827fd1b1477d55ce969,60d9d14f4a8a35a482e0d9bf,60edefdbfec4daef84578eac,f,0,22,22,0,1,OOOOOOO,OOOOOOR,18.52739004,19.62521613,series_1,0.34805
,,,,,,,,60ec2827fd1b1477d55ce969,Kobieta,18,2021-07-13_21h58.36.004,rantool2,2021.1.4,Win32,74.0521327,60ec2827fd1b1477d55ce969,60d9d14f4a8a35a482e0d9bf,60edefdbfec4daef84578eac,j,0,23,23,20,1,OROROOO,OROROOR,21.31236711,21.90565814,series_1,0.2426
,,,,,,,,60ec2827fd1b1477d55ce969,Kobieta,18,2021-07-13_21h58.36.004,rantool2,2021.1.4,Win32,74.0521327,60ec2827fd1b1477d55ce969,60d9d14f4a8a35a482e0d9bf,60edefdbfec4daef84578eac,j,0,24,24,34,1,ROOOROO,ROOOROR,21.03750787,21.24781509,series_1,0.253835
,,,,,,,,60ec2827fd1b1477d55ce969,Kobieta,18,2021-07-13_21h58.36.004,rantool2,2021.1.4,Win32,74.0521327,60ec2827fd1b1477d55ce969,60d9d14f4a8a35a482e0d9bf,60edefdbfec4daef84578eac,j,0,25,25,47,1,RORRRRO,RORRRRR,21.81333602,21.02936224,series_0,0.253845
,,,,,,,,60ec2827fd1b1477d55ce969,Kobieta,18,2021-07-13_21h58.36.004,rantool2,2021.1.4,Win32,74.0521327,60ec2827fd1b1477d55ce969,60d9d14f4a8a35a482e0d9bf,60edefdbfec4daef84578eac,f,0,26,26,4,1,OOOROOO,OOOROOR,19.91402015,21.21223021,series_1,0.200645
,,,,,,,,60ec2827fd1b1477d55ce969,Kobieta,18,2021-07-13_21h58.36.004,rantool2,2021.1.4,Win32,74.0521327,60ec2827fd1b1477d55ce969,60d9d14f4a8a35a482e0d9bf,60edefdbfec4daef84578eac,f,0,27,27,11,1,OORORRO,OORORRR,22.18365867,22.6797523,series_1,0.2566
,,,,,,,,60ec2827fd1b1477d55ce969,Kobieta,18,2021-07-13_21h58.36.004,rantool2,2021.1.4,Win32,74.0521327,60ec2827fd1b1477d55ce969,60d9d14f4a8a35a482e0d9bf,60edefdbfec4daef84578eac,j,0,28,28,63,1,RRRRRRO,RRRRRRR,21.35278725,19.62521613,series_0,0.17973
,,,,,,,,60ec2827fd1b1477d55ce969,Kobieta,18,2021-07-13_21h58.36.004,rantool2,2021.1.4,Win32,74.0521327,60ec2827fd1b1477d55ce969,60d9d14f4a8a35a482e0d9bf,60edefdbfec4daef84578eac,j,0,29,29,5,1,OOORORO,OOORORR,20.87963819,21.9921709,series_1,0.239175
,,,,,,,,60ec2827fd1b1477d55ce969,Kobieta,18,2021-07-13_21h58.36.004,rantool2,2021.1.4,Win32,74.0521327,60ec2827fd1b1477d55ce969,60d9d14f4a8a35a482e0d9bf,60edefdbfec4daef84578eac,f,0,30,30,1,1,OOOOORO,OOOOORR,19.92253567,20.74050628,series_1,0.156965
,,,,,,,,60ec2827fd1b1477d55ce969,Kobieta,18,2021-07-13_21h58.36.004,rantool2,2021.1.4,Win32,74.0521327,60ec2827fd1b1477d55ce969,60d9d14f4a8a35a482e0d9bf,60edefdbfec4daef84578eac,j,0,31,31,51,1,RROORRO,RROORRR,21.89852628,22.02786418,series_1,0.115095
,,,,,,,,60ec2827fd1b1477d55ce969,Kobieta,18,2021-07-13_21h58.36.004,rantool2,2021.1.4,Win32,74.0521327,60ec2827fd1b1477d55ce969,60d9d14f4a8a35a482e0d9bf,60edefdbfec4daef84578eac,f,0,32,32,2,1,OOOOROO,OOOOROR,20.43051175,21.02936224,series_1,0.18335
,,,,,,,,60ec2827fd1b1477d55ce969,Kobieta,18,2021-07-13_21h58.36.004,rantool2,2021.1.4,Win32,74.0521327,60ec2827fd1b1477d55ce969,60d9d14f4a8a35a482e0d9bf,60edefdbfec4daef84578eac,j,0,33,33,19,1,OROORRO,OROORRR,21.73568164,22.11181017,series_1,0.090845
,,,,,,,,60ec2827fd1b1477d55ce969,Kobieta,18,2021-07-13_21h58.36.004,rantool2,2021.1.4,Win32,74.0521327,60ec2827fd1b1477d55ce969,60d9d14f4a8a35a482e0d9bf,60edefdbfec4daef84578eac,j,0,34,34,39,1,ROORRRO,ROORRRR,21.82425538,21.38562617,series_0,0.293925
,,,,,,,,60ec2827fd1b1477d55ce969,Kobieta,18,2021-07-13_21h58.36.004,rantool2,2021.1.4,Win32,74.0521327,60ec2827fd1b1477d55ce969,60d9d14f4a8a35a482e0d9bf,60edefdbfec4daef84578eac,j,0,35,35,23,1,ORORRRO,ORORRRR,22.1285618,21.9921709,series_0,0.238705
,,,,,,,,60ec2827fd1b1477d55ce969,Kobieta,18,2021-07-13_21h58.36.004,rantool2,2021.1.4,Win32,74.0521327,60ec2827fd1b1477d55ce969,60d9d14f4a8a35a482e0d9bf,60edefdbfec4daef84578eac,f,0,36,36,31,1,ORRRRRO,ORRRRRR,22.16413392,20.74050628,series_0,0.2275
,,,,,,,,60ec2827fd1b1477d55ce969,Kobieta,18,2021-07-13_21h58.36.004,rantool2,2021.1.4,Win32,74.0521327,60ec2827fd1b1477d55ce969,60d9d14f4a8a35a482e0d9bf,60edefdbfec4daef84578eac,f,0,37,37,57,1,RRROORO,RRROORR,21.82425538,22.07102821,series_1,0.24058
,,,,,,,,60ec2827fd1b1477d55ce969,Kobieta,18,2021-07-13_21h58.36.004,rantool2,2021.1.4,Win32,74.0521327,60ec2827fd1b1477d55ce969,60d9d14f4a8a35a482e0d9bf,60edefdbfec4daef84578eac,f,0,38,38,8,1,OOROOOO,OOROOOR,19.91402015,20.89823192,series_1,0.17488
,,,,,,,,60ec2827fd1b1477d55ce969,Kobieta,18,2021-07-13_21h58.36.004,rantool2,2021.1.4,Win32,74.0521327,60ec2827fd1b1477d55ce969,60d9d14f4a8a35a482e0d9bf,60edefdbfec4daef84578eac,j,0,39,39,38,1,ROORROO,ROORROR,21.79500819,21.36812781,series_0,0.160955
,,,,,,,,60ec2827fd1b1477d55ce969,Kobieta,18,2021-07-13_21h58.36.004,rantool2,2021.1.4,Win32,74.0521327,60ec2827fd1b1477d55ce969,60d9d14f4a8a35a482e0d9bf,60edefdbfec4daef84578eac,j,0,40,40,13,1,OORRORO,OORRORR,21.66733484,22.11181017,series_1,0.22959
,,,,,,,,60ec2827fd1b1477d55ce969,Kobieta,18,2021-07-13_21h58.36.004,rantool2,2021.1.4,Win32,74.0521327,60ec2827fd1b1477d55ce969,60d9d14f4a8a35a482e0d9bf,60edefdbfec4daef84578eac,f,0,41,41,28,1,ORRROOO,ORRROOR,22.24142883,22.53364006,series_1,0.17741
,,,,,,,,60ec2827fd1b1477d55ce969,Kobieta,18,2021-07-13_21h58.36.004,rantool2,2021.1.4,Win32,74.0521327,60ec2827fd1b1477d55ce969,60d9d14f4a8a35a482e0d9bf,60edefdbfec4daef84578eac,j,0,42,42,30,1,ORRRROO,ORRRROR,22.46748491,22.03072203,series_0,0.13504
,,,,,,,,60ec2827fd1b1477d55ce969,Kobieta,18,2021-07-13_21h58.36.004,rantool2,2021.1.4,Win32,74.0521327,60ec2827fd1b1477d55ce969,60d9d14f4a8a35a482e0d9bf,60edefdbfec4daef84578eac,f,0,43,43,29,1,ORRRORO,ORRRORR,22.00300695,22.12173012,series_1,0.148105
,,,,,,,,60ec2827fd1b1477d55ce969,Kobieta,18,2021-07-13_21h58.36.004,rantool2,2021.1.4,Win32,74.0521327,60ec2827fd1b1477d55ce969,60d9d14f4a8a35a482e0d9bf,60edefdbfec4daef84578eac,j,0,44,44,9,1,OOROORO,OOROORR,21.07991943,22.2428857,series_1,0.13417
,,,,,,,,60ec2827fd1b1477d55ce969,Kobieta,18,2021-07-13_21h58.36.004,rantool2,2021.1.4,Win32,74.0521327,60ec2827fd1b1477d55ce969,60d9d14f4a8a35a482e0d9bf,60edefdbfec4daef84578eac,f,0,45,45,21,1,ORORORO,ORORORR,20.39515459,22.06781359,series_1,0.16015
,,,,,,,,60ec2827fd1b1477d55ce969,Kobieta,18,2021-07-13_21h58.36.004,rantool2,2021.1.4,Win32,74.0521327,60ec2827fd1b1477d55ce969,60d9d14f4a8a35a482e0d9bf,60edefdbfec4daef84578eac,j,0,46,46,6,1,OOORROO,OOORROR,21.12383932,21.38562617,series_1,0.09514
,,,,,,,,60ec2827fd1b1477d55ce969,Kobieta,18,2021-07-13_21h58.36.004,rantool2,2021.1.4,Win32,74.0521327,60ec2827fd1b1477d55ce969,60d9d14f4a8a35a482e0d9bf,60edefdbfec4daef84578eac,f,0,47,47,14,1,OORRROO,OORRROR,22.24142883,22.16977179,series_0,0.14706
,,,,,,,,60ec2827fd1b1477d55ce969,Kobieta,18,2021-07-13_21h58.36.004,rantool2,2021.1.4,Win32,74.0521327,60ec2827fd1b1477d55ce969,60d9d14f4a8a35a482e0d9bf,60edefdbfec4daef84578eac,j,0,48,48,15,1,OORRRRO,OORRRRR,22.10108823,21.74922619,series_0,0.131035
,,,,,,,,60ec2827fd1b1477d55ce969,Kobieta,18,2021-07-13_21h58.36.004,rantool2,2021.1.4,Win32,74.0521327,60ec2827fd1b1477d55ce969,60d9d14f4a8a35a482e0d9bf,60edefdbfec4daef84578eac,f,0,49,49,46,1,RORRROO,RORRROR,22.00300695,21.24781509,series_0,0.216095
,,,,,,,,60ec2827fd1b1477d55ce969,Kobieta,18,2021-07-13_21h58.36.004,rantool2,2021.1.4,Win32,74.0521327,60ec2827fd1b1477d55ce969,60d9d14f4a8a35a482e0d9bf,60edefdbfec4daef84578eac,j,0,50,50,45,1,RORRORO,RORRORR,20.78182524,21.22513037,series_1,0.08087
,,,,,,,,60ec2827fd1b1477d55ce969,Kobieta,18,2021-07-13_21h58.36.004,rantool2,2021.1.4,Win32,74.0521327,60ec2827fd1b1477d55ce969,60d9d14f4a8a35a482e0d9bf,60edefdbfec4daef84578eac,f,0,51,51,60,1,RRRROOO,RRRROOR,22.10108823,22.15934078,series_1,0.16083
,,,,,,,,60ec2827fd1b1477d55ce969,Kobieta,18,2021-07-13_21h58.36.004,rantool2,2021.1.4,Win32,74.0521327,60ec2827fd1b1477d55ce969,60d9d14f4a8a35a482e0d9bf,60edefdbfec4daef84578eac,j,0,52,52,61,1,RRRRORO,RRRRORR,21.81333602,21.17347734,series_0,0.0939
,,,,,,,,60ec2827fd1b1477d55ce969,Kobieta,18,2021-07-13_21h58.36.004,rantool2,2021.1.4,Win32,74.0521327,60ec2827fd1b1477d55ce969,60d9d14f4a8a35a482e0d9bf,60edefdbfec4daef84578eac,f,0,53,53,36,1,ROOROOO,ROOROOR,21.07991943,20.9984461,series_0,0.13417
,,,,,,,,60ec2827fd1b1477d55ce969,Kobieta,18,2021-07-13_21h58.36.004,rantool2,2021.1.4,Win32,74.0521327,60ec2827fd1b1477d55ce969,60d9d14f4a8a35a482e0d9bf,60edefdbfec4daef84578eac,j,0,54,54,33,1,ROOOORO,ROOOORR,20.83779602,22.03072203,series_1,0.080515
,,,,,,,,60ec2827fd1b1477d55ce969,Kobieta,18,2021-07-13_21h58.36.004,rantool2,2021.1.4,Win32,74.0521327,60ec2827fd1b1477d55ce969,60d9d14f4a8a35a482e0d9bf,60edefdbfec4daef84578eac,f,0,55,55,44,1,RORROOO,RORROOR,21.66733484,22.02566557,series_1,0.121175
,,,,,,,,60ec2827fd1b1477d55ce969,Kobieta,18,2021-07-13_21h58.36.004,rantool2,2021.1.4,Win32,74.0521327,60ec2827fd1b1477d55ce969,60d9d14f4a8a35a482e0d9bf,60edefdbfec4daef84578eac,j,0,56,56,58,1,RRROROO,RRROROR,22.1285618,21.37121559,series_0,0.092395
,,,,,,,,60ec2827fd1b1477d55ce969,Kobieta,18,2021-07-13_21h58.36.004,rantool2,2021.1.4,Win32,74.0521327,60ec2827fd1b1477d55ce969,60d9d14f4a8a35a482e0d9bf,60edefdbfec4daef84578eac,f,0,57,57,10,1,OOROROO,OOROROR,21.31236711,21.07490964,series_0,0.185555
,,,,,,,,60ec2827fd1b1477d55ce969,Kobieta,18,2021-07-13_21h58.36.004,rantool2,2021.1.4,Win32,74.0521327,60ec2827fd1b1477d55ce969,60d9d14f4a8a35a482e0d9bf,60edefdbfec4daef84578eac,j,0,58,58,49,1,RROOORO,RROOORR,21.76276513,22.53364006,series_1,0.080855
,,,,,,,,60ec2827fd1b1477d55ce969,Kobieta,18,2021-07-13_21h58.36.004,rantool2,2021.1.4,Win32,74.0521327,60ec2827fd1b1477d55ce969,60d9d14f4a8a35a482e0d9bf,60edefdbfec4daef84578eac,f,0,59,59,55,1,RRORRRO,RRORRRR,21.56657303,21.21223021,series_0,0.187535
,,,,,,,,60ec2827fd1b1477d55ce969,Kobieta,18,2021-07-13_21h58.36.004,rantool2,2021.1.4,Win32,74.0521327,60ec2827fd1b1477d55ce969,60d9d14f4a8a35a482e0d9bf,60edefdbfec4daef84578eac,j,0,60,60,35,1,ROOORRO,ROOORRR,21.76276513,22.16977179,series_1,0.123045
,,,,,,,,60ec2827fd1b1477d55ce969,Kobieta,18,2021-07-13_21h58.36.004,rantool2,2021.1.4,Win32,74.0521327,60ec2827fd1b1477d55ce969,60d9d14f4a8a35a482e0d9bf,60edefdbfec4daef84578eac,j,0,61,61,41,1,ROROORO,ROROORR,20.42602454,21.71443381,series_1,0.294915
,,,,,,,,60ec2827fd1b1477d55ce969,Kobieta,18,2021-07-13_21h58.36.004,rantool2,2021.1.4,Win32,74.0521327,60ec2827fd1b1477d55ce969,60d9d14f4a8a35a482e0d9bf,60edefdbfec4daef84578eac,j,0,62,62,56,1,RRROOOO,RRROOOR,21.6194508,22.31681875,series_1,0.18793
,,,,,,,,60ec2827fd1b1477d55ce969,Kobieta,18,2021-07-13_21h58.36.004,rantool2,2021.1.4,Win32,74.0521327,60ec2827fd1b1477d55ce969,60d9d14f4a8a35a482e0d9bf,60edefdbfec4daef84578eac,j,0,63,63,18,1,OROOROO,OROOROR,20.84860893,21.22513037,series_1,0.18756
