key_resp_7.keys,key_resp_7.rt,trials_2.thisRepN,trials_2.thisTrialN,trials_2.thisN,trials_2.thisIndex,trials_2.ran,id,series_0,series_1,acss_0,acss_1,comparison,id*,Płeć*,Wiek*,date,expName,psychopyVersion,OS,frameRate,STUDY_ID,SESSION_ID,key_resp_5.keys,key_resp_5.corr,key_resp_5.rt,trials.thisRepN,trials.thisTrialN,trials.thisN,trials.thisIndex,trials.ran
f,3.382,0,0,0,14,1,612fa292299eb78f1bc9a082,OORRROO,OORRROR,22.24142883,22.16977179,series_0,612fa292299eb78f1bc9a082,Kobieta,18,2021-09-06_19h06.58.753,rantool2,2021.1.4,Win32,60.0240096,6135e006383e6ea6c3d06a28,613648d885dd041088272ed0,,,,,,,,
j,1.051,0,1,1,3,1,612fa292299eb78f1bc9a082,OOOORRO,OOOORRR,20.90986523,21.74922619,series_1,612fa292299eb78f1bc9a082,Kobieta,18,2021-09-06_19h06.58.753,rantool2,2021.1.4,Win32,60.0240096,6135e006383e6ea6c3d06a28,613648d885dd041088272ed0,,,,,,,,
f,0.935,0,2,2,18,1,612fa292299eb78f1bc9a082,OROOROO,OROOROR,20.84860893,21.22513037,series_1,612fa292299eb78f1bc9a082,Kobieta,18,2021-09-06_19h06.58.753,rantool2,2021.1.4,Win32,60.0240096,6135e006383e6ea6c3d06a28,613648d885dd041088272ed0,,,,,,,,
j,0.984,0,3,3,62,1,612fa292299eb78f1bc9a082,RRRRROO,RRRRROR,22.16413392,21.27974287,series_0,612fa292299eb78f1bc9a082,Kobieta,18,2021-09-06_19h06.58.753,rantool2,2021.1.4,Win32,60.0240096,6135e006383e6ea6c3d06a28,613648d885dd041088272ed0,,,,,,,,
f,1.036,0,4,4,34,1,612fa292299eb78f1bc9a082,ROOOROO,ROOOROR,21.03750787,21.24781509,series_1,612fa292299eb78f1bc9a082,Kobieta,18,2021-09-06_19h06.58.753,rantool2,2021.1.4,Win32,60.0240096,6135e006383e6ea6c3d06a28,613648d885dd041088272ed0,,,,,,,,
j,0.886,0,5,5,49,1,612fa292299eb78f1bc9a082,RROOORO,RROOORR,21.76276513,22.53364006,series_1,612fa292299eb78f1bc9a082,Kobieta,18,2021-09-06_19h06.58.753,rantool2,2021.1.4,Win32,60.0240096,6135e006383e6ea6c3d06a28,613648d885dd041088272ed0,,,,,,,,
f,0.951,0,6,6,29,1,612fa292299eb78f1bc9a082,ORRRORO,ORRRORR,22.00300695,22.12173012,series_1,612fa292299eb78f1bc9a082,Kobieta,18,2021-09-06_19h06.58.753,rantool2,2021.1.4,Win32,60.0240096,6135e006383e6ea6c3d06a28,613648d885dd041088272ed0,,,,,,,,
j,0.918,0,7,7,53,1,612fa292299eb78f1bc9a082,RRORORO,RRORORR,20.71309134,21.90565814,series_1,612fa292299eb78f1bc9a082,Kobieta,18,2021-09-06_19h06.58.753,rantool2,2021.1.4,Win32,60.0240096,6135e006383e6ea6c3d06a28,613648d885dd041088272ed0,,,,,,,,
f,1.352,0,8,8,63,1,612fa292299eb78f1bc9a082,RRRRRRO,RRRRRRR,21.35278725,19.62521613,series_0,612fa292299eb78f1bc9a082,Kobieta,18,2021-09-06_19h06.58.753,rantool2,2021.1.4,Win32,60.0240096,6135e006383e6ea6c3d06a28,613648d885dd041088272ed0,,,,,,,,
j,1.718,0,9,9,39,1,612fa292299eb78f1bc9a082,ROORRRO,ROORRRR,21.82425538,21.38562617,series_0,612fa292299eb78f1bc9a082,Kobieta,18,2021-09-06_19h06.58.753,rantool2,2021.1.4,Win32,60.0240096,6135e006383e6ea6c3d06a28,613648d885dd041088272ed0,,,,,,,,
f,1.555,0,10,10,40,1,612fa292299eb78f1bc9a082,ROROOOO,ROROOOR,20.87963819,21.37121559,series_1,612fa292299eb78f1bc9a082,Kobieta,18,2021-09-06_19h06.58.753,rantool2,2021.1.4,Win32,60.0240096,6135e006383e6ea6c3d06a28,613648d885dd041088272ed0,,,,,,,,
j,1.3,0,11,11,56,1,612fa292299eb78f1bc9a082,RRROOOO,RRROOOR,21.6194508,22.31681875,series_1,612fa292299eb78f1bc9a082,Kobieta,18,2021-09-06_19h06.58.753,rantool2,2021.1.4,Win32,60.0240096,6135e006383e6ea6c3d06a28,613648d885dd041088272ed0,,,,,,,,
f,0.818,0,12,12,15,1,612fa292299eb78f1bc9a082,OORRRRO,OORRRRR,22.10108823,21.74922619,series_0,612fa292299eb78f1bc9a082,Kobieta,18,2021-09-06_19h06.58.753,rantool2,2021.1.4,Win32,60.0240096,6135e006383e6ea6c3d06a28,613648d885dd041088272ed0,,,,,,,,
j,0.85,0,13,13,26,1,612fa292299eb78f1bc9a082,ORROROO,ORROROR,22.02732763,21.71443381,series_0,612fa292299eb78f1bc9a082,Kobieta,18,2021-09-06_19h06.58.753,rantool2,2021.1.4,Win32,60.0240096,6135e006383e6ea6c3d06a28,613648d885dd041088272ed0,,,,,,,,
f,0.819,0,14,14,54,1,612fa292299eb78f1bc9a082,RRORROO,RRORROR,21.55250791,20.9984461,series_0,612fa292299eb78f1bc9a082,Kobieta,18,2021-09-06_19h06.58.753,rantool2,2021.1.4,Win32,60.0240096,6135e006383e6ea6c3d06a28,613648d885dd041088272ed0,,,,,,,,
j,0.819,0,15,15,11,1,612fa292299eb78f1bc9a082,OORORRO,OORORRR,22.18365867,22.6797523,series_1,612fa292299eb78f1bc9a082,Kobieta,18,2021-09-06_19h06.58.753,rantool2,2021.1.4,Win32,60.0240096,6135e006383e6ea6c3d06a28,613648d885dd041088272ed0,,,,,,,,
f,1.094,0,16,16,41,1,612fa292299eb78f1bc9a082,ROROORO,ROROORR,20.42602454,21.71443381,series_1,612fa292299eb78f1bc9a082,Kobieta,18,2021-09-06_19h06.58.753,rantool2,2021.1.4,Win32,60.0240096,6135e006383e6ea6c3d06a28,613648d885dd041088272ed0,,,,,,,,
j,0.883,0,17,17,6,1,612fa292299eb78f1bc9a082,OOORROO,OOORROR,21.12383932,21.38562617,series_1,612fa292299eb78f1bc9a082,Kobieta,18,2021-09-06_19h06.58.753,rantool2,2021.1.4,Win32,60.0240096,6135e006383e6ea6c3d06a28,613648d885dd041088272ed0,,,,,,,,
f,0.884,0,18,18,36,1,612fa292299eb78f1bc9a082,ROOROOO,ROOROOR,21.07991943,20.9984461,series_0,612fa292299eb78f1bc9a082,Kobieta,18,2021-09-06_19h06.58.753,rantool2,2021.1.4,Win32,60.0240096,6135e006383e6ea6c3d06a28,613648d885dd041088272ed0,,,,,,,,
j,0.835,0,19,19,31,1,612fa292299eb78f1bc9a082,ORRRRRO,ORRRRRR,22.16413392,20.74050628,series_0,612fa292299eb78f1bc9a082,Kobieta,18,2021-09-06_19h06.58.753,rantool2,2021.1.4,Win32,60.0240096,6135e006383e6ea6c3d06a28,613648d885dd041088272ed0,,,,,,,,
f,1.468,0,20,20,44,1,612fa292299eb78f1bc9a082,RORROOO,RORROOR,21.66733484,22.02566557,series_1,612fa292299eb78f1bc9a082,Kobieta,18,2021-09-06_19h06.58.753,rantool2,2021.1.4,Win32,60.0240096,6135e006383e6ea6c3d06a28,613648d885dd041088272ed0,,,,,,,,
j,1.018,0,21,21,9,1,612fa292299eb78f1bc9a082,OOROORO,OOROORR,21.07991943,22.2428857,series_1,612fa292299eb78f1bc9a082,Kobieta,18,2021-09-06_19h06.58.753,rantool2,2021.1.4,Win32,60.0240096,6135e006383e6ea6c3d06a28,613648d885dd041088272ed0,,,,,,,,
f,1.018,0,22,22,21,1,612fa292299eb78f1bc9a082,ORORORO,ORORORR,20.39515459,22.06781359,series_1,612fa292299eb78f1bc9a082,Kobieta,18,2021-09-06_19h06.58.753,rantool2,2021.1.4,Win32,60.0240096,6135e006383e6ea6c3d06a28,613648d885dd041088272ed0,,,,,,,,
j,1.634,0,23,23,52,1,612fa292299eb78f1bc9a082,RROROOO,RROROOR,22.18365867,22.11097995,series_0,612fa292299eb78f1bc9a082,Kobieta,18,2021-09-06_19h06.58.753,rantool2,2021.1.4,Win32,60.0240096,6135e006383e6ea6c3d06a28,613648d885dd041088272ed0,,,,,,,,
f,1.069,0,24,24,35,1,612fa292299eb78f1bc9a082,ROOORRO,ROOORRR,21.76276513,22.16977179,series_1,612fa292299eb78f1bc9a082,Kobieta,18,2021-09-06_19h06.58.753,rantool2,2021.1.4,Win32,60.0240096,6135e006383e6ea6c3d06a28,613648d885dd041088272ed0,,,,,,,,
j,1.302,0,25,25,30,1,612fa292299eb78f1bc9a082,ORRRROO,ORRRROR,22.46748491,22.03072203,series_0,612fa292299eb78f1bc9a082,Kobieta,18,2021-09-06_19h06.58.753,rantool2,2021.1.4,Win32,60.0240096,6135e006383e6ea6c3d06a28,613648d885dd041088272ed0,,,,,,,,
f,0.835,0,26,26,58,1,612fa292299eb78f1bc9a082,RRROROO,RRROROR,22.1285618,21.37121559,series_0,612fa292299eb78f1bc9a082,Kobieta,18,2021-09-06_19h06.58.753,rantool2,2021.1.4,Win32,60.0240096,6135e006383e6ea6c3d06a28,613648d885dd041088272ed0,,,,,,,,
j,0.868,0,27,27,33,1,612fa292299eb78f1bc9a082,ROOOORO,ROOOORR,20.83779602,22.03072203,series_1,612fa292299eb78f1bc9a082,Kobieta,18,2021-09-06_19h06.58.753,rantool2,2021.1.4,Win32,60.0240096,6135e006383e6ea6c3d06a28,613648d885dd041088272ed0,,,,,,,,
f,1.003,0,28,28,43,1,612fa292299eb78f1bc9a082,RORORRO,RORORRR,20.71309134,21.07490964,series_1,612fa292299eb78f1bc9a082,Kobieta,18,2021-09-06_19h06.58.753,rantool2,2021.1.4,Win32,60.0240096,6135e006383e6ea6c3d06a28,613648d885dd041088272ed0,,,,,,,,
j,1.284,0,29,29,1,1,612fa292299eb78f1bc9a082,OOOOORO,OOOOORR,19.92253567,20.74050628,series_1,612fa292299eb78f1bc9a082,Kobieta,18,2021-09-06_19h06.58.753,rantool2,2021.1.4,Win32,60.0240096,6135e006383e6ea6c3d06a28,613648d885dd041088272ed0,,,,,,,,
f,0.984,0,30,30,8,1,612fa292299eb78f1bc9a082,OOROOOO,OOROOOR,19.91402015,20.89823192,series_1,612fa292299eb78f1bc9a082,Kobieta,18,2021-09-06_19h06.58.753,rantool2,2021.1.4,Win32,60.0240096,6135e006383e6ea6c3d06a28,613648d885dd041088272ed0,,,,,,,,
j,0.869,0,31,31,25,1,612fa292299eb78f1bc9a082,ORROORO,ORROORR,21.79500819,22.61624387,series_1,612fa292299eb78f1bc9a082,Kobieta,18,2021-09-06_19h06.58.753,rantool2,2021.1.4,Win32,60.0240096,6135e006383e6ea6c3d06a28,613648d885dd041088272ed0,,,,,,,,
f,0.835,0,32,32,42,1,612fa292299eb78f1bc9a082,ROROROO,ROROROR,20.39515459,19.8361834,series_0,612fa292299eb78f1bc9a082,Kobieta,18,2021-09-06_19h06.58.753,rantool2,2021.1.4,Win32,60.0240096,6135e006383e6ea6c3d06a28,613648d885dd041088272ed0,,,,,,,,
j,0.967,0,33,33,51,1,612fa292299eb78f1bc9a082,RROORRO,RROORRR,21.89852628,22.02786418,series_1,612fa292299eb78f1bc9a082,Kobieta,18,2021-09-06_19h06.58.753,rantool2,2021.1.4,Win32,60.0240096,6135e006383e6ea6c3d06a28,613648d885dd041088272ed0,,,,,,,,
f,1.167,0,34,34,46,1,612fa292299eb78f1bc9a082,RORRROO,RORRROR,22.00300695,21.24781509,series_0,612fa292299eb78f1bc9a082,Kobieta,18,2021-09-06_19h06.58.753,rantool2,2021.1.4,Win32,60.0240096,6135e006383e6ea6c3d06a28,613648d885dd041088272ed0,,,,,,,,
j,0.755,0,35,35,45,1,612fa292299eb78f1bc9a082,RORRORO,RORRORR,20.78182524,21.22513037,series_1,612fa292299eb78f1bc9a082,Kobieta,18,2021-09-06_19h06.58.753,rantool2,2021.1.4,Win32,60.0240096,6135e006383e6ea6c3d06a28,613648d885dd041088272ed0,,,,,,,,
f,1.553,0,36,36,47,1,612fa292299eb78f1bc9a082,RORRRRO,RORRRRR,21.81333602,21.02936224,series_0,612fa292299eb78f1bc9a082,Kobieta,18,2021-09-06_19h06.58.753,rantool2,2021.1.4,Win32,60.0240096,6135e006383e6ea6c3d06a28,613648d885dd041088272ed0,,,,,,,,
j,2.338,0,37,37,4,1,612fa292299eb78f1bc9a082,OOOROOO,OOOROOR,19.91402015,21.21223021,series_1,612fa292299eb78f1bc9a082,Kobieta,18,2021-09-06_19h06.58.753,rantool2,2021.1.4,Win32,60.0240096,6135e006383e6ea6c3d06a28,613648d885dd041088272ed0,,,,,,,,
f,1.701,0,38,38,10,1,612fa292299eb78f1bc9a082,OOROROO,OOROROR,21.31236711,21.07490964,series_0,612fa292299eb78f1bc9a082,Kobieta,18,2021-09-06_19h06.58.753,rantool2,2021.1.4,Win32,60.0240096,6135e006383e6ea6c3d06a28,613648d885dd041088272ed0,,,,,,,,
j,1.085,0,39,39,27,1,612fa292299eb78f1bc9a082,ORRORRO,ORRORRR,21.55250791,22.2428857,series_1,612fa292299eb78f1bc9a082,Kobieta,18,2021-09-06_19h06.58.753,rantool2,2021.1.4,Win32,60.0240096,6135e006383e6ea6c3d06a28,613648d885dd041088272ed0,,,,,,,,
f,0.934,0,40,40,20,1,612fa292299eb78f1bc9a082,OROROOO,OROROOR,21.31236711,21.90565814,series_1,612fa292299eb78f1bc9a082,Kobieta,18,2021-09-06_19h06.58.753,rantool2,2021.1.4,Win32,60.0240096,6135e006383e6ea6c3d06a28,613648d885dd041088272ed0,,,,,,,,
j,1.554,0,41,41,38,1,612fa292299eb78f1bc9a082,ROORROO,ROORROR,21.79500819,21.36812781,series_0,612fa292299eb78f1bc9a082,Kobieta,18,2021-09-06_19h06.58.753,rantool2,2021.1.4,Win32,60.0240096,6135e006383e6ea6c3d06a28,613648d885dd041088272ed0,,,,,,,,
f,0.881,0,42,42,7,1,612fa292299eb78f1bc9a082,OOORRRO,OOORRRR,21.6194508,21.899017,series_1,612fa292299eb78f1bc9a082,Kobieta,18,2021-09-06_19h06.58.753,rantool2,2021.1.4,Win32,60.0240096,6135e006383e6ea6c3d06a28,613648d885dd041088272ed0,,,,,,,,
j,1.153,0,43,43,12,1,612fa292299eb78f1bc9a082,OORROOO,OORROOR,21.30250474,22.02786418,series_1,612fa292299eb78f1bc9a082,Kobieta,18,2021-09-06_19h06.58.753,rantool2,2021.1.4,Win32,60.0240096,6135e006383e6ea6c3d06a28,613648d885dd041088272ed0,,,,,,,,
f,1.202,0,44,44,5,1,612fa292299eb78f1bc9a082,OOORORO,OOORORR,20.87963819,21.9921709,series_1,612fa292299eb78f1bc9a082,Kobieta,18,2021-09-06_19h06.58.753,rantool2,2021.1.4,Win32,60.0240096,6135e006383e6ea6c3d06a28,613648d885dd041088272ed0,,,,,,,,
j,1.562,0,45,45,0,1,612fa292299eb78f1bc9a082,OOOOOOO,OOOOOOR,18.52739004,19.62521613,series_1,612fa292299eb78f1bc9a082,Kobieta,18,2021-09-06_19h06.58.753,rantool2,2021.1.4,Win32,60.0240096,6135e006383e6ea6c3d06a28,613648d885dd041088272ed0,,,,,,,,
f,1.052,0,46,46,37,1,612fa292299eb78f1bc9a082,ROORORO,ROORORR,20.42602454,21.57657071,series_1,612fa292299eb78f1bc9a082,Kobieta,18,2021-09-06_19h06.58.753,rantool2,2021.1.4,Win32,60.0240096,6135e006383e6ea6c3d06a28,613648d885dd041088272ed0,,,,,,,,
j,1.066,0,47,47,55,1,612fa292299eb78f1bc9a082,RRORRRO,RRORRRR,21.56657303,21.21223021,series_0,612fa292299eb78f1bc9a082,Kobieta,18,2021-09-06_19h06.58.753,rantool2,2021.1.4,Win32,60.0240096,6135e006383e6ea6c3d06a28,613648d885dd041088272ed0,,,,,,,,
f,0.679,0,48,48,2,1,612fa292299eb78f1bc9a082,OOOOROO,OOOOROR,20.43051175,21.02936224,series_1,612fa292299eb78f1bc9a082,Kobieta,18,2021-09-06_19h06.58.753,rantool2,2021.1.4,Win32,60.0240096,6135e006383e6ea6c3d06a28,613648d885dd041088272ed0,,,,,,,,
j,1.067,0,49,49,61,1,612fa292299eb78f1bc9a082,RRRRORO,RRRRORR,21.81333602,21.17347734,series_0,612fa292299eb78f1bc9a082,Kobieta,18,2021-09-06_19h06.58.753,rantool2,2021.1.4,Win32,60.0240096,6135e006383e6ea6c3d06a28,613648d885dd041088272ed0,,,,,,,,
f,1.035,0,50,50,32,1,612fa292299eb78f1bc9a082,ROOOOOO,ROOOOOR,19.92253567,21.27974287,series_1,612fa292299eb78f1bc9a082,Kobieta,18,2021-09-06_19h06.58.753,rantool2,2021.1.4,Win32,60.0240096,6135e006383e6ea6c3d06a28,613648d885dd041088272ed0,,,,,,,,
j,1.058,0,51,51,19,1,612fa292299eb78f1bc9a082,OROORRO,OROORRR,21.73568164,22.11181017,series_1,612fa292299eb78f1bc9a082,Kobieta,18,2021-09-06_19h06.58.753,rantool2,2021.1.4,Win32,60.0240096,6135e006383e6ea6c3d06a28,613648d885dd041088272ed0,,,,,,,,
f,1.75,0,52,52,22,1,612fa292299eb78f1bc9a082,ORORROO,ORORROR,22.02732763,21.57657071,series_0,612fa292299eb78f1bc9a082,Kobieta,18,2021-09-06_19h06.58.753,rantool2,2021.1.4,Win32,60.0240096,6135e006383e6ea6c3d06a28,613648d885dd041088272ed0,,,,,,,,
j,1.585,0,53,53,50,1,612fa292299eb78f1bc9a082,RROOROO,RROOROR,21.73568164,22.02566557,series_1,612fa292299eb78f1bc9a082,Kobieta,18,2021-09-06_19h06.58.753,rantool2,2021.1.4,Win32,60.0240096,6135e006383e6ea6c3d06a28,613648d885dd041088272ed0,,,,,,,,
f,1.057,0,54,54,23,1,612fa292299eb78f1bc9a082,ORORRRO,ORORRRR,22.1285618,21.9921709,series_0,612fa292299eb78f1bc9a082,Kobieta,18,2021-09-06_19h06.58.753,rantool2,2021.1.4,Win32,60.0240096,6135e006383e6ea6c3d06a28,613648d885dd041088272ed0,,,,,,,,
j,1.765,0,55,55,60,1,612fa292299eb78f1bc9a082,RRRROOO,RRRROOR,22.10108823,22.15934078,series_1,612fa292299eb78f1bc9a082,Kobieta,18,2021-09-06_19h06.58.753,rantool2,2021.1.4,Win32,60.0240096,6135e006383e6ea6c3d06a28,613648d885dd041088272ed0,,,,,,,,
f,1.218,0,56,56,48,1,612fa292299eb78f1bc9a082,RROOOOO,RROOOOR,20.90986523,22.15934078,series_1,612fa292299eb78f1bc9a082,Kobieta,18,2021-09-06_19h06.58.753,rantool2,2021.1.4,Win32,60.0240096,6135e006383e6ea6c3d06a28,613648d885dd041088272ed0,,,,,,,,
j,1.269,0,57,57,16,1,612fa292299eb78f1bc9a082,OROOOOO,OROOOOR,20.43051175,21.17347734,series_1,612fa292299eb78f1bc9a082,Kobieta,18,2021-09-06_19h06.58.753,rantool2,2021.1.4,Win32,60.0240096,6135e006383e6ea6c3d06a28,613648d885dd041088272ed0,,,,,,,,
f,0.903,0,58,58,24,1,612fa292299eb78f1bc9a082,ORROOOO,ORROOOR,21.12383932,22.07102821,series_1,612fa292299eb78f1bc9a082,Kobieta,18,2021-09-06_19h06.58.753,rantool2,2021.1.4,Win32,60.0240096,6135e006383e6ea6c3d06a28,613648d885dd041088272ed0,,,,,,,,
j,0.956,0,59,59,59,1,612fa292299eb78f1bc9a082,RRRORRO,RRRORRR,21.56657303,20.89823192,series_0,612fa292299eb78f1bc9a082,Kobieta,18,2021-09-06_19h06.58.753,rantool2,2021.1.4,Win32,60.0240096,6135e006383e6ea6c3d06a28,613648d885dd041088272ed0,,,,,,,,
f,0.933,0,60,60,17,1,612fa292299eb78f1bc9a082,OROOORO,OROOORR,21.03750787,22.12173012,series_1,612fa292299eb78f1bc9a082,Kobieta,18,2021-09-06_19h06.58.753,rantool2,2021.1.4,Win32,60.0240096,6135e006383e6ea6c3d06a28,613648d885dd041088272ed0,,,,,,,,
j,0.984,0,61,61,57,1,612fa292299eb78f1bc9a082,RRROORO,RRROORR,21.82425538,22.07102821,series_1,612fa292299eb78f1bc9a082,Kobieta,18,2021-09-06_19h06.58.753,rantool2,2021.1.4,Win32,60.0240096,6135e006383e6ea6c3d06a28,613648d885dd041088272ed0,,,,,,,,
f,0.804,0,62,62,28,1,612fa292299eb78f1bc9a082,ORRROOO,ORRROOR,22.24142883,22.53364006,series_1,612fa292299eb78f1bc9a082,Kobieta,18,2021-09-06_19h06.58.753,rantool2,2021.1.4,Win32,60.0240096,6135e006383e6ea6c3d06a28,613648d885dd041088272ed0,,,,,,,,
j,0.901,0,63,63,13,1,612fa292299eb78f1bc9a082,OORRORO,OORRORR,21.66733484,22.11181017,series_1,612fa292299eb78f1bc9a082,Kobieta,18,2021-09-06_19h06.58.753,rantool2,2021.1.4,Win32,60.0240096,6135e006383e6ea6c3d06a28,613648d885dd041088272ed0,,,,,,,,
,,,,,,,612fa292299eb78f1bc9a082,,,,,,612fa292299eb78f1bc9a082,Kobieta,18,2021-09-06_19h06.58.753,rantool2,2021.1.4,Win32,60.0240096,6135e006383e6ea6c3d06a28,613648d885dd041088272ed0,"[""comma""]",0,[0.6450000000000102],0,0,0,0,1
,,,,,,,612fa292299eb78f1bc9a082,,,,,,612fa292299eb78f1bc9a082,Kobieta,18,2021-09-06_19h06.58.753,rantool2,2021.1.4,Win32,60.0240096,6135e006383e6ea6c3d06a28,613648d885dd041088272ed0,"[""comma""]",0,[0.2849999999999966],1,0,1,0,1
,,,,,,,612fa292299eb78f1bc9a082,,,,,,612fa292299eb78f1bc9a082,Kobieta,18,2021-09-06_19h06.58.753,rantool2,2021.1.4,Win32,60.0240096,6135e006383e6ea6c3d06a28,613648d885dd041088272ed0,"[""period""]",0,[0.20199999999999818],2,0,2,0,1
,,,,,,,612fa292299eb78f1bc9a082,,,,,,612fa292299eb78f1bc9a082,Kobieta,18,2021-09-06_19h06.58.753,rantool2,2021.1.4,Win32,60.0240096,6135e006383e6ea6c3d06a28,613648d885dd041088272ed0,"[""period""]",0,[0.23699999999999477],3,0,3,0,1
,,,,,,,612fa292299eb78f1bc9a082,,,,,,612fa292299eb78f1bc9a082,Kobieta,18,2021-09-06_19h06.58.753,rantool2,2021.1.4,Win32,60.0240096,6135e006383e6ea6c3d06a28,613648d885dd041088272ed0,"[""period""]",0,[0.10300000000000864],4,0,4,0,1
,,,,,,,612fa292299eb78f1bc9a082,,,,,,612fa292299eb78f1bc9a082,Kobieta,18,2021-09-06_19h06.58.753,rantool2,2021.1.4,Win32,60.0240096,6135e006383e6ea6c3d06a28,613648d885dd041088272ed0,"[""comma""]",0,[0.23500000000001364],5,0,5,0,1
,,,,,,,612fa292299eb78f1bc9a082,,,,,,612fa292299eb78f1bc9a082,Kobieta,18,2021-09-06_19h06.58.753,rantool2,2021.1.4,Win32,60.0240096,6135e006383e6ea6c3d06a28,613648d885dd041088272ed0,"[""period""]",0,[0.2190000000000225],6,0,6,0,1
,,,,,,,612fa292299eb78f1bc9a082,,,,,,612fa292299eb78f1bc9a082,Kobieta,18,2021-09-06_19h06.58.753,rantool2,2021.1.4,Win32,60.0240096,6135e006383e6ea6c3d06a28,613648d885dd041088272ed0,"[""period"",""period""]",0,"[0.18599999999997863,0.4679999999999893]",7,0,7,0,1
,,,,,,,612fa292299eb78f1bc9a082,,,,,,612fa292299eb78f1bc9a082,Kobieta,18,2021-09-06_19h06.58.753,rantool2,2021.1.4,Win32,60.0240096,6135e006383e6ea6c3d06a28,613648d885dd041088272ed0,"[""comma"",""comma""]",0,"[0.05200000000002092,1.950000000000017]",8,0,8,0,1
,,,,,,,612fa292299eb78f1bc9a082,,,,,,612fa292299eb78f1bc9a082,Kobieta,18,2021-09-06_19h06.58.753,rantool2,2021.1.4,Win32,60.0240096,6135e006383e6ea6c3d06a28,613648d885dd041088272ed0,0,0,,9,0,9,0,1
,,,,,,,612fa292299eb78f1bc9a082,,,,,,612fa292299eb78f1bc9a082,Kobieta,18,2021-09-06_19h06.58.753,rantool2,2021.1.4,Win32,60.0240096,6135e006383e6ea6c3d06a28,613648d885dd041088272ed0,"[""comma""]",0,[0.26200000000000045],10,0,10,0,1
,,,,,,,612fa292299eb78f1bc9a082,,,,,,612fa292299eb78f1bc9a082,Kobieta,18,2021-09-06_19h06.58.753,rantool2,2021.1.4,Win32,60.0240096,6135e006383e6ea6c3d06a28,613648d885dd041088272ed0,"[""comma""]",0,[0.23699999999999477],11,0,11,0,1
,,,,,,,612fa292299eb78f1bc9a082,,,,,,612fa292299eb78f1bc9a082,Kobieta,18,2021-09-06_19h06.58.753,rantool2,2021.1.4,Win32,60.0240096,6135e006383e6ea6c3d06a28,613648d885dd041088272ed0,"[""comma""]",0,[0.4679999999999893],12,0,12,0,1
,,,,,,,612fa292299eb78f1bc9a082,,,,,,612fa292299eb78f1bc9a082,Kobieta,18,2021-09-06_19h06.58.753,rantool2,2021.1.4,Win32,60.0240096,6135e006383e6ea6c3d06a28,613648d885dd041088272ed0,"[""period"",""comma""]",0,"[0.2680000000000007,1.9509999999999934]",13,0,13,0,1
,,,,,,,612fa292299eb78f1bc9a082,,,,,,612fa292299eb78f1bc9a082,Kobieta,18,2021-09-06_19h06.58.753,rantool2,2021.1.4,Win32,60.0240096,6135e006383e6ea6c3d06a28,613648d885dd041088272ed0,0,0,,14,0,14,0,1
,,,,,,,612fa292299eb78f1bc9a082,,,,,,612fa292299eb78f1bc9a082,Kobieta,18,2021-09-06_19h06.58.753,rantool2,2021.1.4,Win32,60.0240096,6135e006383e6ea6c3d06a28,613648d885dd041088272ed0,"[""comma""]",0,[0.06999999999999318],15,0,15,0,1
,,,,,,,612fa292299eb78f1bc9a082,,,,,,612fa292299eb78f1bc9a082,Kobieta,18,2021-09-06_19h06.58.753,rantool2,2021.1.4,Win32,60.0240096,6135e006383e6ea6c3d06a28,613648d885dd041088272ed0,"[""comma""]",0,[0.26900000000000546],16,0,16,0,1
,,,,,,,612fa292299eb78f1bc9a082,,,,,,612fa292299eb78f1bc9a082,Kobieta,18,2021-09-06_19h06.58.753,rantool2,2021.1.4,Win32,60.0240096,6135e006383e6ea6c3d06a28,613648d885dd041088272ed0,"[""comma""]",0,[0.23599999999999],17,0,17,0,1
,,,,,,,612fa292299eb78f1bc9a082,,,,,,612fa292299eb78f1bc9a082,Kobieta,18,2021-09-06_19h06.58.753,rantool2,2021.1.4,Win32,60.0240096,6135e006383e6ea6c3d06a28,613648d885dd041088272ed0,"[""comma""]",0,[0.25200000000000955],18,0,18,0,1
,,,,,,,612fa292299eb78f1bc9a082,,,,,,612fa292299eb78f1bc9a082,Kobieta,18,2021-09-06_19h06.58.753,rantool2,2021.1.4,Win32,60.0240096,6135e006383e6ea6c3d06a28,613648d885dd041088272ed0,"[""comma""]",0,[0.26900000000000546],19,0,19,0,1
,,,,,,,612fa292299eb78f1bc9a082,,,,,,612fa292299eb78f1bc9a082,Kobieta,18,2021-09-06_19h06.58.753,rantool2,2021.1.4,Win32,60.0240096,6135e006383e6ea6c3d06a28,613648d885dd041088272ed0,"[""period""]",0,[0.2540000000000191],20,0,20,0,1
,,,,,,,612fa292299eb78f1bc9a082,,,,,,612fa292299eb78f1bc9a082,Kobieta,18,2021-09-06_19h06.58.753,rantool2,2021.1.4,Win32,60.0240096,6135e006383e6ea6c3d06a28,613648d885dd041088272ed0,"[""comma""]",0,[0.3190000000000168],21,0,21,0,1
,,,,,,,612fa292299eb78f1bc9a082,,,,,,612fa292299eb78f1bc9a082,Kobieta,18,2021-09-06_19h06.58.753,rantool2,2021.1.4,Win32,60.0240096,6135e006383e6ea6c3d06a28,613648d885dd041088272ed0,"[""period""]",0,[0.2510000000000048],22,0,22,0,1
,,,,,,,612fa292299eb78f1bc9a082,,,,,,612fa292299eb78f1bc9a082,Kobieta,18,2021-09-06_19h06.58.753,rantool2,2021.1.4,Win32,60.0240096,6135e006383e6ea6c3d06a28,613648d885dd041088272ed0,"[""period""]",0,[0.2530000000000143],23,0,23,0,1
,,,,,,,612fa292299eb78f1bc9a082,,,,,,612fa292299eb78f1bc9a082,Kobieta,18,2021-09-06_19h06.58.753,rantool2,2021.1.4,Win32,60.0240096,6135e006383e6ea6c3d06a28,613648d885dd041088272ed0,"[""period""]",0,[0.10300000000000864],24,0,24,0,1
,,,,,,,612fa292299eb78f1bc9a082,,,,,,612fa292299eb78f1bc9a082,Kobieta,18,2021-09-06_19h06.58.753,rantool2,2021.1.4,Win32,60.0240096,6135e006383e6ea6c3d06a28,613648d885dd041088272ed0,"[""comma""]",0,[0.25200000000000955],25,0,25,0,1
,,,,,,,612fa292299eb78f1bc9a082,,,,,,612fa292299eb78f1bc9a082,Kobieta,18,2021-09-06_19h06.58.753,rantool2,2021.1.4,Win32,60.0240096,6135e006383e6ea6c3d06a28,613648d885dd041088272ed0,"[""comma""]",0,[0.35200000000000387],26,0,26,0,1
,,,,,,,612fa292299eb78f1bc9a082,,,,,,612fa292299eb78f1bc9a082,Kobieta,18,2021-09-06_19h06.58.753,rantool2,2021.1.4,Win32,60.0240096,6135e006383e6ea6c3d06a28,613648d885dd041088272ed0,"[""period""]",0,[0.2680000000000007],27,0,27,0,1
,,,,,,,612fa292299eb78f1bc9a082,,,,,,612fa292299eb78f1bc9a082,Kobieta,18,2021-09-06_19h06.58.753,rantool2,2021.1.4,Win32,60.0240096,6135e006383e6ea6c3d06a28,613648d885dd041088272ed0,"[""period""]",0,[0.23600000000001842],28,0,28,0,1
,,,,,,,612fa292299eb78f1bc9a082,,,,,,612fa292299eb78f1bc9a082,Kobieta,18,2021-09-06_19h06.58.753,rantool2,2021.1.4,Win32,60.0240096,6135e006383e6ea6c3d06a28,613648d885dd041088272ed0,"[""period""]",0,[0.16800000000000637],29,0,29,0,1
,,,,,,,612fa292299eb78f1bc9a082,,,,,,612fa292299eb78f1bc9a082,Kobieta,18,2021-09-06_19h06.58.753,rantool2,2021.1.4,Win32,60.0240096,6135e006383e6ea6c3d06a28,613648d885dd041088272ed0,"[""period""]",0,[0.28400000000002024],30,0,30,0,1
,,,,,,,612fa292299eb78f1bc9a082,,,,,,612fa292299eb78f1bc9a082,Kobieta,18,2021-09-06_19h06.58.753,rantool2,2021.1.4,Win32,60.0240096,6135e006383e6ea6c3d06a28,613648d885dd041088272ed0,"[""comma""]",0,[0.2179999999999893],31,0,31,0,1
,,,,,,,612fa292299eb78f1bc9a082,,,,,,612fa292299eb78f1bc9a082,Kobieta,18,2021-09-06_19h06.58.753,rantool2,2021.1.4,Win32,60.0240096,6135e006383e6ea6c3d06a28,613648d885dd041088272ed0,"[""comma""]",0,[0.23399999999998045],32,0,32,0,1
,,,,,,,612fa292299eb78f1bc9a082,,,,,,612fa292299eb78f1bc9a082,Kobieta,18,2021-09-06_19h06.58.753,rantool2,2021.1.4,Win32,60.0240096,6135e006383e6ea6c3d06a28,613648d885dd041088272ed0,"[""period""]",0,[0.31799999999998363],33,0,33,0,1
,,,,,,,612fa292299eb78f1bc9a082,,,,,,612fa292299eb78f1bc9a082,Kobieta,18,2021-09-06_19h06.58.753,rantool2,2021.1.4,Win32,60.0240096,6135e006383e6ea6c3d06a28,613648d885dd041088272ed0,"[""comma""]",0,[0.28600000000000136],34,0,34,0,1
,,,,,,,612fa292299eb78f1bc9a082,,,,,,612fa292299eb78f1bc9a082,Kobieta,18,2021-09-06_19h06.58.753,rantool2,2021.1.4,Win32,60.0240096,6135e006383e6ea6c3d06a28,613648d885dd041088272ed0,"[""comma""]",0,[0.27000000000001023],35,0,35,0,1
,,,,,,,612fa292299eb78f1bc9a082,,,,,,612fa292299eb78f1bc9a082,Kobieta,18,2021-09-06_19h06.58.753,rantool2,2021.1.4,Win32,60.0240096,6135e006383e6ea6c3d06a28,613648d885dd041088272ed0,"[""period""]",0,[0.27000000000001023],36,0,36,0,1
,,,,,,,612fa292299eb78f1bc9a082,,,,,,612fa292299eb78f1bc9a082,Kobieta,18,2021-09-06_19h06.58.753,rantool2,2021.1.4,Win32,60.0240096,6135e006383e6ea6c3d06a28,613648d885dd041088272ed0,"[""period""]",0,[0.2849999999999966],37,0,37,0,1
,,,,,,,612fa292299eb78f1bc9a082,,,,,,612fa292299eb78f1bc9a082,Kobieta,18,2021-09-06_19h06.58.753,rantool2,2021.1.4,Win32,60.0240096,6135e006383e6ea6c3d06a28,613648d885dd041088272ed0,"[""period""]",0,[0.26900000000000546],38,0,38,0,1
,,,,,,,612fa292299eb78f1bc9a082,,,,,,612fa292299eb78f1bc9a082,Kobieta,18,2021-09-06_19h06.58.753,rantool2,2021.1.4,Win32,60.0240096,6135e006383e6ea6c3d06a28,613648d885dd041088272ed0,"[""period""]",0,[0.23499999999998522],39,0,39,0,1
,,,,,,,612fa292299eb78f1bc9a082,,,,,,612fa292299eb78f1bc9a082,Kobieta,18,2021-09-06_19h06.58.753,rantool2,2021.1.4,Win32,60.0240096,6135e006383e6ea6c3d06a28,613648d885dd041088272ed0,"[""period""]",0,[0.26900000000000546],40,0,40,0,1
,,,,,,,612fa292299eb78f1bc9a082,,,,,,612fa292299eb78f1bc9a082,Kobieta,18,2021-09-06_19h06.58.753,rantool2,2021.1.4,Win32,60.0240096,6135e006383e6ea6c3d06a28,613648d885dd041088272ed0,"[""period""]",0,[0.25],41,0,41,0,1
,,,,,,,612fa292299eb78f1bc9a082,,,,,,612fa292299eb78f1bc9a082,Kobieta,18,2021-09-06_19h06.58.753,rantool2,2021.1.4,Win32,60.0240096,6135e006383e6ea6c3d06a28,613648d885dd041088272ed0,"[""comma""]",0,[0.21999999999999886],42,0,42,0,1
,,,,,,,612fa292299eb78f1bc9a082,,,,,,612fa292299eb78f1bc9a082,Kobieta,18,2021-09-06_19h06.58.753,rantool2,2021.1.4,Win32,60.0240096,6135e006383e6ea6c3d06a28,613648d885dd041088272ed0,"[""period""]",0,[0.2530000000000143],43,0,43,0,1
,,,,,,,612fa292299eb78f1bc9a082,,,,,,612fa292299eb78f1bc9a082,Kobieta,18,2021-09-06_19h06.58.753,rantool2,2021.1.4,Win32,60.0240096,6135e006383e6ea6c3d06a28,613648d885dd041088272ed0,"[""comma""]",0,[0.27000000000001023],44,0,44,0,1
,,,,,,,612fa292299eb78f1bc9a082,,,,,,612fa292299eb78f1bc9a082,Kobieta,18,2021-09-06_19h06.58.753,rantool2,2021.1.4,Win32,60.0240096,6135e006383e6ea6c3d06a28,613648d885dd041088272ed0,"[""comma""]",0,[0.26900000000000546],45,0,45,0,1
,,,,,,,612fa292299eb78f1bc9a082,,,,,,612fa292299eb78f1bc9a082,Kobieta,18,2021-09-06_19h06.58.753,rantool2,2021.1.4,Win32,60.0240096,6135e006383e6ea6c3d06a28,613648d885dd041088272ed0,"[""period""]",0,[0.3020000000000209],46,0,46,0,1
,,,,,,,612fa292299eb78f1bc9a082,,,,,,612fa292299eb78f1bc9a082,Kobieta,18,2021-09-06_19h06.58.753,rantool2,2021.1.4,Win32,60.0240096,6135e006383e6ea6c3d06a28,613648d885dd041088272ed0,"[""period""]",0,[0.2709999999999866],47,0,47,0,1
,,,,,,,612fa292299eb78f1bc9a082,,,,,,612fa292299eb78f1bc9a082,Kobieta,18,2021-09-06_19h06.58.753,rantool2,2021.1.4,Win32,60.0240096,6135e006383e6ea6c3d06a28,613648d885dd041088272ed0,"[""period""]",0,[0.28300000000001546],48,0,48,0,1
,,,,,,,612fa292299eb78f1bc9a082,,,,,,612fa292299eb78f1bc9a082,Kobieta,18,2021-09-06_19h06.58.753,rantool2,2021.1.4,Win32,60.0240096,6135e006383e6ea6c3d06a28,613648d885dd041088272ed0,"[""period""]",0,[0.2530000000000143],49,0,49,0,1
,,,,,,,612fa292299eb78f1bc9a082,,,,,,612fa292299eb78f1bc9a082,Kobieta,18,2021-09-06_19h06.58.753,rantool2,2021.1.4,Win32,60.0240096,6135e006383e6ea6c3d06a28,613648d885dd041088272ed0,"[""period""]",0,[0.2530000000000143],50,0,50,0,1
,,,,,,,612fa292299eb78f1bc9a082,,,,,,612fa292299eb78f1bc9a082,Kobieta,18,2021-09-06_19h06.58.753,rantool2,2021.1.4,Win32,60.0240096,6135e006383e6ea6c3d06a28,613648d885dd041088272ed0,"[""comma""]",0,[0.23400000000000887],51,0,51,0,1
,,,,,,,612fa292299eb78f1bc9a082,,,,,,612fa292299eb78f1bc9a082,Kobieta,18,2021-09-06_19h06.58.753,rantool2,2021.1.4,Win32,60.0240096,6135e006383e6ea6c3d06a28,613648d885dd041088272ed0,"[""period""]",0,[0.2600000000000193],52,0,52,0,1
,,,,,,,612fa292299eb78f1bc9a082,,,,,,612fa292299eb78f1bc9a082,Kobieta,18,2021-09-06_19h06.58.753,rantool2,2021.1.4,Win32,60.0240096,6135e006383e6ea6c3d06a28,613648d885dd041088272ed0,"[""comma""]",0,[0.25199999999998113],53,0,53,0,1
,,,,,,,612fa292299eb78f1bc9a082,,,,,,612fa292299eb78f1bc9a082,Kobieta,18,2021-09-06_19h06.58.753,rantool2,2021.1.4,Win32,60.0240096,6135e006383e6ea6c3d06a28,613648d885dd041088272ed0,"[""period""]",0,[0.2650000000000148],54,0,54,0,1
,,,,,,,612fa292299eb78f1bc9a082,,,,,,612fa292299eb78f1bc9a082,Kobieta,18,2021-09-06_19h06.58.753,rantool2,2021.1.4,Win32,60.0240096,6135e006383e6ea6c3d06a28,613648d885dd041088272ed0,"[""comma""]",0,[0.2009999999999934],55,0,55,0,1
,,,,,,,612fa292299eb78f1bc9a082,,,,,,612fa292299eb78f1bc9a082,Kobieta,18,2021-09-06_19h06.58.753,rantool2,2021.1.4,Win32,60.0240096,6135e006383e6ea6c3d06a28,613648d885dd041088272ed0,"[""comma""]",0,[0.2539999999999907],56,0,56,0,1
,,,,,,,612fa292299eb78f1bc9a082,,,,,,612fa292299eb78f1bc9a082,Kobieta,18,2021-09-06_19h06.58.753,rantool2,2021.1.4,Win32,60.0240096,6135e006383e6ea6c3d06a28,613648d885dd041088272ed0,"[""period""]",0,[0.21999999999999886],57,0,57,0,1
,,,,,,,612fa292299eb78f1bc9a082,,,,,,612fa292299eb78f1bc9a082,Kobieta,18,2021-09-06_19h06.58.753,rantool2,2021.1.4,Win32,60.0240096,6135e006383e6ea6c3d06a28,613648d885dd041088272ed0,"[""comma""]",0,[0.23599999999999],58,0,58,0,1
,,,,,,,612fa292299eb78f1bc9a082,,,,,,612fa292299eb78f1bc9a082,Kobieta,18,2021-09-06_19h06.58.753,rantool2,2021.1.4,Win32,60.0240096,6135e006383e6ea6c3d06a28,613648d885dd041088272ed0,"[""comma""]",0,[0.23599999999999],59,0,59,0,1
,,,,,,,612fa292299eb78f1bc9a082,,,,,,612fa292299eb78f1bc9a082,Kobieta,18,2021-09-06_19h06.58.753,rantool2,2021.1.4,Win32,60.0240096,6135e006383e6ea6c3d06a28,613648d885dd041088272ed0,"[""comma""]",0,[0.2669999999999959],60,0,60,0,1
,,,,,,,612fa292299eb78f1bc9a082,,,,,,612fa292299eb78f1bc9a082,Kobieta,18,2021-09-06_19h06.58.753,rantool2,2021.1.4,Win32,60.0240096,6135e006383e6ea6c3d06a28,613648d885dd041088272ed0,"[""comma""]",0,[0.23499999999998522],61,0,61,0,1
,,,,,,,612fa292299eb78f1bc9a082,,,,,,612fa292299eb78f1bc9a082,Kobieta,18,2021-09-06_19h06.58.753,rantool2,2021.1.4,Win32,60.0240096,6135e006383e6ea6c3d06a28,613648d885dd041088272ed0,"[""comma""]",0,[0.23500000000001364],62,0,62,0,1
,,,,,,,612fa292299eb78f1bc9a082,,,,,,612fa292299eb78f1bc9a082,Kobieta,18,2021-09-06_19h06.58.753,rantool2,2021.1.4,Win32,60.0240096,6135e006383e6ea6c3d06a28,613648d885dd041088272ed0,"[""period""]",0,[0.20800000000002683],63,0,63,0,1
,,,,,,,612fa292299eb78f1bc9a082,,,,,,612fa292299eb78f1bc9a082,Kobieta,18,2021-09-06_19h06.58.753,rantool2,2021.1.4,Win32,60.0240096,6135e006383e6ea6c3d06a28,613648d885dd041088272ed0,"[""period""]",0,[0.23499999999998522],64,0,64,0,1
,,,,,,,612fa292299eb78f1bc9a082,,,,,,612fa292299eb78f1bc9a082,Kobieta,18,2021-09-06_19h06.58.753,rantool2,2021.1.4,Win32,60.0240096,6135e006383e6ea6c3d06a28,613648d885dd041088272ed0,"[""period""]",0,[0.26900000000000546],65,0,65,0,1
,,,,,,,612fa292299eb78f1bc9a082,,,,,,612fa292299eb78f1bc9a082,Kobieta,18,2021-09-06_19h06.58.753,rantool2,2021.1.4,Win32,60.0240096,6135e006383e6ea6c3d06a28,613648d885dd041088272ed0,"[""period""]",0,[0.25200000000000955],66,0,66,0,1
,,,,,,,612fa292299eb78f1bc9a082,,,,,,612fa292299eb78f1bc9a082,Kobieta,18,2021-09-06_19h06.58.753,rantool2,2021.1.4,Win32,60.0240096,6135e006383e6ea6c3d06a28,613648d885dd041088272ed0,"[""period""]",0,[0.2529999999999859],67,0,67,0,1
,,,,,,,612fa292299eb78f1bc9a082,,,,,,612fa292299eb78f1bc9a082,Kobieta,18,2021-09-06_19h06.58.753,rantool2,2021.1.4,Win32,60.0240096,6135e006383e6ea6c3d06a28,613648d885dd041088272ed0,"[""comma""]",0,[0.25200000000000955],68,0,68,0,1
,,,,,,,612fa292299eb78f1bc9a082,,,,,,612fa292299eb78f1bc9a082,Kobieta,18,2021-09-06_19h06.58.753,rantool2,2021.1.4,Win32,60.0240096,6135e006383e6ea6c3d06a28,613648d885dd041088272ed0,"[""comma""]",0,[0.25099999999997635],69,0,69,0,1
,,,,,,,612fa292299eb78f1bc9a082,,,,,,612fa292299eb78f1bc9a082,Kobieta,18,2021-09-06_19h06.58.753,rantool2,2021.1.4,Win32,60.0240096,6135e006383e6ea6c3d06a28,613648d885dd041088272ed0,"[""period""]",0,[0.0009999999999763531],70,0,70,0,1
,,,,,,,612fa292299eb78f1bc9a082,,,,,,612fa292299eb78f1bc9a082,Kobieta,18,2021-09-06_19h06.58.753,rantool2,2021.1.4,Win32,60.0240096,6135e006383e6ea6c3d06a28,613648d885dd041088272ed0,"[""comma""]",0,[0.2599999999999909],71,0,71,0,1
,,,,,,,612fa292299eb78f1bc9a082,,,,,,612fa292299eb78f1bc9a082,Kobieta,18,2021-09-06_19h06.58.753,rantool2,2021.1.4,Win32,60.0240096,6135e006383e6ea6c3d06a28,613648d885dd041088272ed0,"[""period""]",0,[0.26799999999997226],72,0,72,0,1
,,,,,,,612fa292299eb78f1bc9a082,,,,,,612fa292299eb78f1bc9a082,Kobieta,18,2021-09-06_19h06.58.753,rantool2,2021.1.4,Win32,60.0240096,6135e006383e6ea6c3d06a28,613648d885dd041088272ed0,"[""period""]",0,[0.31899999999996],73,0,73,0,1
,,,,,,,612fa292299eb78f1bc9a082,,,,,,612fa292299eb78f1bc9a082,Kobieta,18,2021-09-06_19h06.58.753,rantool2,2021.1.4,Win32,60.0240096,6135e006383e6ea6c3d06a28,613648d885dd041088272ed0,"[""comma""]",0,[0.28600000000000136],74,0,74,0,1
,,,,,,,612fa292299eb78f1bc9a082,,,,,,612fa292299eb78f1bc9a082,Kobieta,18,2021-09-06_19h06.58.753,rantool2,2021.1.4,Win32,60.0240096,6135e006383e6ea6c3d06a28,613648d885dd041088272ed0,"[""period""]",0,[0.25200000000000955],75,0,75,0,1
,,,,,,,612fa292299eb78f1bc9a082,,,,,,612fa292299eb78f1bc9a082,Kobieta,18,2021-09-06_19h06.58.753,rantool2,2021.1.4,Win32,60.0240096,6135e006383e6ea6c3d06a28,613648d885dd041088272ed0,"[""period""]",0,[0.23599999999999],76,0,76,0,1
,,,,,,,612fa292299eb78f1bc9a082,,,,,,612fa292299eb78f1bc9a082,Kobieta,18,2021-09-06_19h06.58.753,rantool2,2021.1.4,Win32,60.0240096,6135e006383e6ea6c3d06a28,613648d885dd041088272ed0,"[""period""]",0,[0.28600000000000136],77,0,77,0,1
,,,,,,,612fa292299eb78f1bc9a082,,,,,,612fa292299eb78f1bc9a082,Kobieta,18,2021-09-06_19h06.58.753,rantool2,2021.1.4,Win32,60.0240096,6135e006383e6ea6c3d06a28,613648d885dd041088272ed0,"[""comma""]",0,[0.26900000000000546],78,0,78,0,1
,,,,,,,612fa292299eb78f1bc9a082,,,,,,612fa292299eb78f1bc9a082,Kobieta,18,2021-09-06_19h06.58.753,rantool2,2021.1.4,Win32,60.0240096,6135e006383e6ea6c3d06a28,613648d885dd041088272ed0,"[""comma""]",0,[0.23500000000001364],79,0,79,0,1
,,,,,,,612fa292299eb78f1bc9a082,,,,,,612fa292299eb78f1bc9a082,Kobieta,18,2021-09-06_19h06.58.753,rantool2,2021.1.4,Win32,60.0240096,6135e006383e6ea6c3d06a28,613648d885dd041088272ed0,"[""comma""]",0,[0.27000000000003865],80,0,80,0,1
,,,,,,,612fa292299eb78f1bc9a082,,,,,,612fa292299eb78f1bc9a082,Kobieta,18,2021-09-06_19h06.58.753,rantool2,2021.1.4,Win32,60.0240096,6135e006383e6ea6c3d06a28,613648d885dd041088272ed0,"[""period""]",0,[0.27000000000003865],81,0,81,0,1
,,,,,,,612fa292299eb78f1bc9a082,,,,,,612fa292299eb78f1bc9a082,Kobieta,18,2021-09-06_19h06.58.753,rantool2,2021.1.4,Win32,60.0240096,6135e006383e6ea6c3d06a28,613648d885dd041088272ed0,"[""comma""]",0,[0.33600000000001273],82,0,82,0,1
,,,,,,,612fa292299eb78f1bc9a082,,,,,,612fa292299eb78f1bc9a082,Kobieta,18,2021-09-06_19h06.58.753,rantool2,2021.1.4,Win32,60.0240096,6135e006383e6ea6c3d06a28,613648d885dd041088272ed0,"[""comma""]",0,[0.4689999999999941],83,0,83,0,1
,,,,,,,612fa292299eb78f1bc9a082,,,,,,612fa292299eb78f1bc9a082,Kobieta,18,2021-09-06_19h06.58.753,rantool2,2021.1.4,Win32,60.0240096,6135e006383e6ea6c3d06a28,613648d885dd041088272ed0,"[""period""]",0,[0.33899999999999864],84,0,84,0,1
,,,,,,,612fa292299eb78f1bc9a082,,,,,,612fa292299eb78f1bc9a082,Kobieta,18,2021-09-06_19h06.58.753,rantool2,2021.1.4,Win32,60.0240096,6135e006383e6ea6c3d06a28,613648d885dd041088272ed0,"[""comma""]",0,[0.25200000000000955],85,0,85,0,1
,,,,,,,612fa292299eb78f1bc9a082,,,,,,612fa292299eb78f1bc9a082,Kobieta,18,2021-09-06_19h06.58.753,rantool2,2021.1.4,Win32,60.0240096,6135e006383e6ea6c3d06a28,613648d885dd041088272ed0,"[""comma""]",0,[0.2680000000000291],86,0,86,0,1
,,,,,,,612fa292299eb78f1bc9a082,,,,,,612fa292299eb78f1bc9a082,Kobieta,18,2021-09-06_19h06.58.753,rantool2,2021.1.4,Win32,60.0240096,6135e006383e6ea6c3d06a28,613648d885dd041088272ed0,"[""period""]",0,[0.2529999999999859],87,0,87,0,1
,,,,,,,612fa292299eb78f1bc9a082,,,,,,612fa292299eb78f1bc9a082,Kobieta,18,2021-09-06_19h06.58.753,rantool2,2021.1.4,Win32,60.0240096,6135e006383e6ea6c3d06a28,613648d885dd041088272ed0,"[""period"",""comma""]",0,"[0.27000000000003865,1.6180000000000518]",88,0,88,0,1
,,,,,,,612fa292299eb78f1bc9a082,,,,,,612fa292299eb78f1bc9a082,Kobieta,18,2021-09-06_19h06.58.753,rantool2,2021.1.4,Win32,60.0240096,6135e006383e6ea6c3d06a28,613648d885dd041088272ed0,"[""comma""]",0,[0.8849999999999909],89,0,89,0,1
,,,,,,,612fa292299eb78f1bc9a082,,,,,,612fa292299eb78f1bc9a082,Kobieta,18,2021-09-06_19h06.58.753,rantool2,2021.1.4,Win32,60.0240096,6135e006383e6ea6c3d06a28,613648d885dd041088272ed0,"[""comma""]",0,[0.2370000000000232],90,0,90,0,1
,,,,,,,612fa292299eb78f1bc9a082,,,,,,612fa292299eb78f1bc9a082,Kobieta,18,2021-09-06_19h06.58.753,rantool2,2021.1.4,Win32,60.0240096,6135e006383e6ea6c3d06a28,613648d885dd041088272ed0,"[""period""]",0,[0.08600000000001273],91,0,91,0,1
,,,,,,,612fa292299eb78f1bc9a082,,,,,,612fa292299eb78f1bc9a082,Kobieta,18,2021-09-06_19h06.58.753,rantool2,2021.1.4,Win32,60.0240096,6135e006383e6ea6c3d06a28,613648d885dd041088272ed0,"[""period""]",0,[0.2740000000000009],92,0,92,0,1
,,,,,,,612fa292299eb78f1bc9a082,,,,,,612fa292299eb78f1bc9a082,Kobieta,18,2021-09-06_19h06.58.753,rantool2,2021.1.4,Win32,60.0240096,6135e006383e6ea6c3d06a28,613648d885dd041088272ed0,"[""comma""]",0,[0.23599999999999],93,0,93,0,1
,,,,,,,612fa292299eb78f1bc9a082,,,,,,612fa292299eb78f1bc9a082,Kobieta,18,2021-09-06_19h06.58.753,rantool2,2021.1.4,Win32,60.0240096,6135e006383e6ea6c3d06a28,613648d885dd041088272ed0,"[""comma""]",0,[0.3020000000000209],94,0,94,0,1
,,,,,,,612fa292299eb78f1bc9a082,,,,,,612fa292299eb78f1bc9a082,Kobieta,18,2021-09-06_19h06.58.753,rantool2,2021.1.4,Win32,60.0240096,6135e006383e6ea6c3d06a28,613648d885dd041088272ed0,"[""comma""]",0,[0.33600000000001273],95,0,95,0,1
,,,,,,,612fa292299eb78f1bc9a082,,,,,,612fa292299eb78f1bc9a082,Kobieta,18,2021-09-06_19h06.58.753,rantool2,2021.1.4,Win32,60.0240096,6135e006383e6ea6c3d06a28,613648d885dd041088272ed0,"[""period""]",0,[0.2510000000000332],96,0,96,0,1
,,,,,,,612fa292299eb78f1bc9a082,,,,,,612fa292299eb78f1bc9a082,Kobieta,18,2021-09-06_19h06.58.753,rantool2,2021.1.4,Win32,60.0240096,6135e006383e6ea6c3d06a28,613648d885dd041088272ed0,"[""comma""]",0,[0.25200000000000955],97,0,97,0,1
,,,,,,,612fa292299eb78f1bc9a082,,,,,,612fa292299eb78f1bc9a082,Kobieta,18,2021-09-06_19h06.58.753,rantool2,2021.1.4,Win32,60.0240096,6135e006383e6ea6c3d06a28,613648d885dd041088272ed0,"[""comma""]",0,[0.26900000000000546],98,0,98,0,1
,,,,,,,612fa292299eb78f1bc9a082,,,,,,612fa292299eb78f1bc9a082,Kobieta,18,2021-09-06_19h06.58.753,rantool2,2021.1.4,Win32,60.0240096,6135e006383e6ea6c3d06a28,613648d885dd041088272ed0,"[""period""]",0,[0.3019999999999641],99,0,99,0,1
,,,,,,,612fa292299eb78f1bc9a082,,,,,,612fa292299eb78f1bc9a082,Kobieta,18,2021-09-06_19h06.58.753,rantool2,2021.1.4,Win32,60.0240096,6135e006383e6ea6c3d06a28,613648d885dd041088272ed0,"[""comma""]",0,[0.271000000000015],100,0,100,0,1
,,,,,,,612fa292299eb78f1bc9a082,,,,,,612fa292299eb78f1bc9a082,Kobieta,18,2021-09-06_19h06.58.753,rantool2,2021.1.4,Win32,60.0240096,6135e006383e6ea6c3d06a28,613648d885dd041088272ed0,"[""comma""]",0,[0.28600000000000136],101,0,101,0,1
,,,,,,,612fa292299eb78f1bc9a082,,,,,,612fa292299eb78f1bc9a082,Kobieta,18,2021-09-06_19h06.58.753,rantool2,2021.1.4,Win32,60.0240096,6135e006383e6ea6c3d06a28,613648d885dd041088272ed0,"[""comma""]",0,[0.3190000000000168],102,0,102,0,1
,,,,,,,612fa292299eb78f1bc9a082,,,,,,612fa292299eb78f1bc9a082,Kobieta,18,2021-09-06_19h06.58.753,rantool2,2021.1.4,Win32,60.0240096,6135e006383e6ea6c3d06a28,613648d885dd041088272ed0,"[""period""]",0,[0.30000000000001137],103,0,103,0,1
,,,,,,,612fa292299eb78f1bc9a082,,,,,,612fa292299eb78f1bc9a082,Kobieta,18,2021-09-06_19h06.58.753,rantool2,2021.1.4,Win32,60.0240096,6135e006383e6ea6c3d06a28,613648d885dd041088272ed0,"[""comma""]",0,[0.23599999999999],104,0,104,0,1
,,,,,,,612fa292299eb78f1bc9a082,,,,,,612fa292299eb78f1bc9a082,Kobieta,18,2021-09-06_19h06.58.753,rantool2,2021.1.4,Win32,60.0240096,6135e006383e6ea6c3d06a28,613648d885dd041088272ed0,"[""period""]",0,[0.4019999999999868],105,0,105,0,1
,,,,,,,612fa292299eb78f1bc9a082,,,,,,612fa292299eb78f1bc9a082,Kobieta,18,2021-09-06_19h06.58.753,rantool2,2021.1.4,Win32,60.0240096,6135e006383e6ea6c3d06a28,613648d885dd041088272ed0,"[""comma""]",0,[0.285000000000025],106,0,106,0,1
,,,,,,,612fa292299eb78f1bc9a082,,,,,,612fa292299eb78f1bc9a082,Kobieta,18,2021-09-06_19h06.58.753,rantool2,2021.1.4,Win32,60.0240096,6135e006383e6ea6c3d06a28,613648d885dd041088272ed0,"[""comma""]",0,[0.31799999999998363],107,0,107,0,1
,,,,,,,612fa292299eb78f1bc9a082,,,,,,612fa292299eb78f1bc9a082,Kobieta,18,2021-09-06_19h06.58.753,rantool2,2021.1.4,Win32,60.0240096,6135e006383e6ea6c3d06a28,613648d885dd041088272ed0,"[""period""]",0,[0.21999999999997044],108,0,108,0,1
,,,,,,,612fa292299eb78f1bc9a082,,,,,,612fa292299eb78f1bc9a082,Kobieta,18,2021-09-06_19h06.58.753,rantool2,2021.1.4,Win32,60.0240096,6135e006383e6ea6c3d06a28,613648d885dd041088272ed0,"[""period""]",0,[0.285000000000025],109,0,109,0,1
,,,,,,,612fa292299eb78f1bc9a082,,,,,,612fa292299eb78f1bc9a082,Kobieta,18,2021-09-06_19h06.58.753,rantool2,2021.1.4,Win32,60.0240096,6135e006383e6ea6c3d06a28,613648d885dd041088272ed0,"[""period""]",0,[0.2869999999999777],110,0,110,0,1
,,,,,,,612fa292299eb78f1bc9a082,,,,,,612fa292299eb78f1bc9a082,Kobieta,18,2021-09-06_19h06.58.753,rantool2,2021.1.4,Win32,60.0240096,6135e006383e6ea6c3d06a28,613648d885dd041088272ed0,"[""period""]",0,[0.32900000000000773],111,0,111,0,1
,,,,,,,612fa292299eb78f1bc9a082,,,,,,612fa292299eb78f1bc9a082,Kobieta,18,2021-09-06_19h06.58.753,rantool2,2021.1.4,Win32,60.0240096,6135e006383e6ea6c3d06a28,613648d885dd041088272ed0,"[""period""]",0,[0.33700000000004593],112,0,112,0,1
,,,,,,,612fa292299eb78f1bc9a082,,,,,,612fa292299eb78f1bc9a082,Kobieta,18,2021-09-06_19h06.58.753,rantool2,2021.1.4,Win32,60.0240096,6135e006383e6ea6c3d06a28,613648d885dd041088272ed0,"[""period""]",0,[0.38700000000000045],113,0,113,0,1
,,,,,,,612fa292299eb78f1bc9a082,,,,,,612fa292299eb78f1bc9a082,Kobieta,18,2021-09-06_19h06.58.753,rantool2,2021.1.4,Win32,60.0240096,6135e006383e6ea6c3d06a28,613648d885dd041088272ed0,"[""period""]",0,[0.3190000000000168],114,0,114,0,1
,,,,,,,612fa292299eb78f1bc9a082,,,,,,612fa292299eb78f1bc9a082,Kobieta,18,2021-09-06_19h06.58.753,rantool2,2021.1.4,Win32,60.0240096,6135e006383e6ea6c3d06a28,613648d885dd041088272ed0,"[""period""]",0,[0.28600000000000136],115,0,115,0,1
,,,,,,,612fa292299eb78f1bc9a082,,,,,,612fa292299eb78f1bc9a082,Kobieta,18,2021-09-06_19h06.58.753,rantool2,2021.1.4,Win32,60.0240096,6135e006383e6ea6c3d06a28,613648d885dd041088272ed0,"[""comma""]",0,[0.35300000000000864],116,0,116,0,1
,,,,,,,612fa292299eb78f1bc9a082,,,,,,612fa292299eb78f1bc9a082,Kobieta,18,2021-09-06_19h06.58.753,rantool2,2021.1.4,Win32,60.0240096,6135e006383e6ea6c3d06a28,613648d885dd041088272ed0,"[""comma""]",0,[0.47199999999998],117,0,117,0,1
,,,,,,,612fa292299eb78f1bc9a082,,,,,,612fa292299eb78f1bc9a082,Kobieta,18,2021-09-06_19h06.58.753,rantool2,2021.1.4,Win32,60.0240096,6135e006383e6ea6c3d06a28,613648d885dd041088272ed0,"[""comma""]",0,[0.6229999999999905],118,0,118,0,1
,,,,,,,612fa292299eb78f1bc9a082,,,,,,612fa292299eb78f1bc9a082,Kobieta,18,2021-09-06_19h06.58.753,rantool2,2021.1.4,Win32,60.0240096,6135e006383e6ea6c3d06a28,613648d885dd041088272ed0,"[""comma""]",0,[0.25099999999997635],119,0,119,0,1
