key_resp_7.keys,trials_2.thisRepN,trials_2.thisTrialN,trials_2.thisN,trials_2.thisIndex,trials_2.ran,id,series_0,series_1,acss_0,acss_1,comparison,id*,Płeć*,Wiek*,date,expName,psychopyVersion,OS,frameRate,STUDY_ID,SESSION_ID,key_resp_7.rt,key_resp_5.keys,key_resp_5.corr,key_resp_5.rt,trials.thisRepN,trials.thisTrialN,trials.thisN,trials.thisIndex,trials.ran
,0,0,0,24,1,61322447efdb668e0b2e4f21,ORROOOO,ORROOOR,21.12383932,22.07102821,series_1,61322447efdb668e0b2e4f21,Kobieta,18,2021-09-06_18h44.17.078,rantool2,2021.1.4,Win32,29.81870229,6135e006383e6ea6c3d06a28,613644e5aef603efabf2496f,,,,,,,,,
j,0,1,1,8,1,61322447efdb668e0b2e4f21,OOROOOO,OOROOOR,19.91402015,20.89823192,series_1,61322447efdb668e0b2e4f21,Kobieta,18,2021-09-06_18h44.17.078,rantool2,2021.1.4,Win32,29.81870229,6135e006383e6ea6c3d06a28,613644e5aef603efabf2496f,3.431,,,,,,,,
f,0,2,2,25,1,61322447efdb668e0b2e4f21,ORROORO,ORROORR,21.79500819,22.61624387,series_1,61322447efdb668e0b2e4f21,Kobieta,18,2021-09-06_18h44.17.078,rantool2,2021.1.4,Win32,29.81870229,6135e006383e6ea6c3d06a28,613644e5aef603efabf2496f,1.433,,,,,,,,
j,0,3,3,28,1,61322447efdb668e0b2e4f21,ORRROOO,ORRROOR,22.24142883,22.53364006,series_1,61322447efdb668e0b2e4f21,Kobieta,18,2021-09-06_18h44.17.078,rantool2,2021.1.4,Win32,29.81870229,6135e006383e6ea6c3d06a28,613644e5aef603efabf2496f,4.835,,,,,,,,
f,0,4,4,0,1,61322447efdb668e0b2e4f21,OOOOOOO,OOOOOOR,18.52739004,19.62521613,series_1,61322447efdb668e0b2e4f21,Kobieta,18,2021-09-06_18h44.17.078,rantool2,2021.1.4,Win32,29.81870229,6135e006383e6ea6c3d06a28,613644e5aef603efabf2496f,2.345,,,,,,,,
j,0,5,5,18,1,61322447efdb668e0b2e4f21,OROOROO,OROOROR,20.84860893,21.22513037,series_1,61322447efdb668e0b2e4f21,Kobieta,18,2021-09-06_18h44.17.078,rantool2,2021.1.4,Win32,29.81870229,6135e006383e6ea6c3d06a28,613644e5aef603efabf2496f,3.649,,,,,,,,
f,0,6,6,44,1,61322447efdb668e0b2e4f21,RORROOO,RORROOR,21.66733484,22.02566557,series_1,61322447efdb668e0b2e4f21,Kobieta,18,2021-09-06_18h44.17.078,rantool2,2021.1.4,Win32,29.81870229,6135e006383e6ea6c3d06a28,613644e5aef603efabf2496f,3.084,,,,,,,,
j,0,7,7,29,1,61322447efdb668e0b2e4f21,ORRRORO,ORRRORR,22.00300695,22.12173012,series_1,61322447efdb668e0b2e4f21,Kobieta,18,2021-09-06_18h44.17.078,rantool2,2021.1.4,Win32,29.81870229,6135e006383e6ea6c3d06a28,613644e5aef603efabf2496f,2.202,,,,,,,,
j,0,8,8,52,1,61322447efdb668e0b2e4f21,RROROOO,RROROOR,22.18365867,22.11097995,series_0,61322447efdb668e0b2e4f21,Kobieta,18,2021-09-06_18h44.17.078,rantool2,2021.1.4,Win32,29.81870229,6135e006383e6ea6c3d06a28,613644e5aef603efabf2496f,2.651,,,,,,,,
f,0,9,9,17,1,61322447efdb668e0b2e4f21,OROOORO,OROOORR,21.03750787,22.12173012,series_1,61322447efdb668e0b2e4f21,Kobieta,18,2021-09-06_18h44.17.078,rantool2,2021.1.4,Win32,29.81870229,6135e006383e6ea6c3d06a28,613644e5aef603efabf2496f,2.238,,,,,,,,
f,0,10,10,31,1,61322447efdb668e0b2e4f21,ORRRRRO,ORRRRRR,22.16413392,20.74050628,series_0,61322447efdb668e0b2e4f21,Kobieta,18,2021-09-06_18h44.17.078,rantool2,2021.1.4,Win32,29.81870229,6135e006383e6ea6c3d06a28,613644e5aef603efabf2496f,1.066,,,,,,,,
j,0,11,11,3,1,61322447efdb668e0b2e4f21,OOOORRO,OOOORRR,20.90986523,21.74922619,series_1,61322447efdb668e0b2e4f21,Kobieta,18,2021-09-06_18h44.17.078,rantool2,2021.1.4,Win32,29.81870229,6135e006383e6ea6c3d06a28,613644e5aef603efabf2496f,1.007,,,,,,,,
,0,12,12,13,1,61322447efdb668e0b2e4f21,OORRORO,OORRORR,21.66733484,22.11181017,series_1,61322447efdb668e0b2e4f21,Kobieta,18,2021-09-06_18h44.17.078,rantool2,2021.1.4,Win32,29.81870229,6135e006383e6ea6c3d06a28,613644e5aef603efabf2496f,,,,,,,,,
f,0,13,13,45,1,61322447efdb668e0b2e4f21,RORRORO,RORRORR,20.78182524,21.22513037,series_1,61322447efdb668e0b2e4f21,Kobieta,18,2021-09-06_18h44.17.078,rantool2,2021.1.4,Win32,29.81870229,6135e006383e6ea6c3d06a28,613644e5aef603efabf2496f,0.051,,,,,,,,
f,0,14,14,30,1,61322447efdb668e0b2e4f21,ORRRROO,ORRRROR,22.46748491,22.03072203,series_0,61322447efdb668e0b2e4f21,Kobieta,18,2021-09-06_18h44.17.078,rantool2,2021.1.4,Win32,29.81870229,6135e006383e6ea6c3d06a28,613644e5aef603efabf2496f,3.377,,,,,,,,
f,0,15,15,46,1,61322447efdb668e0b2e4f21,RORRROO,RORRROR,22.00300695,21.24781509,series_0,61322447efdb668e0b2e4f21,Kobieta,18,2021-09-06_18h44.17.078,rantool2,2021.1.4,Win32,29.81870229,6135e006383e6ea6c3d06a28,613644e5aef603efabf2496f,2.71,,,,,,,,
j,0,16,16,60,1,61322447efdb668e0b2e4f21,RRRROOO,RRRROOR,22.10108823,22.15934078,series_1,61322447efdb668e0b2e4f21,Kobieta,18,2021-09-06_18h44.17.078,rantool2,2021.1.4,Win32,29.81870229,6135e006383e6ea6c3d06a28,613644e5aef603efabf2496f,1.101,,,,,,,,
f,0,17,17,21,1,61322447efdb668e0b2e4f21,ORORORO,ORORORR,20.39515459,22.06781359,series_1,61322447efdb668e0b2e4f21,Kobieta,18,2021-09-06_18h44.17.078,rantool2,2021.1.4,Win32,29.81870229,6135e006383e6ea6c3d06a28,613644e5aef603efabf2496f,1.413,,,,,,,,
j,0,18,18,9,1,61322447efdb668e0b2e4f21,OOROORO,OOROORR,21.07991943,22.2428857,series_1,61322447efdb668e0b2e4f21,Kobieta,18,2021-09-06_18h44.17.078,rantool2,2021.1.4,Win32,29.81870229,6135e006383e6ea6c3d06a28,613644e5aef603efabf2496f,1.026,,,,,,,,
f,0,19,19,40,1,61322447efdb668e0b2e4f21,ROROOOO,ROROOOR,20.87963819,21.37121559,series_1,61322447efdb668e0b2e4f21,Kobieta,18,2021-09-06_18h44.17.078,rantool2,2021.1.4,Win32,29.81870229,6135e006383e6ea6c3d06a28,613644e5aef603efabf2496f,1.332,,,,,,,,
j,0,20,20,22,1,61322447efdb668e0b2e4f21,ORORROO,ORORROR,22.02732763,21.57657071,series_0,61322447efdb668e0b2e4f21,Kobieta,18,2021-09-06_18h44.17.078,rantool2,2021.1.4,Win32,29.81870229,6135e006383e6ea6c3d06a28,613644e5aef603efabf2496f,1.326,,,,,,,,
j,0,21,21,10,1,61322447efdb668e0b2e4f21,OOROROO,OOROROR,21.31236711,21.07490964,series_0,61322447efdb668e0b2e4f21,Kobieta,18,2021-09-06_18h44.17.078,rantool2,2021.1.4,Win32,29.81870229,6135e006383e6ea6c3d06a28,613644e5aef603efabf2496f,1.594,,,,,,,,
f,0,22,22,15,1,61322447efdb668e0b2e4f21,OORRRRO,OORRRRR,22.10108823,21.74922619,series_0,61322447efdb668e0b2e4f21,Kobieta,18,2021-09-06_18h44.17.078,rantool2,2021.1.4,Win32,29.81870229,6135e006383e6ea6c3d06a28,613644e5aef603efabf2496f,0.624,,,,,,,,
f,0,23,23,5,1,61322447efdb668e0b2e4f21,OOORORO,OOORORR,20.87963819,21.9921709,series_1,61322447efdb668e0b2e4f21,Kobieta,18,2021-09-06_18h44.17.078,rantool2,2021.1.4,Win32,29.81870229,6135e006383e6ea6c3d06a28,613644e5aef603efabf2496f,0.621,,,,,,,,
j,0,24,24,43,1,61322447efdb668e0b2e4f21,RORORRO,RORORRR,20.71309134,21.07490964,series_1,61322447efdb668e0b2e4f21,Kobieta,18,2021-09-06_18h44.17.078,rantool2,2021.1.4,Win32,29.81870229,6135e006383e6ea6c3d06a28,613644e5aef603efabf2496f,1.313,,,,,,,,
f,0,25,25,7,1,61322447efdb668e0b2e4f21,OOORRRO,OOORRRR,21.6194508,21.899017,series_1,61322447efdb668e0b2e4f21,Kobieta,18,2021-09-06_18h44.17.078,rantool2,2021.1.4,Win32,29.81870229,6135e006383e6ea6c3d06a28,613644e5aef603efabf2496f,1.238,,,,,,,,
j,0,26,26,14,1,61322447efdb668e0b2e4f21,OORRROO,OORRROR,22.24142883,22.16977179,series_0,61322447efdb668e0b2e4f21,Kobieta,18,2021-09-06_18h44.17.078,rantool2,2021.1.4,Win32,29.81870229,6135e006383e6ea6c3d06a28,613644e5aef603efabf2496f,0.8,,,,,,,,
f,0,27,27,35,1,61322447efdb668e0b2e4f21,ROOORRO,ROOORRR,21.76276513,22.16977179,series_1,61322447efdb668e0b2e4f21,Kobieta,18,2021-09-06_18h44.17.078,rantool2,2021.1.4,Win32,29.81870229,6135e006383e6ea6c3d06a28,613644e5aef603efabf2496f,0.494,,,,,,,,
j,0,28,28,56,1,61322447efdb668e0b2e4f21,RRROOOO,RRROOOR,21.6194508,22.31681875,series_1,61322447efdb668e0b2e4f21,Kobieta,18,2021-09-06_18h44.17.078,rantool2,2021.1.4,Win32,29.81870229,6135e006383e6ea6c3d06a28,613644e5aef603efabf2496f,0.809,,,,,,,,
f,0,29,29,51,1,61322447efdb668e0b2e4f21,RROORRO,RROORRR,21.89852628,22.02786418,series_1,61322447efdb668e0b2e4f21,Kobieta,18,2021-09-06_18h44.17.078,rantool2,2021.1.4,Win32,29.81870229,6135e006383e6ea6c3d06a28,613644e5aef603efabf2496f,1.856,,,,,,,,
f,0,30,30,19,1,61322447efdb668e0b2e4f21,OROORRO,OROORRR,21.73568164,22.11181017,series_1,61322447efdb668e0b2e4f21,Kobieta,18,2021-09-06_18h44.17.078,rantool2,2021.1.4,Win32,29.81870229,6135e006383e6ea6c3d06a28,613644e5aef603efabf2496f,0.454,,,,,,,,
j,0,31,31,48,1,61322447efdb668e0b2e4f21,RROOOOO,RROOOOR,20.90986523,22.15934078,series_1,61322447efdb668e0b2e4f21,Kobieta,18,2021-09-06_18h44.17.078,rantool2,2021.1.4,Win32,29.81870229,6135e006383e6ea6c3d06a28,613644e5aef603efabf2496f,1.854,,,,,,,,
j,0,32,32,62,1,61322447efdb668e0b2e4f21,RRRRROO,RRRRROR,22.16413392,21.27974287,series_0,61322447efdb668e0b2e4f21,Kobieta,18,2021-09-06_18h44.17.078,rantool2,2021.1.4,Win32,29.81870229,6135e006383e6ea6c3d06a28,613644e5aef603efabf2496f,1.127,,,,,,,,
j,0,33,33,23,1,61322447efdb668e0b2e4f21,ORORRRO,ORORRRR,22.1285618,21.9921709,series_0,61322447efdb668e0b2e4f21,Kobieta,18,2021-09-06_18h44.17.078,rantool2,2021.1.4,Win32,29.81870229,6135e006383e6ea6c3d06a28,613644e5aef603efabf2496f,1.087,,,,,,,,
f,0,34,34,38,1,61322447efdb668e0b2e4f21,ROORROO,ROORROR,21.79500819,21.36812781,series_0,61322447efdb668e0b2e4f21,Kobieta,18,2021-09-06_18h44.17.078,rantool2,2021.1.4,Win32,29.81870229,6135e006383e6ea6c3d06a28,613644e5aef603efabf2496f,1.126,,,,,,,,
f,0,35,35,41,1,61322447efdb668e0b2e4f21,ROROORO,ROROORR,20.42602454,21.71443381,series_1,61322447efdb668e0b2e4f21,Kobieta,18,2021-09-06_18h44.17.078,rantool2,2021.1.4,Win32,29.81870229,6135e006383e6ea6c3d06a28,613644e5aef603efabf2496f,2.963,,,,,,,,
j,0,36,36,27,1,61322447efdb668e0b2e4f21,ORRORRO,ORRORRR,21.55250791,22.2428857,series_1,61322447efdb668e0b2e4f21,Kobieta,18,2021-09-06_18h44.17.078,rantool2,2021.1.4,Win32,29.81870229,6135e006383e6ea6c3d06a28,613644e5aef603efabf2496f,3.758,,,,,,,,
j,0,37,37,11,1,61322447efdb668e0b2e4f21,OORORRO,OORORRR,22.18365867,22.6797523,series_1,61322447efdb668e0b2e4f21,Kobieta,18,2021-09-06_18h44.17.078,rantool2,2021.1.4,Win32,29.81870229,6135e006383e6ea6c3d06a28,613644e5aef603efabf2496f,2.482,,,,,,,,
f,0,38,38,26,1,61322447efdb668e0b2e4f21,ORROROO,ORROROR,22.02732763,21.71443381,series_0,61322447efdb668e0b2e4f21,Kobieta,18,2021-09-06_18h44.17.078,rantool2,2021.1.4,Win32,29.81870229,6135e006383e6ea6c3d06a28,613644e5aef603efabf2496f,0.8,,,,,,,,
j,0,39,39,54,1,61322447efdb668e0b2e4f21,RRORROO,RRORROR,21.55250791,20.9984461,series_0,61322447efdb668e0b2e4f21,Kobieta,18,2021-09-06_18h44.17.078,rantool2,2021.1.4,Win32,29.81870229,6135e006383e6ea6c3d06a28,613644e5aef603efabf2496f,1.347,,,,,,,,
j,0,40,40,39,1,61322447efdb668e0b2e4f21,ROORRRO,ROORRRR,21.82425538,21.38562617,series_0,61322447efdb668e0b2e4f21,Kobieta,18,2021-09-06_18h44.17.078,rantool2,2021.1.4,Win32,29.81870229,6135e006383e6ea6c3d06a28,613644e5aef603efabf2496f,0.908,,,,,,,,
f,0,41,41,42,1,61322447efdb668e0b2e4f21,ROROROO,ROROROR,20.39515459,19.8361834,series_0,61322447efdb668e0b2e4f21,Kobieta,18,2021-09-06_18h44.17.078,rantool2,2021.1.4,Win32,29.81870229,6135e006383e6ea6c3d06a28,613644e5aef603efabf2496f,0.888,,,,,,,,
f,0,42,42,34,1,61322447efdb668e0b2e4f21,ROOOROO,ROOOROR,21.03750787,21.24781509,series_1,61322447efdb668e0b2e4f21,Kobieta,18,2021-09-06_18h44.17.078,rantool2,2021.1.4,Win32,29.81870229,6135e006383e6ea6c3d06a28,613644e5aef603efabf2496f,0.86,,,,,,,,
f,0,43,43,32,1,61322447efdb668e0b2e4f21,ROOOOOO,ROOOOOR,19.92253567,21.27974287,series_1,61322447efdb668e0b2e4f21,Kobieta,18,2021-09-06_18h44.17.078,rantool2,2021.1.4,Win32,29.81870229,6135e006383e6ea6c3d06a28,613644e5aef603efabf2496f,1.09,,,,,,,,
j,0,44,44,37,1,61322447efdb668e0b2e4f21,ROORORO,ROORORR,20.42602454,21.57657071,series_1,61322447efdb668e0b2e4f21,Kobieta,18,2021-09-06_18h44.17.078,rantool2,2021.1.4,Win32,29.81870229,6135e006383e6ea6c3d06a28,613644e5aef603efabf2496f,1.128,,,,,,,,
j,0,45,45,55,1,61322447efdb668e0b2e4f21,RRORRRO,RRORRRR,21.56657303,21.21223021,series_0,61322447efdb668e0b2e4f21,Kobieta,18,2021-09-06_18h44.17.078,rantool2,2021.1.4,Win32,29.81870229,6135e006383e6ea6c3d06a28,613644e5aef603efabf2496f,0.845,,,,,,,,
j,0,46,46,58,1,61322447efdb668e0b2e4f21,RRROROO,RRROROR,22.1285618,21.37121559,series_0,61322447efdb668e0b2e4f21,Kobieta,18,2021-09-06_18h44.17.078,rantool2,2021.1.4,Win32,29.81870229,6135e006383e6ea6c3d06a28,613644e5aef603efabf2496f,0.835,,,,,,,,
f,0,47,47,4,1,61322447efdb668e0b2e4f21,OOOROOO,OOOROOR,19.91402015,21.21223021,series_1,61322447efdb668e0b2e4f21,Kobieta,18,2021-09-06_18h44.17.078,rantool2,2021.1.4,Win32,29.81870229,6135e006383e6ea6c3d06a28,613644e5aef603efabf2496f,0.589,,,,,,,,
j,0,48,48,59,1,61322447efdb668e0b2e4f21,RRRORRO,RRRORRR,21.56657303,20.89823192,series_0,61322447efdb668e0b2e4f21,Kobieta,18,2021-09-06_18h44.17.078,rantool2,2021.1.4,Win32,29.81870229,6135e006383e6ea6c3d06a28,613644e5aef603efabf2496f,1.003,,,,,,,,
f,0,49,49,63,1,61322447efdb668e0b2e4f21,RRRRRRO,RRRRRRR,21.35278725,19.62521613,series_0,61322447efdb668e0b2e4f21,Kobieta,18,2021-09-06_18h44.17.078,rantool2,2021.1.4,Win32,29.81870229,6135e006383e6ea6c3d06a28,613644e5aef603efabf2496f,0.463,,,,,,,,
j,0,50,50,33,1,61322447efdb668e0b2e4f21,ROOOORO,ROOOORR,20.83779602,22.03072203,series_1,61322447efdb668e0b2e4f21,Kobieta,18,2021-09-06_18h44.17.078,rantool2,2021.1.4,Win32,29.81870229,6135e006383e6ea6c3d06a28,613644e5aef603efabf2496f,0.466,,,,,,,,
f,0,51,51,20,1,61322447efdb668e0b2e4f21,OROROOO,OROROOR,21.31236711,21.90565814,series_1,61322447efdb668e0b2e4f21,Kobieta,18,2021-09-06_18h44.17.078,rantool2,2021.1.4,Win32,29.81870229,6135e006383e6ea6c3d06a28,613644e5aef603efabf2496f,0.382,,,,,,,,
f,0,52,52,50,1,61322447efdb668e0b2e4f21,RROOROO,RROOROR,21.73568164,22.02566557,series_1,61322447efdb668e0b2e4f21,Kobieta,18,2021-09-06_18h44.17.078,rantool2,2021.1.4,Win32,29.81870229,6135e006383e6ea6c3d06a28,613644e5aef603efabf2496f,0.492,,,,,,,,
f,0,53,53,2,1,61322447efdb668e0b2e4f21,OOOOROO,OOOOROR,20.43051175,21.02936224,series_1,61322447efdb668e0b2e4f21,Kobieta,18,2021-09-06_18h44.17.078,rantool2,2021.1.4,Win32,29.81870229,6135e006383e6ea6c3d06a28,613644e5aef603efabf2496f,0.466,,,,,,,,
j,0,54,54,49,1,61322447efdb668e0b2e4f21,RROOORO,RROOORR,21.76276513,22.53364006,series_1,61322447efdb668e0b2e4f21,Kobieta,18,2021-09-06_18h44.17.078,rantool2,2021.1.4,Win32,29.81870229,6135e006383e6ea6c3d06a28,613644e5aef603efabf2496f,0.469,,,,,,,,
j,0,55,55,12,1,61322447efdb668e0b2e4f21,OORROOO,OORROOR,21.30250474,22.02786418,series_1,61322447efdb668e0b2e4f21,Kobieta,18,2021-09-06_18h44.17.078,rantool2,2021.1.4,Win32,29.81870229,6135e006383e6ea6c3d06a28,613644e5aef603efabf2496f,0.43,,,,,,,,
j,0,56,56,47,1,61322447efdb668e0b2e4f21,RORRRRO,RORRRRR,21.81333602,21.02936224,series_0,61322447efdb668e0b2e4f21,Kobieta,18,2021-09-06_18h44.17.078,rantool2,2021.1.4,Win32,29.81870229,6135e006383e6ea6c3d06a28,613644e5aef603efabf2496f,0.425,,,,,,,,
f,0,57,57,36,1,61322447efdb668e0b2e4f21,ROOROOO,ROOROOR,21.07991943,20.9984461,series_0,61322447efdb668e0b2e4f21,Kobieta,18,2021-09-06_18h44.17.078,rantool2,2021.1.4,Win32,29.81870229,6135e006383e6ea6c3d06a28,613644e5aef603efabf2496f,0.381,,,,,,,,
f,0,58,58,57,1,61322447efdb668e0b2e4f21,RRROORO,RRROORR,21.82425538,22.07102821,series_1,61322447efdb668e0b2e4f21,Kobieta,18,2021-09-06_18h44.17.078,rantool2,2021.1.4,Win32,29.81870229,6135e006383e6ea6c3d06a28,613644e5aef603efabf2496f,0.553,,,,,,,,
f,0,59,59,6,1,61322447efdb668e0b2e4f21,OOORROO,OOORROR,21.12383932,21.38562617,series_1,61322447efdb668e0b2e4f21,Kobieta,18,2021-09-06_18h44.17.078,rantool2,2021.1.4,Win32,29.81870229,6135e006383e6ea6c3d06a28,613644e5aef603efabf2496f,0.386,,,,,,,,
j,0,60,60,61,1,61322447efdb668e0b2e4f21,RRRRORO,RRRRORR,21.81333602,21.17347734,series_0,61322447efdb668e0b2e4f21,Kobieta,18,2021-09-06_18h44.17.078,rantool2,2021.1.4,Win32,29.81870229,6135e006383e6ea6c3d06a28,613644e5aef603efabf2496f,0.608,,,,,,,,
j,0,61,61,53,1,61322447efdb668e0b2e4f21,RRORORO,RRORORR,20.71309134,21.90565814,series_1,61322447efdb668e0b2e4f21,Kobieta,18,2021-09-06_18h44.17.078,rantool2,2021.1.4,Win32,29.81870229,6135e006383e6ea6c3d06a28,613644e5aef603efabf2496f,0.7,,,,,,,,
j,0,62,62,16,1,61322447efdb668e0b2e4f21,OROOOOO,OROOOOR,20.43051175,21.17347734,series_1,61322447efdb668e0b2e4f21,Kobieta,18,2021-09-06_18h44.17.078,rantool2,2021.1.4,Win32,29.81870229,6135e006383e6ea6c3d06a28,613644e5aef603efabf2496f,0.471,,,,,,,,
j,0,63,63,1,1,61322447efdb668e0b2e4f21,OOOOORO,OOOOORR,19.92253567,20.74050628,series_1,61322447efdb668e0b2e4f21,Kobieta,18,2021-09-06_18h44.17.078,rantool2,2021.1.4,Win32,29.81870229,6135e006383e6ea6c3d06a28,613644e5aef603efabf2496f,0.385,,,,,,,,
,,,,,,61322447efdb668e0b2e4f21,,,,,,61322447efdb668e0b2e4f21,Kobieta,18,2021-09-06_18h44.17.078,rantool2,2021.1.4,Win32,29.81870229,6135e006383e6ea6c3d06a28,613644e5aef603efabf2496f,,"[""period""]",0,[1.0620000000000118],0,0,0,0,1
,,,,,,61322447efdb668e0b2e4f21,,,,,,61322447efdb668e0b2e4f21,Kobieta,18,2021-09-06_18h44.17.078,rantool2,2021.1.4,Win32,29.81870229,6135e006383e6ea6c3d06a28,613644e5aef603efabf2496f,,"[""comma""]",0,[0.7599999999999909],1,0,1,0,1
,,,,,,61322447efdb668e0b2e4f21,,,,,,61322447efdb668e0b2e4f21,Kobieta,18,2021-09-06_18h44.17.078,rantool2,2021.1.4,Win32,29.81870229,6135e006383e6ea6c3d06a28,613644e5aef603efabf2496f,,"[""comma""]",0,[0.5400000000000205],2,0,2,0,1
,,,,,,61322447efdb668e0b2e4f21,,,,,,61322447efdb668e0b2e4f21,Kobieta,18,2021-09-06_18h44.17.078,rantool2,2021.1.4,Win32,29.81870229,6135e006383e6ea6c3d06a28,613644e5aef603efabf2496f,,"[""period""]",0,[0.20699999999999363],3,0,3,0,1
,,,,,,61322447efdb668e0b2e4f21,,,,,,61322447efdb668e0b2e4f21,Kobieta,18,2021-09-06_18h44.17.078,rantool2,2021.1.4,Win32,29.81870229,6135e006383e6ea6c3d06a28,613644e5aef603efabf2496f,,"[""period"",""comma""]",0,"[0.25399999999996226,1.7869999999999777]",4,0,4,0,1
,,,,,,61322447efdb668e0b2e4f21,,,,,,61322447efdb668e0b2e4f21,Kobieta,18,2021-09-06_18h44.17.078,rantool2,2021.1.4,Win32,29.81870229,6135e006383e6ea6c3d06a28,613644e5aef603efabf2496f,,"[""period""]",0,[1.2450000000000045],5,0,5,0,1
,,,,,,61322447efdb668e0b2e4f21,,,,,,61322447efdb668e0b2e4f21,Kobieta,18,2021-09-06_18h44.17.078,rantool2,2021.1.4,Win32,29.81870229,6135e006383e6ea6c3d06a28,613644e5aef603efabf2496f,,"[""period""]",0,[0.882000000000005],6,0,6,0,1
,,,,,,61322447efdb668e0b2e4f21,,,,,,61322447efdb668e0b2e4f21,Kobieta,18,2021-09-06_18h44.17.078,rantool2,2021.1.4,Win32,29.81870229,6135e006383e6ea6c3d06a28,613644e5aef603efabf2496f,,"[""period"",""comma"",""comma""]",0,"[0.043000000000006366,0.6730000000000018,1.8389999999999986]",7,0,7,0,1
,,,,,,61322447efdb668e0b2e4f21,,,,,,61322447efdb668e0b2e4f21,Kobieta,18,2021-09-06_18h44.17.078,rantool2,2021.1.4,Win32,29.81870229,6135e006383e6ea6c3d06a28,613644e5aef603efabf2496f,,"[""comma""]",0,[1.1790000000000305],8,0,8,0,1
,,,,,,61322447efdb668e0b2e4f21,,,,,,61322447efdb668e0b2e4f21,Kobieta,18,2021-09-06_18h44.17.078,rantool2,2021.1.4,Win32,29.81870229,6135e006383e6ea6c3d06a28,613644e5aef603efabf2496f,,"[""period""]",0,[0.37299999999999045],9,0,9,0,1
,,,,,,61322447efdb668e0b2e4f21,,,,,,61322447efdb668e0b2e4f21,Kobieta,18,2021-09-06_18h44.17.078,rantool2,2021.1.4,Win32,29.81870229,6135e006383e6ea6c3d06a28,613644e5aef603efabf2496f,,"[""comma"",""comma""]",0,"[0.24900000000002365,1.6650000000000205]",10,0,10,0,1
,,,,,,61322447efdb668e0b2e4f21,,,,,,61322447efdb668e0b2e4f21,Kobieta,18,2021-09-06_18h44.17.078,rantool2,2021.1.4,Win32,29.81870229,6135e006383e6ea6c3d06a28,613644e5aef603efabf2496f,,"[""period""]",0,[1.910000000000025],11,0,11,0,1
,,,,,,61322447efdb668e0b2e4f21,,,,,,61322447efdb668e0b2e4f21,Kobieta,18,2021-09-06_18h44.17.078,rantool2,2021.1.4,Win32,29.81870229,6135e006383e6ea6c3d06a28,613644e5aef603efabf2496f,,0,0,,12,0,12,0,1
,,,,,,61322447efdb668e0b2e4f21,,,,,,61322447efdb668e0b2e4f21,Kobieta,18,2021-09-06_18h44.17.078,rantool2,2021.1.4,Win32,29.81870229,6135e006383e6ea6c3d06a28,613644e5aef603efabf2496f,,"[""comma""]",0,[-0.04399999999998272],13,0,13,0,1
,,,,,,61322447efdb668e0b2e4f21,,,,,,61322447efdb668e0b2e4f21,Kobieta,18,2021-09-06_18h44.17.078,rantool2,2021.1.4,Win32,29.81870229,6135e006383e6ea6c3d06a28,613644e5aef603efabf2496f,,"[""comma""]",0,[0.375],14,0,14,0,1
,,,,,,61322447efdb668e0b2e4f21,,,,,,61322447efdb668e0b2e4f21,Kobieta,18,2021-09-06_18h44.17.078,rantool2,2021.1.4,Win32,29.81870229,6135e006383e6ea6c3d06a28,613644e5aef603efabf2496f,,"[""period""]",0,[0.25600000000002865],15,0,15,0,1
,,,,,,61322447efdb668e0b2e4f21,,,,,,61322447efdb668e0b2e4f21,Kobieta,18,2021-09-06_18h44.17.078,rantool2,2021.1.4,Win32,29.81870229,6135e006383e6ea6c3d06a28,613644e5aef603efabf2496f,,"[""comma""]",0,[-0.04099999999999682],16,0,16,0,1
,,,,,,61322447efdb668e0b2e4f21,,,,,,61322447efdb668e0b2e4f21,Kobieta,18,2021-09-06_18h44.17.078,rantool2,2021.1.4,Win32,29.81870229,6135e006383e6ea6c3d06a28,613644e5aef603efabf2496f,,"[""comma""]",0,[0.2950000000000159],17,0,17,0,1
,,,,,,61322447efdb668e0b2e4f21,,,,,,61322447efdb668e0b2e4f21,Kobieta,18,2021-09-06_18h44.17.078,rantool2,2021.1.4,Win32,29.81870229,6135e006383e6ea6c3d06a28,613644e5aef603efabf2496f,,"[""period""]",0,[0.08600000000001273],18,0,18,0,1
,,,,,,61322447efdb668e0b2e4f21,,,,,,61322447efdb668e0b2e4f21,Kobieta,18,2021-09-06_18h44.17.078,rantool2,2021.1.4,Win32,29.81870229,6135e006383e6ea6c3d06a28,613644e5aef603efabf2496f,,"[""period""]",0,[0.29300000000000637],19,0,19,0,1
,,,,,,61322447efdb668e0b2e4f21,,,,,,61322447efdb668e0b2e4f21,Kobieta,18,2021-09-06_18h44.17.078,rantool2,2021.1.4,Win32,29.81870229,6135e006383e6ea6c3d06a28,613644e5aef603efabf2496f,,"[""period""]",0,[0.5020000000000095],20,0,20,0,1
,,,,,,61322447efdb668e0b2e4f21,,,,,,61322447efdb668e0b2e4f21,Kobieta,18,2021-09-06_18h44.17.078,rantool2,2021.1.4,Win32,29.81870229,6135e006383e6ea6c3d06a28,613644e5aef603efabf2496f,,"[""period""]",0,[1.247000000000014],21,0,21,0,1
,,,,,,61322447efdb668e0b2e4f21,,,,,,61322447efdb668e0b2e4f21,Kobieta,18,2021-09-06_18h44.17.078,rantool2,2021.1.4,Win32,29.81870229,6135e006383e6ea6c3d06a28,613644e5aef603efabf2496f,,0,0,,22,0,22,0,1
,,,,,,61322447efdb668e0b2e4f21,,,,,,61322447efdb668e0b2e4f21,Kobieta,18,2021-09-06_18h44.17.078,rantool2,2021.1.4,Win32,29.81870229,6135e006383e6ea6c3d06a28,613644e5aef603efabf2496f,,"[""comma"",""comma""]",0,"[0.25200000000000955,1.6689999999999827]",23,0,23,0,1
,,,,,,61322447efdb668e0b2e4f21,,,,,,61322447efdb668e0b2e4f21,Kobieta,18,2021-09-06_18h44.17.078,rantool2,2021.1.4,Win32,29.81870229,6135e006383e6ea6c3d06a28,613644e5aef603efabf2496f,,"[""period"",""comma""]",0,"[0.33099999999996044,1.867999999999995]",24,0,24,0,1
,,,,,,61322447efdb668e0b2e4f21,,,,,,61322447efdb668e0b2e4f21,Kobieta,18,2021-09-06_18h44.17.078,rantool2,2021.1.4,Win32,29.81870229,6135e006383e6ea6c3d06a28,613644e5aef603efabf2496f,,"[""period""]",0,[1.370999999999981],25,0,25,0,1
,,,,,,61322447efdb668e0b2e4f21,,,,,,61322447efdb668e0b2e4f21,Kobieta,18,2021-09-06_18h44.17.078,rantool2,2021.1.4,Win32,29.81870229,6135e006383e6ea6c3d06a28,613644e5aef603efabf2496f,,"[""period""]",0,[0.5500000000000114],26,0,26,0,1
,,,,,,61322447efdb668e0b2e4f21,,,,,,61322447efdb668e0b2e4f21,Kobieta,18,2021-09-06_18h44.17.078,rantool2,2021.1.4,Win32,29.81870229,6135e006383e6ea6c3d06a28,613644e5aef603efabf2496f,,0,0,,27,0,27,0,1
,,,,,,61322447efdb668e0b2e4f21,,,,,,61322447efdb668e0b2e4f21,Kobieta,18,2021-09-06_18h44.17.078,rantool2,2021.1.4,Win32,29.81870229,6135e006383e6ea6c3d06a28,613644e5aef603efabf2496f,,"[""period"",""comma""]",0,"[1.1229999999999905,1.8249999999999886]",28,0,28,0,1
,,,,,,61322447efdb668e0b2e4f21,,,,,,61322447efdb668e0b2e4f21,Kobieta,18,2021-09-06_18h44.17.078,rantool2,2021.1.4,Win32,29.81870229,6135e006383e6ea6c3d06a28,613644e5aef603efabf2496f,,"[""period""]",0,[0.7210000000000036],29,0,29,0,1
,,,,,,61322447efdb668e0b2e4f21,,,,,,61322447efdb668e0b2e4f21,Kobieta,18,2021-09-06_18h44.17.078,rantool2,2021.1.4,Win32,29.81870229,6135e006383e6ea6c3d06a28,613644e5aef603efabf2496f,,0,0,,30,0,30,0,1
,,,,,,61322447efdb668e0b2e4f21,,,,,,61322447efdb668e0b2e4f21,Kobieta,18,2021-09-06_18h44.17.078,rantool2,2021.1.4,Win32,29.81870229,6135e006383e6ea6c3d06a28,613644e5aef603efabf2496f,,"[""period""]",0,[1.4569999999999936],31,0,31,0,1
,,,,,,61322447efdb668e0b2e4f21,,,,,,61322447efdb668e0b2e4f21,Kobieta,18,2021-09-06_18h44.17.078,rantool2,2021.1.4,Win32,29.81870229,6135e006383e6ea6c3d06a28,613644e5aef603efabf2496f,,"[""comma""]",0,[0.5509999999999877],32,0,32,0,1
,,,,,,61322447efdb668e0b2e4f21,,,,,,61322447efdb668e0b2e4f21,Kobieta,18,2021-09-06_18h44.17.078,rantool2,2021.1.4,Win32,29.81870229,6135e006383e6ea6c3d06a28,613644e5aef603efabf2496f,,"[""comma"",""period""]",0,"[0.04200000000003001,1.8840000000000146]",33,0,33,0,1
,,,,,,61322447efdb668e0b2e4f21,,,,,,61322447efdb668e0b2e4f21,Kobieta,18,2021-09-06_18h44.17.078,rantool2,2021.1.4,Win32,29.81870229,6135e006383e6ea6c3d06a28,613644e5aef603efabf2496f,,"[""comma"",""period""]",0,"[1.5409999999999968,1.837000000000046]",34,0,34,0,1
,,,,,,61322447efdb668e0b2e4f21,,,,,,61322447efdb668e0b2e4f21,Kobieta,18,2021-09-06_18h44.17.078,rantool2,2021.1.4,Win32,29.81870229,6135e006383e6ea6c3d06a28,613644e5aef603efabf2496f,,"[""period"",""comma""]",0,"[0.8369999999999891,1.3379999999999654]",35,0,35,0,1
,,,,,,61322447efdb668e0b2e4f21,,,,,,61322447efdb668e0b2e4f21,Kobieta,18,2021-09-06_18h44.17.078,rantool2,2021.1.4,Win32,29.81870229,6135e006383e6ea6c3d06a28,613644e5aef603efabf2496f,,"[""comma"",""comma"",""period""]",0,"[0.0020000000000095497,0.5050000000000523,0.9210000000000491]",36,0,36,0,1
,,,,,,61322447efdb668e0b2e4f21,,,,,,61322447efdb668e0b2e4f21,Kobieta,18,2021-09-06_18h44.17.078,rantool2,2021.1.4,Win32,29.81870229,6135e006383e6ea6c3d06a28,613644e5aef603efabf2496f,,"[""period""]",0,[0.2939999999999827],37,0,37,0,1
,,,,,,61322447efdb668e0b2e4f21,,,,,,61322447efdb668e0b2e4f21,Kobieta,18,2021-09-06_18h44.17.078,rantool2,2021.1.4,Win32,29.81870229,6135e006383e6ea6c3d06a28,613644e5aef603efabf2496f,,"[""comma"",""period""]",0,"[-0.04299999999994952,1.8710000000000377]",38,0,38,0,1
,,,,,,61322447efdb668e0b2e4f21,,,,,,61322447efdb668e0b2e4f21,Kobieta,18,2021-09-06_18h44.17.078,rantool2,2021.1.4,Win32,29.81870229,6135e006383e6ea6c3d06a28,613644e5aef603efabf2496f,,"[""comma""]",0,[1.4120000000000346],39,0,39,0,1
,,,,,,61322447efdb668e0b2e4f21,,,,,,61322447efdb668e0b2e4f21,Kobieta,18,2021-09-06_18h44.17.078,rantool2,2021.1.4,Win32,29.81870229,6135e006383e6ea6c3d06a28,613644e5aef603efabf2496f,,"[""comma""]",0,[0.46599999999995134],40,0,40,0,1
,,,,,,61322447efdb668e0b2e4f21,,,,,,61322447efdb668e0b2e4f21,Kobieta,18,2021-09-06_18h44.17.078,rantool2,2021.1.4,Win32,29.81870229,6135e006383e6ea6c3d06a28,613644e5aef603efabf2496f,,0,0,,41,0,41,0,1
,,,,,,61322447efdb668e0b2e4f21,,,,,,61322447efdb668e0b2e4f21,Kobieta,18,2021-09-06_18h44.17.078,rantool2,2021.1.4,Win32,29.81870229,6135e006383e6ea6c3d06a28,613644e5aef603efabf2496f,,"[""period""]",0,[0.8840000000000146],42,0,42,0,1
,,,,,,61322447efdb668e0b2e4f21,,,,,,61322447efdb668e0b2e4f21,Kobieta,18,2021-09-06_18h44.17.078,rantool2,2021.1.4,Win32,29.81870229,6135e006383e6ea6c3d06a28,613644e5aef603efabf2496f,,"[""comma""]",0,[0.33899999999999864],43,0,43,0,1
,,,,,,61322447efdb668e0b2e4f21,,,,,,61322447efdb668e0b2e4f21,Kobieta,18,2021-09-06_18h44.17.078,rantool2,2021.1.4,Win32,29.81870229,6135e006383e6ea6c3d06a28,613644e5aef603efabf2496f,,"[""period""]",0,[0.1279999999999859],44,0,44,0,1
,,,,,,61322447efdb668e0b2e4f21,,,,,,61322447efdb668e0b2e4f21,Kobieta,18,2021-09-06_18h44.17.078,rantool2,2021.1.4,Win32,29.81870229,6135e006383e6ea6c3d06a28,613644e5aef603efabf2496f,,"[""comma"",""period"",""period""]",0,"[0.0010000000000331966,0.42600000000004457,1.4290000000000305]",45,0,45,0,1
,,,,,,61322447efdb668e0b2e4f21,,,,,,61322447efdb668e0b2e4f21,Kobieta,18,2021-09-06_18h44.17.078,rantool2,2021.1.4,Win32,29.81870229,6135e006383e6ea6c3d06a28,613644e5aef603efabf2496f,,"[""comma""]",0,[1.254000000000019],46,0,46,0,1
,,,,,,61322447efdb668e0b2e4f21,,,,,,61322447efdb668e0b2e4f21,Kobieta,18,2021-09-06_18h44.17.078,rantool2,2021.1.4,Win32,29.81870229,6135e006383e6ea6c3d06a28,613644e5aef603efabf2496f,,"[""period"",""comma""]",0,"[0.2939999999999827,1.5079999999999814]",47,0,47,0,1
,,,,,,61322447efdb668e0b2e4f21,,,,,,61322447efdb668e0b2e4f21,Kobieta,18,2021-09-06_18h44.17.078,rantool2,2021.1.4,Win32,29.81870229,6135e006383e6ea6c3d06a28,613644e5aef603efabf2496f,,"[""period""]",0,[0.45799999999997],48,0,48,0,1
,,,,,,61322447efdb668e0b2e4f21,,,,,,61322447efdb668e0b2e4f21,Kobieta,18,2021-09-06_18h44.17.078,rantool2,2021.1.4,Win32,29.81870229,6135e006383e6ea6c3d06a28,613644e5aef603efabf2496f,,"[""comma""]",0,[0.2909999999999968],49,0,49,0,1
,,,,,,61322447efdb668e0b2e4f21,,,,,,61322447efdb668e0b2e4f21,Kobieta,18,2021-09-06_18h44.17.078,rantool2,2021.1.4,Win32,29.81870229,6135e006383e6ea6c3d06a28,613644e5aef603efabf2496f,,"[""period"",""comma""]",0,"[0.6700000000000159,1.1399999999999864]",50,0,50,0,1
,,,,,,61322447efdb668e0b2e4f21,,,,,,61322447efdb668e0b2e4f21,Kobieta,18,2021-09-06_18h44.17.078,rantool2,2021.1.4,Win32,29.81870229,6135e006383e6ea6c3d06a28,613644e5aef603efabf2496f,,"[""period""]",0,[0.9200000000000159],51,0,51,0,1
,,,,,,61322447efdb668e0b2e4f21,,,,,,61322447efdb668e0b2e4f21,Kobieta,18,2021-09-06_18h44.17.078,rantool2,2021.1.4,Win32,29.81870229,6135e006383e6ea6c3d06a28,613644e5aef603efabf2496f,,"[""period"",""comma"",""period""]",0,"[0.17099999999999227,1.016999999999996,1.5960000000000036]",52,0,52,0,1
,,,,,,61322447efdb668e0b2e4f21,,,,,,61322447efdb668e0b2e4f21,Kobieta,18,2021-09-06_18h44.17.078,rantool2,2021.1.4,Win32,29.81870229,6135e006383e6ea6c3d06a28,613644e5aef603efabf2496f,,"[""comma"",""comma""]",0,"[0.08400000000000318,0.3059999999999832]",53,0,53,0,1
,,,,,,61322447efdb668e0b2e4f21,,,,,,61322447efdb668e0b2e4f21,Kobieta,18,2021-09-06_18h44.17.078,rantool2,2021.1.4,Win32,29.81870229,6135e006383e6ea6c3d06a28,613644e5aef603efabf2496f,,"[""period""]",0,[1.035000000000025],54,0,54,0,1
,,,,,,61322447efdb668e0b2e4f21,,,,,,61322447efdb668e0b2e4f21,Kobieta,18,2021-09-06_18h44.17.078,rantool2,2021.1.4,Win32,29.81870229,6135e006383e6ea6c3d06a28,613644e5aef603efabf2496f,,"[""comma"",""period""]",0,"[0.2909999999999968,0.38400000000001455]",55,0,55,0,1
,,,,,,61322447efdb668e0b2e4f21,,,,,,61322447efdb668e0b2e4f21,Kobieta,18,2021-09-06_18h44.17.078,rantool2,2021.1.4,Win32,29.81870229,6135e006383e6ea6c3d06a28,613644e5aef603efabf2496f,,"[""period"",""comma"",""period""]",0,"[0.17300000000000182,0.7699999999999818,1.2730000000000246]",56,0,56,0,1
,,,,,,61322447efdb668e0b2e4f21,,,,,,61322447efdb668e0b2e4f21,Kobieta,18,2021-09-06_18h44.17.078,rantool2,2021.1.4,Win32,29.81870229,6135e006383e6ea6c3d06a28,613644e5aef603efabf2496f,,"[""period""]",0,[0.9630000000000223],57,0,57,0,1
,,,,,,61322447efdb668e0b2e4f21,,,,,,61322447efdb668e0b2e4f21,Kobieta,18,2021-09-06_18h44.17.078,rantool2,2021.1.4,Win32,29.81870229,6135e006383e6ea6c3d06a28,613644e5aef603efabf2496f,,"[""period""]",0,[1.0430000000000064],58,0,58,0,1
,,,,,,61322447efdb668e0b2e4f21,,,,,,61322447efdb668e0b2e4f21,Kobieta,18,2021-09-06_18h44.17.078,rantool2,2021.1.4,Win32,29.81870229,6135e006383e6ea6c3d06a28,613644e5aef603efabf2496f,,"[""comma"",""period""]",0,"[0.0010000000000331966,0.8450000000000273]",59,0,59,0,1
,,,,,,61322447efdb668e0b2e4f21,,,,,,61322447efdb668e0b2e4f21,Kobieta,18,2021-09-06_18h44.17.078,rantool2,2021.1.4,Win32,29.81870229,6135e006383e6ea6c3d06a28,613644e5aef603efabf2496f,,"[""period"",""comma"",""period"",""period""]",0,"[0.16699999999997317,0.7559999999999718,1.419999999999959,1.84699999999998]",60,0,60,0,1
,,,,,,61322447efdb668e0b2e4f21,,,,,,61322447efdb668e0b2e4f21,Kobieta,18,2021-09-06_18h44.17.078,rantool2,2021.1.4,Win32,29.81870229,6135e006383e6ea6c3d06a28,613644e5aef603efabf2496f,,"[""comma""]",0,[0.6340000000000146],61,0,61,0,1
,,,,,,61322447efdb668e0b2e4f21,,,,,,61322447efdb668e0b2e4f21,Kobieta,18,2021-09-06_18h44.17.078,rantool2,2021.1.4,Win32,29.81870229,6135e006383e6ea6c3d06a28,613644e5aef603efabf2496f,,"[""period"",""comma""]",0,"[0.5910000000000082,1.8129999999999882]",62,0,62,0,1
,,,,,,61322447efdb668e0b2e4f21,,,,,,61322447efdb668e0b2e4f21,Kobieta,18,2021-09-06_18h44.17.078,rantool2,2021.1.4,Win32,29.81870229,6135e006383e6ea6c3d06a28,613644e5aef603efabf2496f,,"[""comma"",""period""]",0,"[0.5459999999999923,1.132000000000005]",63,0,63,0,1
,,,,,,61322447efdb668e0b2e4f21,,,,,,61322447efdb668e0b2e4f21,Kobieta,18,2021-09-06_18h44.17.078,rantool2,2021.1.4,Win32,29.81870229,6135e006383e6ea6c3d06a28,613644e5aef603efabf2496f,,"[""period""]",0,[0.33300000000002683],64,0,64,0,1
,,,,,,61322447efdb668e0b2e4f21,,,,,,61322447efdb668e0b2e4f21,Kobieta,18,2021-09-06_18h44.17.078,rantool2,2021.1.4,Win32,29.81870229,6135e006383e6ea6c3d06a28,613644e5aef603efabf2496f,,"[""period""]",0,[0.5469999999999686],65,0,65,0,1
,,,,,,61322447efdb668e0b2e4f21,,,,,,61322447efdb668e0b2e4f21,Kobieta,18,2021-09-06_18h44.17.078,rantool2,2021.1.4,Win32,29.81870229,6135e006383e6ea6c3d06a28,613644e5aef603efabf2496f,,"[""period""]",0,[0.5849999999999795],66,0,66,0,1
,,,,,,61322447efdb668e0b2e4f21,,,,,,61322447efdb668e0b2e4f21,Kobieta,18,2021-09-06_18h44.17.078,rantool2,2021.1.4,Win32,29.81870229,6135e006383e6ea6c3d06a28,613644e5aef603efabf2496f,,"[""comma""]",0,[0.8380000000000223],67,0,67,0,1
,,,,,,61322447efdb668e0b2e4f21,,,,,,61322447efdb668e0b2e4f21,Kobieta,18,2021-09-06_18h44.17.078,rantool2,2021.1.4,Win32,29.81870229,6135e006383e6ea6c3d06a28,613644e5aef603efabf2496f,,"[""period""]",0,[1.426999999999964],68,0,68,0,1
,,,,,,61322447efdb668e0b2e4f21,,,,,,61322447efdb668e0b2e4f21,Kobieta,18,2021-09-06_18h44.17.078,rantool2,2021.1.4,Win32,29.81870229,6135e006383e6ea6c3d06a28,613644e5aef603efabf2496f,,"[""comma"",""period""]",0,"[1.1750000000000114,1.507000000000005]",69,0,69,0,1
,,,,,,61322447efdb668e0b2e4f21,,,,,,61322447efdb668e0b2e4f21,Kobieta,18,2021-09-06_18h44.17.078,rantool2,2021.1.4,Win32,29.81870229,6135e006383e6ea6c3d06a28,613644e5aef603efabf2496f,,"[""comma"",""comma""]",0,"[-0.040000000000020464,0.18099999999998317]",70,0,70,0,1
,,,,,,61322447efdb668e0b2e4f21,,,,,,61322447efdb668e0b2e4f21,Kobieta,18,2021-09-06_18h44.17.078,rantool2,2021.1.4,Win32,29.81870229,6135e006383e6ea6c3d06a28,613644e5aef603efabf2496f,,"[""period""]",0,[0.6689999999999827],71,0,71,0,1
,,,,,,61322447efdb668e0b2e4f21,,,,,,61322447efdb668e0b2e4f21,Kobieta,18,2021-09-06_18h44.17.078,rantool2,2021.1.4,Win32,29.81870229,6135e006383e6ea6c3d06a28,613644e5aef603efabf2496f,,"[""period"",""comma"",""period""]",0,"[0.5930000000000177,1.3360000000000127,1.5880000000000223]",72,0,72,0,1
,,,,,,61322447efdb668e0b2e4f21,,,,,,61322447efdb668e0b2e4f21,Kobieta,18,2021-09-06_18h44.17.078,rantool2,2021.1.4,Win32,29.81870229,6135e006383e6ea6c3d06a28,613644e5aef603efabf2496f,,"[""comma"",""comma"",""period"",""period"",""period""]",0,"[0.1279999999999859,0.4319999999999595,0.7789999999999964,1.2839999999999918,1.6579999999999586]",73,0,73,0,1
,,,,,,61322447efdb668e0b2e4f21,,,,,,61322447efdb668e0b2e4f21,Kobieta,18,2021-09-06_18h44.17.078,rantool2,2021.1.4,Win32,29.81870229,6135e006383e6ea6c3d06a28,613644e5aef603efabf2496f,,"[""comma"",""period""]",0,"[0.4230000000000018,1.7010000000000218]",74,0,74,0,1
,,,,,,61322447efdb668e0b2e4f21,,,,,,61322447efdb668e0b2e4f21,Kobieta,18,2021-09-06_18h44.17.078,rantool2,2021.1.4,Win32,29.81870229,6135e006383e6ea6c3d06a28,613644e5aef603efabf2496f,,"[""comma"",""period""]",0,"[0.5509999999999877,1.7490000000000236]",75,0,75,0,1
,,,,,,61322447efdb668e0b2e4f21,,,,,,61322447efdb668e0b2e4f21,Kobieta,18,2021-09-06_18h44.17.078,rantool2,2021.1.4,Win32,29.81870229,6135e006383e6ea6c3d06a28,613644e5aef603efabf2496f,,"[""period"",""period"",""comma""]",0,"[0.42200000000002547,0.8509999999999991,1.26400000000001]",76,0,76,0,1
,,,,,,61322447efdb668e0b2e4f21,,,,,,61322447efdb668e0b2e4f21,Kobieta,18,2021-09-06_18h44.17.078,rantool2,2021.1.4,Win32,29.81870229,6135e006383e6ea6c3d06a28,613644e5aef603efabf2496f,,"[""period"",""period"",""period"",""comma""]",0,"[0.3380000000000223,0.8059999999999832,1.3129999999999882,1.6879999999999882]",77,0,77,0,1
,,,,,,61322447efdb668e0b2e4f21,,,,,,61322447efdb668e0b2e4f21,Kobieta,18,2021-09-06_18h44.17.078,rantool2,2021.1.4,Win32,29.81870229,6135e006383e6ea6c3d06a28,613644e5aef603efabf2496f,,"[""comma"",""comma"",""period"",""period""]",0,"[0.33600000000001273,0.7690000000000055,1.18100000000004,1.7200000000000273]",78,0,78,0,1
,,,,,,61322447efdb668e0b2e4f21,,,,,,61322447efdb668e0b2e4f21,Kobieta,18,2021-09-06_18h44.17.078,rantool2,2021.1.4,Win32,29.81870229,6135e006383e6ea6c3d06a28,613644e5aef603efabf2496f,,"[""period"",""comma""]",0,"[0.17000000000001592,1.0989999999999895]",79,0,79,0,1
,,,,,,61322447efdb668e0b2e4f21,,,,,,61322447efdb668e0b2e4f21,Kobieta,18,2021-09-06_18h44.17.078,rantool2,2021.1.4,Win32,29.81870229,6135e006383e6ea6c3d06a28,613644e5aef603efabf2496f,,"[""period"",""period"",""comma""]",0,"[0.04299999999994952,1.1309999999999718,1.759999999999991]",80,0,80,0,1
,,,,,,61322447efdb668e0b2e4f21,,,,,,61322447efdb668e0b2e4f21,Kobieta,18,2021-09-06_18h44.17.078,rantool2,2021.1.4,Win32,29.81870229,6135e006383e6ea6c3d06a28,613644e5aef603efabf2496f,,"[""period"",""comma""]",0,"[0.2540000000000191,1.0409999999999968]",81,0,81,0,1
,,,,,,61322447efdb668e0b2e4f21,,,,,,61322447efdb668e0b2e4f21,Kobieta,18,2021-09-06_18h44.17.078,rantool2,2021.1.4,Win32,29.81870229,6135e006383e6ea6c3d06a28,613644e5aef603efabf2496f,,"[""period"",""comma"",""period""]",0,"[0.632000000000005,1.1000000000000227,1.6859999999999786]",82,0,82,0,1
,,,,,,61322447efdb668e0b2e4f21,,,,,,61322447efdb668e0b2e4f21,Kobieta,18,2021-09-06_18h44.17.078,rantool2,2021.1.4,Win32,29.81870229,6135e006383e6ea6c3d06a28,613644e5aef603efabf2496f,,"[""period"",""period"",""comma""]",0,"[0.21200000000010277,0.97300000000007,1.7270000000000891]",83,0,83,0,1
,,,,,,61322447efdb668e0b2e4f21,,,,,,61322447efdb668e0b2e4f21,Kobieta,18,2021-09-06_18h44.17.078,rantool2,2021.1.4,Win32,29.81870229,6135e006383e6ea6c3d06a28,613644e5aef603efabf2496f,,"[""comma"",""period""]",0,"[0.8759999999999764,1.509999999999991]",84,0,84,0,1
,,,,,,61322447efdb668e0b2e4f21,,,,,,61322447efdb668e0b2e4f21,Kobieta,18,2021-09-06_18h44.17.078,rantool2,2021.1.4,Win32,29.81870229,6135e006383e6ea6c3d06a28,613644e5aef603efabf2496f,,"[""comma""]",0,[0.5020000000000664],85,0,85,0,1
,,,,,,61322447efdb668e0b2e4f21,,,,,,61322447efdb668e0b2e4f21,Kobieta,18,2021-09-06_18h44.17.078,rantool2,2021.1.4,Win32,29.81870229,6135e006383e6ea6c3d06a28,613644e5aef603efabf2496f,,"[""period"",""comma"",""period""]",0,"[0.6280000000000427,1.2520000000000664,1.7019999999999982]",86,0,86,0,1
,,,,,,61322447efdb668e0b2e4f21,,,,,,61322447efdb668e0b2e4f21,Kobieta,18,2021-09-06_18h44.17.078,rantool2,2021.1.4,Win32,29.81870229,6135e006383e6ea6c3d06a28,613644e5aef603efabf2496f,,"[""comma""]",0,[1.4950000000000045],87,0,87,0,1
,,,,,,61322447efdb668e0b2e4f21,,,,,,61322447efdb668e0b2e4f21,Kobieta,18,2021-09-06_18h44.17.078,rantool2,2021.1.4,Win32,29.81870229,6135e006383e6ea6c3d06a28,613644e5aef603efabf2496f,,"[""comma""]",0,[-0.04000000000007731],88,0,88,0,1
,,,,,,61322447efdb668e0b2e4f21,,,,,,61322447efdb668e0b2e4f21,Kobieta,18,2021-09-06_18h44.17.078,rantool2,2021.1.4,Win32,29.81870229,6135e006383e6ea6c3d06a28,613644e5aef603efabf2496f,,0,0,,89,0,89,0,1
,,,,,,61322447efdb668e0b2e4f21,,,,,,61322447efdb668e0b2e4f21,Kobieta,18,2021-09-06_18h44.17.078,rantool2,2021.1.4,Win32,29.81870229,6135e006383e6ea6c3d06a28,613644e5aef603efabf2496f,,0,0,,90,0,90,0,1
,,,,,,61322447efdb668e0b2e4f21,,,,,,61322447efdb668e0b2e4f21,Kobieta,18,2021-09-06_18h44.17.078,rantool2,2021.1.4,Win32,29.81870229,6135e006383e6ea6c3d06a28,613644e5aef603efabf2496f,,"[""period"",""period""]",0,"[0.80600000000004,1.2690000000000055]",91,0,91,0,1
,,,,,,61322447efdb668e0b2e4f21,,,,,,61322447efdb668e0b2e4f21,Kobieta,18,2021-09-06_18h44.17.078,rantool2,2021.1.4,Win32,29.81870229,6135e006383e6ea6c3d06a28,613644e5aef603efabf2496f,,"[""comma"",""comma""]",0,"[0.29200000000003,0.76400000000001]",92,0,92,0,1
,,,,,,61322447efdb668e0b2e4f21,,,,,,61322447efdb668e0b2e4f21,Kobieta,18,2021-09-06_18h44.17.078,rantool2,2021.1.4,Win32,29.81870229,6135e006383e6ea6c3d06a28,613644e5aef603efabf2496f,,"[""period"",""period"",""comma""]",0,"[0.6770000000000209,1.058999999999969,1.7300000000000182]",93,0,93,0,1
,,,,,,61322447efdb668e0b2e4f21,,,,,,61322447efdb668e0b2e4f21,Kobieta,18,2021-09-06_18h44.17.078,rantool2,2021.1.4,Win32,29.81870229,6135e006383e6ea6c3d06a28,613644e5aef603efabf2496f,,"[""period"",""comma"",""period"",""comma"",""comma"",""period""]",0,"[0.0019999999999527063,0.34399999999993724,0.6119999999999663,0.9879999999999427,1.2830000000000155,1.7799999999999727]",94,0,94,0,1
,,,,,,61322447efdb668e0b2e4f21,,,,,,61322447efdb668e0b2e4f21,Kobieta,18,2021-09-06_18h44.17.078,rantool2,2021.1.4,Win32,29.81870229,6135e006383e6ea6c3d06a28,613644e5aef603efabf2496f,,"[""period"",""period"",""comma""]",0,"[0.5919999999999845,1.0939999999999372,1.5949999999999136]",95,0,95,0,1
,,,,,,61322447efdb668e0b2e4f21,,,,,,61322447efdb668e0b2e4f21,Kobieta,18,2021-09-06_18h44.17.078,rantool2,2021.1.4,Win32,29.81870229,6135e006383e6ea6c3d06a28,613644e5aef603efabf2496f,,"[""period"",""comma"",""period""]",0,"[0.5920000000000982,1.1740000000000919,1.8460000000000036]",96,0,96,0,1
,,,,,,61322447efdb668e0b2e4f21,,,,,,61322447efdb668e0b2e4f21,Kobieta,18,2021-09-06_18h44.17.078,rantool2,2021.1.4,Win32,29.81870229,6135e006383e6ea6c3d06a28,613644e5aef603efabf2496f,,"[""period"",""period"",""period""]",0,"[0.6240000000000236,1.3400000000000318,1.842999999999961]",97,0,97,0,1
,,,,,,61322447efdb668e0b2e4f21,,,,,,61322447efdb668e0b2e4f21,Kobieta,18,2021-09-06_18h44.17.078,rantool2,2021.1.4,Win32,29.81870229,6135e006383e6ea6c3d06a28,613644e5aef603efabf2496f,,"[""period"",""comma"",""period"",""comma""]",0,"[0.5489999999999782,1.0090000000000146,1.3410000000000082,1.5939999999999372]",98,0,98,0,1
,,,,,,61322447efdb668e0b2e4f21,,,,,,61322447efdb668e0b2e4f21,Kobieta,18,2021-09-06_18h44.17.078,rantool2,2021.1.4,Win32,29.81870229,6135e006383e6ea6c3d06a28,613644e5aef603efabf2496f,,"[""comma"",""period"",""comma"",""period""]",0,"[0.9599999999999227,1.252999999999929,1.7189999999999372,1.8949999999999818]",99,0,99,0,1
,,,,,,61322447efdb668e0b2e4f21,,,,,,61322447efdb668e0b2e4f21,Kobieta,18,2021-09-06_18h44.17.078,rantool2,2021.1.4,Win32,29.81870229,6135e006383e6ea6c3d06a28,613644e5aef603efabf2496f,,0,0,,100,0,100,0,1
,,,,,,61322447efdb668e0b2e4f21,,,,,,61322447efdb668e0b2e4f21,Kobieta,18,2021-09-06_18h44.17.078,rantool2,2021.1.4,Win32,29.81870229,6135e006383e6ea6c3d06a28,613644e5aef603efabf2496f,,0,0,,101,0,101,0,1
,,,,,,61322447efdb668e0b2e4f21,,,,,,61322447efdb668e0b2e4f21,Kobieta,18,2021-09-06_18h44.17.078,rantool2,2021.1.4,Win32,29.81870229,6135e006383e6ea6c3d06a28,613644e5aef603efabf2496f,,"[""period""]",0,[1.6200000000000045],102,0,102,0,1
,,,,,,61322447efdb668e0b2e4f21,,,,,,61322447efdb668e0b2e4f21,Kobieta,18,2021-09-06_18h44.17.078,rantool2,2021.1.4,Win32,29.81870229,6135e006383e6ea6c3d06a28,613644e5aef603efabf2496f,,"[""comma"",""period"",""comma"",""period""]",0,"[0.0009999999999763531,0.2179999999999609,1.18100000000004,1.7160000000000082]",103,0,103,0,1
,,,,,,61322447efdb668e0b2e4f21,,,,,,61322447efdb668e0b2e4f21,Kobieta,18,2021-09-06_18h44.17.078,rantool2,2021.1.4,Win32,29.81870229,6135e006383e6ea6c3d06a28,613644e5aef603efabf2496f,,"[""comma"",""comma""]",0,"[1.3719999999999573,1.6240000000000236]",104,0,104,0,1
,,,,,,61322447efdb668e0b2e4f21,,,,,,61322447efdb668e0b2e4f21,Kobieta,18,2021-09-06_18h44.17.078,rantool2,2021.1.4,Win32,29.81870229,6135e006383e6ea6c3d06a28,613644e5aef603efabf2496f,,"[""period""]",0,[0.00100000000009004],105,0,105,0,1
,,,,,,61322447efdb668e0b2e4f21,,,,,,61322447efdb668e0b2e4f21,Kobieta,18,2021-09-06_18h44.17.078,rantool2,2021.1.4,Win32,29.81870229,6135e006383e6ea6c3d06a28,613644e5aef603efabf2496f,,"[""period"",""comma"",""period""]",0,"[0.25299999999992906,0.7429999999999382,1.0799999999999272]",106,0,106,0,1
,,,,,,61322447efdb668e0b2e4f21,,,,,,61322447efdb668e0b2e4f21,Kobieta,18,2021-09-06_18h44.17.078,rantool2,2021.1.4,Win32,29.81870229,6135e006383e6ea6c3d06a28,613644e5aef603efabf2496f,,"[""comma""]",0,[0.00100000000009004],107,0,107,0,1
,,,,,,61322447efdb668e0b2e4f21,,,,,,61322447efdb668e0b2e4f21,Kobieta,18,2021-09-06_18h44.17.078,rantool2,2021.1.4,Win32,29.81870229,6135e006383e6ea6c3d06a28,613644e5aef603efabf2496f,,0,0,,108,0,108,0,1
,,,,,,61322447efdb668e0b2e4f21,,,,,,61322447efdb668e0b2e4f21,Kobieta,18,2021-09-06_18h44.17.078,rantool2,2021.1.4,Win32,29.81870229,6135e006383e6ea6c3d06a28,613644e5aef603efabf2496f,,"[""period""]",0,[0.04500000000007276],109,0,109,0,1
,,,,,,61322447efdb668e0b2e4f21,,,,,,61322447efdb668e0b2e4f21,Kobieta,18,2021-09-06_18h44.17.078,rantool2,2021.1.4,Win32,29.81870229,6135e006383e6ea6c3d06a28,613644e5aef603efabf2496f,,"[""period"",""comma"",""period""]",0,"[1.04200000000003,1.5830000000000837,1.7940000000000964]",110,0,110,0,1
,,,,,,61322447efdb668e0b2e4f21,,,,,,61322447efdb668e0b2e4f21,Kobieta,18,2021-09-06_18h44.17.078,rantool2,2021.1.4,Win32,29.81870229,6135e006383e6ea6c3d06a28,613644e5aef603efabf2496f,,"[""comma"",""comma""]",0,"[0.25300000000004275,0.6850000000000591]",111,0,111,0,1
,,,,,,61322447efdb668e0b2e4f21,,,,,,61322447efdb668e0b2e4f21,Kobieta,18,2021-09-06_18h44.17.078,rantool2,2021.1.4,Win32,29.81870229,6135e006383e6ea6c3d06a28,613644e5aef603efabf2496f,,"[""comma"",""period"",""comma""]",0,"[0.1289999999999054,0.38400000000001455,1.6319999999999482]",112,0,112,0,1
,,,,,,61322447efdb668e0b2e4f21,,,,,,61322447efdb668e0b2e4f21,Kobieta,18,2021-09-06_18h44.17.078,rantool2,2021.1.4,Win32,29.81870229,6135e006383e6ea6c3d06a28,613644e5aef603efabf2496f,,"[""period"",""comma""]",0,"[0.1290000000000191,1.7129999999999654]",113,0,113,0,1
,,,,,,61322447efdb668e0b2e4f21,,,,,,61322447efdb668e0b2e4f21,Kobieta,18,2021-09-06_18h44.17.078,rantool2,2021.1.4,Win32,29.81870229,6135e006383e6ea6c3d06a28,613644e5aef603efabf2496f,,"[""period""]",0,[0.21100000000001273],114,0,114,0,1
,,,,,,61322447efdb668e0b2e4f21,,,,,,61322447efdb668e0b2e4f21,Kobieta,18,2021-09-06_18h44.17.078,rantool2,2021.1.4,Win32,29.81870229,6135e006383e6ea6c3d06a28,613644e5aef603efabf2496f,,"[""period"",""period""]",0,"[0.125,1.4549999999999272]",115,0,115,0,1
,,,,,,61322447efdb668e0b2e4f21,,,,,,61322447efdb668e0b2e4f21,Kobieta,18,2021-09-06_18h44.17.078,rantool2,2021.1.4,Win32,29.81870229,6135e006383e6ea6c3d06a28,613644e5aef603efabf2496f,,"[""period"",""comma""]",0,"[0.5899999999999181,1.8269999999999982]",116,0,116,0,1
,,,,,,61322447efdb668e0b2e4f21,,,,,,61322447efdb668e0b2e4f21,Kobieta,18,2021-09-06_18h44.17.078,rantool2,2021.1.4,Win32,29.81870229,6135e006383e6ea6c3d06a28,613644e5aef603efabf2496f,,"[""period"",""period""]",0,"[0.29200000000003,0.8020000000000209]",117,0,117,0,1
,,,,,,61322447efdb668e0b2e4f21,,,,,,61322447efdb668e0b2e4f21,Kobieta,18,2021-09-06_18h44.17.078,rantool2,2021.1.4,Win32,29.81870229,6135e006383e6ea6c3d06a28,613644e5aef603efabf2496f,,"[""comma""]",0,[0.0009999999999763531],118,0,118,0,1
,,,,,,61322447efdb668e0b2e4f21,,,,,,61322447efdb668e0b2e4f21,Kobieta,18,2021-09-06_18h44.17.078,rantool2,2021.1.4,Win32,29.81870229,6135e006383e6ea6c3d06a28,613644e5aef603efabf2496f,,0,0,,119,0,119,0,1
