key_resp_7.keys,key_resp_7.rt,trials_2.thisRepN,trials_2.thisTrialN,trials_2.thisN,trials_2.thisIndex,trials_2.ran,id,series_0,series_1,acss_0,acss_1,comparison,id*,Płeć*,Wiek*,date,expName,psychopyVersion,OS,frameRate,STUDY_ID,SESSION_ID,key_resp_5.keys,key_resp_5.corr,key_resp_5.rt,trials.thisRepN,trials.thisTrialN,trials.thisN,trials.thisIndex,trials.ran
f,2.5402,0,0,0,17,1,5fae3c8cd65fe6291c614cce,OROOORO,OROOORR,21.03750787,22.12173012,series_1,5fae3c8cd65fe6291c614cce,Mężczyzna,23,2021-09-06_19h24.10.524,rantool2,2021.1.4,Win32,59.69080165,6135e006383e6ea6c3d06a28,61364e9db14b6a14215aa390,,,,,,,,
j,1.5361,0,1,1,43,1,5fae3c8cd65fe6291c614cce,RORORRO,RORORRR,20.71309134,21.07490964,series_1,5fae3c8cd65fe6291c614cce,Mężczyzna,23,2021-09-06_19h24.10.524,rantool2,2021.1.4,Win32,59.69080165,6135e006383e6ea6c3d06a28,61364e9db14b6a14215aa390,,,,,,,,
f,1.5506,0,2,2,1,1,5fae3c8cd65fe6291c614cce,OOOOORO,OOOOORR,19.92253567,20.74050628,series_1,5fae3c8cd65fe6291c614cce,Mężczyzna,23,2021-09-06_19h24.10.524,rantool2,2021.1.4,Win32,59.69080165,6135e006383e6ea6c3d06a28,61364e9db14b6a14215aa390,,,,,,,,
f,1.7959,0,3,3,11,1,5fae3c8cd65fe6291c614cce,OORORRO,OORORRR,22.18365867,22.6797523,series_1,5fae3c8cd65fe6291c614cce,Mężczyzna,23,2021-09-06_19h24.10.524,rantool2,2021.1.4,Win32,59.69080165,6135e006383e6ea6c3d06a28,61364e9db14b6a14215aa390,,,,,,,,
j,2.3709,0,4,4,13,1,5fae3c8cd65fe6291c614cce,OORRORO,OORRORR,21.66733484,22.11181017,series_1,5fae3c8cd65fe6291c614cce,Mężczyzna,23,2021-09-06_19h24.10.524,rantool2,2021.1.4,Win32,59.69080165,6135e006383e6ea6c3d06a28,61364e9db14b6a14215aa390,,,,,,,,
f,1.4864,0,5,5,60,1,5fae3c8cd65fe6291c614cce,RRRROOO,RRRROOR,22.10108823,22.15934078,series_1,5fae3c8cd65fe6291c614cce,Mężczyzna,23,2021-09-06_19h24.10.524,rantool2,2021.1.4,Win32,59.69080165,6135e006383e6ea6c3d06a28,61364e9db14b6a14215aa390,,,,,,,,
j,1.1875,0,6,6,18,1,5fae3c8cd65fe6291c614cce,OROOROO,OROOROR,20.84860893,21.22513037,series_1,5fae3c8cd65fe6291c614cce,Mężczyzna,23,2021-09-06_19h24.10.524,rantool2,2021.1.4,Win32,59.69080165,6135e006383e6ea6c3d06a28,61364e9db14b6a14215aa390,,,,,,,,
f,1.3693,0,7,7,61,1,5fae3c8cd65fe6291c614cce,RRRRORO,RRRRORR,21.81333602,21.17347734,series_0,5fae3c8cd65fe6291c614cce,Mężczyzna,23,2021-09-06_19h24.10.524,rantool2,2021.1.4,Win32,59.69080165,6135e006383e6ea6c3d06a28,61364e9db14b6a14215aa390,,,,,,,,
j,1.8264,0,8,8,49,1,5fae3c8cd65fe6291c614cce,RROOORO,RROOORR,21.76276513,22.53364006,series_1,5fae3c8cd65fe6291c614cce,Mężczyzna,23,2021-09-06_19h24.10.524,rantool2,2021.1.4,Win32,59.69080165,6135e006383e6ea6c3d06a28,61364e9db14b6a14215aa390,,,,,,,,
f,1.467,0,9,9,12,1,5fae3c8cd65fe6291c614cce,OORROOO,OORROOR,21.30250474,22.02786418,series_1,5fae3c8cd65fe6291c614cce,Mężczyzna,23,2021-09-06_19h24.10.524,rantool2,2021.1.4,Win32,59.69080165,6135e006383e6ea6c3d06a28,61364e9db14b6a14215aa390,,,,,,,,
j,1.5166,0,10,10,27,1,5fae3c8cd65fe6291c614cce,ORRORRO,ORRORRR,21.55250791,22.2428857,series_1,5fae3c8cd65fe6291c614cce,Mężczyzna,23,2021-09-06_19h24.10.524,rantool2,2021.1.4,Win32,59.69080165,6135e006383e6ea6c3d06a28,61364e9db14b6a14215aa390,,,,,,,,
f,1.2794,0,11,11,14,1,5fae3c8cd65fe6291c614cce,OORRROO,OORRROR,22.24142883,22.16977179,series_0,5fae3c8cd65fe6291c614cce,Mężczyzna,23,2021-09-06_19h24.10.524,rantool2,2021.1.4,Win32,59.69080165,6135e006383e6ea6c3d06a28,61364e9db14b6a14215aa390,,,,,,,,
j,1.7072,0,12,12,20,1,5fae3c8cd65fe6291c614cce,OROROOO,OROROOR,21.31236711,21.90565814,series_1,5fae3c8cd65fe6291c614cce,Mężczyzna,23,2021-09-06_19h24.10.524,rantool2,2021.1.4,Win32,59.69080165,6135e006383e6ea6c3d06a28,61364e9db14b6a14215aa390,,,,,,,,
j,1.8093,0,13,13,54,1,5fae3c8cd65fe6291c614cce,RRORROO,RRORROR,21.55250791,20.9984461,series_0,5fae3c8cd65fe6291c614cce,Mężczyzna,23,2021-09-06_19h24.10.524,rantool2,2021.1.4,Win32,59.69080165,6135e006383e6ea6c3d06a28,61364e9db14b6a14215aa390,,,,,,,,
j,2.0166,0,14,14,24,1,5fae3c8cd65fe6291c614cce,ORROOOO,ORROOOR,21.12383932,22.07102821,series_1,5fae3c8cd65fe6291c614cce,Mężczyzna,23,2021-09-06_19h24.10.524,rantool2,2021.1.4,Win32,59.69080165,6135e006383e6ea6c3d06a28,61364e9db14b6a14215aa390,,,,,,,,
f,1.7427,0,15,15,50,1,5fae3c8cd65fe6291c614cce,RROOROO,RROOROR,21.73568164,22.02566557,series_1,5fae3c8cd65fe6291c614cce,Mężczyzna,23,2021-09-06_19h24.10.524,rantool2,2021.1.4,Win32,59.69080165,6135e006383e6ea6c3d06a28,61364e9db14b6a14215aa390,,,,,,,,
j,1.4247,0,16,16,48,1,5fae3c8cd65fe6291c614cce,RROOOOO,RROOOOR,20.90986523,22.15934078,series_1,5fae3c8cd65fe6291c614cce,Mężczyzna,23,2021-09-06_19h24.10.524,rantool2,2021.1.4,Win32,59.69080165,6135e006383e6ea6c3d06a28,61364e9db14b6a14215aa390,,,,,,,,
f,1.3194,0,17,17,7,1,5fae3c8cd65fe6291c614cce,OOORRRO,OOORRRR,21.6194508,21.899017,series_1,5fae3c8cd65fe6291c614cce,Mężczyzna,23,2021-09-06_19h24.10.524,rantool2,2021.1.4,Win32,59.69080165,6135e006383e6ea6c3d06a28,61364e9db14b6a14215aa390,,,,,,,,
f,1.3686,0,18,18,46,1,5fae3c8cd65fe6291c614cce,RORRROO,RORRROR,22.00300695,21.24781509,series_0,5fae3c8cd65fe6291c614cce,Mężczyzna,23,2021-09-06_19h24.10.524,rantool2,2021.1.4,Win32,59.69080165,6135e006383e6ea6c3d06a28,61364e9db14b6a14215aa390,,,,,,,,
f,1.8801,0,19,19,30,1,5fae3c8cd65fe6291c614cce,ORRRROO,ORRRROR,22.46748491,22.03072203,series_0,5fae3c8cd65fe6291c614cce,Mężczyzna,23,2021-09-06_19h24.10.524,rantool2,2021.1.4,Win32,59.69080165,6135e006383e6ea6c3d06a28,61364e9db14b6a14215aa390,,,,,,,,
j,1.3836,0,20,20,59,1,5fae3c8cd65fe6291c614cce,RRRORRO,RRRORRR,21.56657303,20.89823192,series_0,5fae3c8cd65fe6291c614cce,Mężczyzna,23,2021-09-06_19h24.10.524,rantool2,2021.1.4,Win32,59.69080165,6135e006383e6ea6c3d06a28,61364e9db14b6a14215aa390,,,,,,,,
j,1.7197,0,21,21,45,1,5fae3c8cd65fe6291c614cce,RORRORO,RORRORR,20.78182524,21.22513037,series_1,5fae3c8cd65fe6291c614cce,Mężczyzna,23,2021-09-06_19h24.10.524,rantool2,2021.1.4,Win32,59.69080165,6135e006383e6ea6c3d06a28,61364e9db14b6a14215aa390,,,,,,,,
j,2.2587,0,22,22,51,1,5fae3c8cd65fe6291c614cce,RROORRO,RROORRR,21.89852628,22.02786418,series_1,5fae3c8cd65fe6291c614cce,Mężczyzna,23,2021-09-06_19h24.10.524,rantool2,2021.1.4,Win32,59.69080165,6135e006383e6ea6c3d06a28,61364e9db14b6a14215aa390,,,,,,,,
f,1.3121,0,23,23,40,1,5fae3c8cd65fe6291c614cce,ROROOOO,ROROOOR,20.87963819,21.37121559,series_1,5fae3c8cd65fe6291c614cce,Mężczyzna,23,2021-09-06_19h24.10.524,rantool2,2021.1.4,Win32,59.69080165,6135e006383e6ea6c3d06a28,61364e9db14b6a14215aa390,,,,,,,,
j,1.2592,0,24,24,5,1,5fae3c8cd65fe6291c614cce,OOORORO,OOORORR,20.87963819,21.9921709,series_1,5fae3c8cd65fe6291c614cce,Mężczyzna,23,2021-09-06_19h24.10.524,rantool2,2021.1.4,Win32,59.69080165,6135e006383e6ea6c3d06a28,61364e9db14b6a14215aa390,,,,,,,,
f,1.93,0,25,25,33,1,5fae3c8cd65fe6291c614cce,ROOOORO,ROOOORR,20.83779602,22.03072203,series_1,5fae3c8cd65fe6291c614cce,Mężczyzna,23,2021-09-06_19h24.10.524,rantool2,2021.1.4,Win32,59.69080165,6135e006383e6ea6c3d06a28,61364e9db14b6a14215aa390,,,,,,,,
j,1.6713,0,26,26,4,1,5fae3c8cd65fe6291c614cce,OOOROOO,OOOROOR,19.91402015,21.21223021,series_1,5fae3c8cd65fe6291c614cce,Mężczyzna,23,2021-09-06_19h24.10.524,rantool2,2021.1.4,Win32,59.69080165,6135e006383e6ea6c3d06a28,61364e9db14b6a14215aa390,,,,,,,,
j,2.7674,0,27,27,16,1,5fae3c8cd65fe6291c614cce,OROOOOO,OROOOOR,20.43051175,21.17347734,series_1,5fae3c8cd65fe6291c614cce,Mężczyzna,23,2021-09-06_19h24.10.524,rantool2,2021.1.4,Win32,59.69080165,6135e006383e6ea6c3d06a28,61364e9db14b6a14215aa390,,,,,,,,
j,1.8799,0,28,28,38,1,5fae3c8cd65fe6291c614cce,ROORROO,ROORROR,21.79500819,21.36812781,series_0,5fae3c8cd65fe6291c614cce,Mężczyzna,23,2021-09-06_19h24.10.524,rantool2,2021.1.4,Win32,59.69080165,6135e006383e6ea6c3d06a28,61364e9db14b6a14215aa390,,,,,,,,
f,1.1832,0,29,29,36,1,5fae3c8cd65fe6291c614cce,ROOROOO,ROOROOR,21.07991943,20.9984461,series_0,5fae3c8cd65fe6291c614cce,Mężczyzna,23,2021-09-06_19h24.10.524,rantool2,2021.1.4,Win32,59.69080165,6135e006383e6ea6c3d06a28,61364e9db14b6a14215aa390,,,,,,,,
j,1.2452,0,30,30,6,1,5fae3c8cd65fe6291c614cce,OOORROO,OOORROR,21.12383932,21.38562617,series_1,5fae3c8cd65fe6291c614cce,Mężczyzna,23,2021-09-06_19h24.10.524,rantool2,2021.1.4,Win32,59.69080165,6135e006383e6ea6c3d06a28,61364e9db14b6a14215aa390,,,,,,,,
j,2.5551,0,31,31,63,1,5fae3c8cd65fe6291c614cce,RRRRRRO,RRRRRRR,21.35278725,19.62521613,series_0,5fae3c8cd65fe6291c614cce,Mężczyzna,23,2021-09-06_19h24.10.524,rantool2,2021.1.4,Win32,59.69080165,6135e006383e6ea6c3d06a28,61364e9db14b6a14215aa390,,,,,,,,
j,2.5999,0,32,32,8,1,5fae3c8cd65fe6291c614cce,OOROOOO,OOROOOR,19.91402015,20.89823192,series_1,5fae3c8cd65fe6291c614cce,Mężczyzna,23,2021-09-06_19h24.10.524,rantool2,2021.1.4,Win32,59.69080165,6135e006383e6ea6c3d06a28,61364e9db14b6a14215aa390,,,,,,,,
f,1.6034,0,33,33,10,1,5fae3c8cd65fe6291c614cce,OOROROO,OOROROR,21.31236711,21.07490964,series_0,5fae3c8cd65fe6291c614cce,Mężczyzna,23,2021-09-06_19h24.10.524,rantool2,2021.1.4,Win32,59.69080165,6135e006383e6ea6c3d06a28,61364e9db14b6a14215aa390,,,,,,,,
j,1.2591,0,34,34,26,1,5fae3c8cd65fe6291c614cce,ORROROO,ORROROR,22.02732763,21.71443381,series_0,5fae3c8cd65fe6291c614cce,Mężczyzna,23,2021-09-06_19h24.10.524,rantool2,2021.1.4,Win32,59.69080165,6135e006383e6ea6c3d06a28,61364e9db14b6a14215aa390,,,,,,,,
j,1.4953,0,35,35,53,1,5fae3c8cd65fe6291c614cce,RRORORO,RRORORR,20.71309134,21.90565814,series_1,5fae3c8cd65fe6291c614cce,Mężczyzna,23,2021-09-06_19h24.10.524,rantool2,2021.1.4,Win32,59.69080165,6135e006383e6ea6c3d06a28,61364e9db14b6a14215aa390,,,,,,,,
f,1.4542,0,36,36,52,1,5fae3c8cd65fe6291c614cce,RROROOO,RROROOR,22.18365867,22.11097995,series_0,5fae3c8cd65fe6291c614cce,Mężczyzna,23,2021-09-06_19h24.10.524,rantool2,2021.1.4,Win32,59.69080165,6135e006383e6ea6c3d06a28,61364e9db14b6a14215aa390,,,,,,,,
f,1.9218,0,37,37,41,1,5fae3c8cd65fe6291c614cce,ROROORO,ROROORR,20.42602454,21.71443381,series_1,5fae3c8cd65fe6291c614cce,Mężczyzna,23,2021-09-06_19h24.10.524,rantool2,2021.1.4,Win32,59.69080165,6135e006383e6ea6c3d06a28,61364e9db14b6a14215aa390,,,,,,,,
j,1.1872,0,38,38,55,1,5fae3c8cd65fe6291c614cce,RRORRRO,RRORRRR,21.56657303,21.21223021,series_0,5fae3c8cd65fe6291c614cce,Mężczyzna,23,2021-09-06_19h24.10.524,rantool2,2021.1.4,Win32,59.69080165,6135e006383e6ea6c3d06a28,61364e9db14b6a14215aa390,,,,,,,,
f,1.5473,0,39,39,56,1,5fae3c8cd65fe6291c614cce,RRROOOO,RRROOOR,21.6194508,22.31681875,series_1,5fae3c8cd65fe6291c614cce,Mężczyzna,23,2021-09-06_19h24.10.524,rantool2,2021.1.4,Win32,59.69080165,6135e006383e6ea6c3d06a28,61364e9db14b6a14215aa390,,,,,,,,
j,1.5399,0,40,40,35,1,5fae3c8cd65fe6291c614cce,ROOORRO,ROOORRR,21.76276513,22.16977179,series_1,5fae3c8cd65fe6291c614cce,Mężczyzna,23,2021-09-06_19h24.10.524,rantool2,2021.1.4,Win32,59.69080165,6135e006383e6ea6c3d06a28,61364e9db14b6a14215aa390,,,,,,,,
j,2.1265,0,41,41,57,1,5fae3c8cd65fe6291c614cce,RRROORO,RRROORR,21.82425538,22.07102821,series_1,5fae3c8cd65fe6291c614cce,Mężczyzna,23,2021-09-06_19h24.10.524,rantool2,2021.1.4,Win32,59.69080165,6135e006383e6ea6c3d06a28,61364e9db14b6a14215aa390,,,,,,,,
f,2.4593,0,42,42,42,1,5fae3c8cd65fe6291c614cce,ROROROO,ROROROR,20.39515459,19.8361834,series_0,5fae3c8cd65fe6291c614cce,Mężczyzna,23,2021-09-06_19h24.10.524,rantool2,2021.1.4,Win32,59.69080165,6135e006383e6ea6c3d06a28,61364e9db14b6a14215aa390,,,,,,,,
j,1.9766,0,43,43,62,1,5fae3c8cd65fe6291c614cce,RRRRROO,RRRRROR,22.16413392,21.27974287,series_0,5fae3c8cd65fe6291c614cce,Mężczyzna,23,2021-09-06_19h24.10.524,rantool2,2021.1.4,Win32,59.69080165,6135e006383e6ea6c3d06a28,61364e9db14b6a14215aa390,,,,,,,,
j,1.7369,0,44,44,15,1,5fae3c8cd65fe6291c614cce,OORRRRO,OORRRRR,22.10108823,21.74922619,series_0,5fae3c8cd65fe6291c614cce,Mężczyzna,23,2021-09-06_19h24.10.524,rantool2,2021.1.4,Win32,59.69080165,6135e006383e6ea6c3d06a28,61364e9db14b6a14215aa390,,,,,,,,
j,3.1522,0,45,45,29,1,5fae3c8cd65fe6291c614cce,ORRRORO,ORRRORR,22.00300695,22.12173012,series_1,5fae3c8cd65fe6291c614cce,Mężczyzna,23,2021-09-06_19h24.10.524,rantool2,2021.1.4,Win32,59.69080165,6135e006383e6ea6c3d06a28,61364e9db14b6a14215aa390,,,,,,,,
f,4.3491,0,46,46,19,1,5fae3c8cd65fe6291c614cce,OROORRO,OROORRR,21.73568164,22.11181017,series_1,5fae3c8cd65fe6291c614cce,Mężczyzna,23,2021-09-06_19h24.10.524,rantool2,2021.1.4,Win32,59.69080165,6135e006383e6ea6c3d06a28,61364e9db14b6a14215aa390,,,,,,,,
f,1.9,0,47,47,44,1,5fae3c8cd65fe6291c614cce,RORROOO,RORROOR,21.66733484,22.02566557,series_1,5fae3c8cd65fe6291c614cce,Mężczyzna,23,2021-09-06_19h24.10.524,rantool2,2021.1.4,Win32,59.69080165,6135e006383e6ea6c3d06a28,61364e9db14b6a14215aa390,,,,,,,,
j,1.5053,0,48,48,28,1,5fae3c8cd65fe6291c614cce,ORRROOO,ORRROOR,22.24142883,22.53364006,series_1,5fae3c8cd65fe6291c614cce,Mężczyzna,23,2021-09-06_19h24.10.524,rantool2,2021.1.4,Win32,59.69080165,6135e006383e6ea6c3d06a28,61364e9db14b6a14215aa390,,,,,,,,
f,2.4503,0,49,49,21,1,5fae3c8cd65fe6291c614cce,ORORORO,ORORORR,20.39515459,22.06781359,series_1,5fae3c8cd65fe6291c614cce,Mężczyzna,23,2021-09-06_19h24.10.524,rantool2,2021.1.4,Win32,59.69080165,6135e006383e6ea6c3d06a28,61364e9db14b6a14215aa390,,,,,,,,
j,1.9009,0,50,50,23,1,5fae3c8cd65fe6291c614cce,ORORRRO,ORORRRR,22.1285618,21.9921709,series_0,5fae3c8cd65fe6291c614cce,Mężczyzna,23,2021-09-06_19h24.10.524,rantool2,2021.1.4,Win32,59.69080165,6135e006383e6ea6c3d06a28,61364e9db14b6a14215aa390,,,,,,,,
j,1.8774,0,51,51,2,1,5fae3c8cd65fe6291c614cce,OOOOROO,OOOOROR,20.43051175,21.02936224,series_1,5fae3c8cd65fe6291c614cce,Mężczyzna,23,2021-09-06_19h24.10.524,rantool2,2021.1.4,Win32,59.69080165,6135e006383e6ea6c3d06a28,61364e9db14b6a14215aa390,,,,,,,,
f,2.0674,0,52,52,25,1,5fae3c8cd65fe6291c614cce,ORROORO,ORROORR,21.79500819,22.61624387,series_1,5fae3c8cd65fe6291c614cce,Mężczyzna,23,2021-09-06_19h24.10.524,rantool2,2021.1.4,Win32,59.69080165,6135e006383e6ea6c3d06a28,61364e9db14b6a14215aa390,,,,,,,,
f,1.9331,0,53,53,3,1,5fae3c8cd65fe6291c614cce,OOOORRO,OOOORRR,20.90986523,21.74922619,series_1,5fae3c8cd65fe6291c614cce,Mężczyzna,23,2021-09-06_19h24.10.524,rantool2,2021.1.4,Win32,59.69080165,6135e006383e6ea6c3d06a28,61364e9db14b6a14215aa390,,,,,,,,
f,1.4196,0,54,54,37,1,5fae3c8cd65fe6291c614cce,ROORORO,ROORORR,20.42602454,21.57657071,series_1,5fae3c8cd65fe6291c614cce,Mężczyzna,23,2021-09-06_19h24.10.524,rantool2,2021.1.4,Win32,59.69080165,6135e006383e6ea6c3d06a28,61364e9db14b6a14215aa390,,,,,,,,
f,2.2902,0,55,55,47,1,5fae3c8cd65fe6291c614cce,RORRRRO,RORRRRR,21.81333602,21.02936224,series_0,5fae3c8cd65fe6291c614cce,Mężczyzna,23,2021-09-06_19h24.10.524,rantool2,2021.1.4,Win32,59.69080165,6135e006383e6ea6c3d06a28,61364e9db14b6a14215aa390,,,,,,,,
f,2.371,0,56,56,32,1,5fae3c8cd65fe6291c614cce,ROOOOOO,ROOOOOR,19.92253567,21.27974287,series_1,5fae3c8cd65fe6291c614cce,Mężczyzna,23,2021-09-06_19h24.10.524,rantool2,2021.1.4,Win32,59.69080165,6135e006383e6ea6c3d06a28,61364e9db14b6a14215aa390,,,,,,,,
j,1.2513,0,57,57,22,1,5fae3c8cd65fe6291c614cce,ORORROO,ORORROR,22.02732763,21.57657071,series_0,5fae3c8cd65fe6291c614cce,Mężczyzna,23,2021-09-06_19h24.10.524,rantool2,2021.1.4,Win32,59.69080165,6135e006383e6ea6c3d06a28,61364e9db14b6a14215aa390,,,,,,,,
j,2.1041,0,58,58,31,1,5fae3c8cd65fe6291c614cce,ORRRRRO,ORRRRRR,22.16413392,20.74050628,series_0,5fae3c8cd65fe6291c614cce,Mężczyzna,23,2021-09-06_19h24.10.524,rantool2,2021.1.4,Win32,59.69080165,6135e006383e6ea6c3d06a28,61364e9db14b6a14215aa390,,,,,,,,
j,1.9096,0,59,59,34,1,5fae3c8cd65fe6291c614cce,ROOOROO,ROOOROR,21.03750787,21.24781509,series_1,5fae3c8cd65fe6291c614cce,Mężczyzna,23,2021-09-06_19h24.10.524,rantool2,2021.1.4,Win32,59.69080165,6135e006383e6ea6c3d06a28,61364e9db14b6a14215aa390,,,,,,,,
f,1.8649,0,60,60,58,1,5fae3c8cd65fe6291c614cce,RRROROO,RRROROR,22.1285618,21.37121559,series_0,5fae3c8cd65fe6291c614cce,Mężczyzna,23,2021-09-06_19h24.10.524,rantool2,2021.1.4,Win32,59.69080165,6135e006383e6ea6c3d06a28,61364e9db14b6a14215aa390,,,,,,,,
j,1.8498,0,61,61,0,1,5fae3c8cd65fe6291c614cce,OOOOOOO,OOOOOOR,18.52739004,19.62521613,series_1,5fae3c8cd65fe6291c614cce,Mężczyzna,23,2021-09-06_19h24.10.524,rantool2,2021.1.4,Win32,59.69080165,6135e006383e6ea6c3d06a28,61364e9db14b6a14215aa390,,,,,,,,
j,2.5328,0,62,62,39,1,5fae3c8cd65fe6291c614cce,ROORRRO,ROORRRR,21.82425538,21.38562617,series_0,5fae3c8cd65fe6291c614cce,Mężczyzna,23,2021-09-06_19h24.10.524,rantool2,2021.1.4,Win32,59.69080165,6135e006383e6ea6c3d06a28,61364e9db14b6a14215aa390,,,,,,,,
f,2.1925,0,63,63,9,1,5fae3c8cd65fe6291c614cce,OOROORO,OOROORR,21.07991943,22.2428857,series_1,5fae3c8cd65fe6291c614cce,Mężczyzna,23,2021-09-06_19h24.10.524,rantool2,2021.1.4,Win32,59.69080165,6135e006383e6ea6c3d06a28,61364e9db14b6a14215aa390,,,,,,,,
,,,,,,,5fae3c8cd65fe6291c614cce,,,,,,5fae3c8cd65fe6291c614cce,Mężczyzna,23,2021-09-06_19h24.10.524,rantool2,2021.1.4,Win32,59.69080165,6135e006383e6ea6c3d06a28,61364e9db14b6a14215aa390,"[""period""]",0,[0.7706999999992661],0,0,0,0,1
,,,,,,,5fae3c8cd65fe6291c614cce,,,,,,5fae3c8cd65fe6291c614cce,Mężczyzna,23,2021-09-06_19h24.10.524,rantool2,2021.1.4,Win32,59.69080165,6135e006383e6ea6c3d06a28,61364e9db14b6a14215aa390,"[""comma""]",0,[1.1255000000000166],1,0,1,0,1
,,,,,,,5fae3c8cd65fe6291c614cce,,,,,,5fae3c8cd65fe6291c614cce,Mężczyzna,23,2021-09-06_19h24.10.524,rantool2,2021.1.4,Win32,59.69080165,6135e006383e6ea6c3d06a28,61364e9db14b6a14215aa390,"[""period""]",0,[0.27700000000001523],2,0,2,0,1
,,,,,,,5fae3c8cd65fe6291c614cce,,,,,,5fae3c8cd65fe6291c614cce,Mężczyzna,23,2021-09-06_19h24.10.524,rantool2,2021.1.4,Win32,59.69080165,6135e006383e6ea6c3d06a28,61364e9db14b6a14215aa390,"[""comma""]",0,[0.2771000000014965],3,0,3,0,1
,,,,,,,5fae3c8cd65fe6291c614cce,,,,,,5fae3c8cd65fe6291c614cce,Mężczyzna,23,2021-09-06_19h24.10.524,rantool2,2021.1.4,Win32,59.69080165,6135e006383e6ea6c3d06a28,61364e9db14b6a14215aa390,"[""comma""]",0,[0.4615000000000009],4,0,4,0,1
,,,,,,,5fae3c8cd65fe6291c614cce,,,,,,5fae3c8cd65fe6291c614cce,Mężczyzna,23,2021-09-06_19h24.10.524,rantool2,2021.1.4,Win32,59.69080165,6135e006383e6ea6c3d06a28,61364e9db14b6a14215aa390,"[""period""]",0,[0.30559999999962884],5,0,5,0,1
,,,,,,,5fae3c8cd65fe6291c614cce,,,,,,5fae3c8cd65fe6291c614cce,Mężczyzna,23,2021-09-06_19h24.10.524,rantool2,2021.1.4,Win32,59.69080165,6135e006383e6ea6c3d06a28,61364e9db14b6a14215aa390,"[""comma""]",0,[0.28459999999961383],6,0,6,0,1
,,,,,,,5fae3c8cd65fe6291c614cce,,,,,,5fae3c8cd65fe6291c614cce,Mężczyzna,23,2021-09-06_19h24.10.524,rantool2,2021.1.4,Win32,59.69080165,6135e006383e6ea6c3d06a28,61364e9db14b6a14215aa390,"[""comma""]",0,[0.24609999999961474],7,0,7,0,1
,,,,,,,5fae3c8cd65fe6291c614cce,,,,,,5fae3c8cd65fe6291c614cce,Mężczyzna,23,2021-09-06_19h24.10.524,rantool2,2021.1.4,Win32,59.69080165,6135e006383e6ea6c3d06a28,61364e9db14b6a14215aa390,"[""comma""]",0,[0.34869999999926904],8,0,8,0,1
,,,,,,,5fae3c8cd65fe6291c614cce,,,,,,5fae3c8cd65fe6291c614cce,Mężczyzna,23,2021-09-06_19h24.10.524,rantool2,2021.1.4,Win32,59.69080165,6135e006383e6ea6c3d06a28,61364e9db14b6a14215aa390,"[""period""]",0,[0.29509999999962133],9,0,9,0,1
,,,,,,,5fae3c8cd65fe6291c614cce,,,,,,5fae3c8cd65fe6291c614cce,Mężczyzna,23,2021-09-06_19h24.10.524,rantool2,2021.1.4,Win32,59.69080165,6135e006383e6ea6c3d06a28,61364e9db14b6a14215aa390,"[""period""]",0,[0.26900000000000546],10,0,10,0,1
,,,,,,,5fae3c8cd65fe6291c614cce,,,,,,5fae3c8cd65fe6291c614cce,Mężczyzna,23,2021-09-06_19h24.10.524,rantool2,2021.1.4,Win32,59.69080165,6135e006383e6ea6c3d06a28,61364e9db14b6a14215aa390,"[""period""]",0,[0.2566999999992561],11,0,11,0,1
,,,,,,,5fae3c8cd65fe6291c614cce,,,,,,5fae3c8cd65fe6291c614cce,Mężczyzna,23,2021-09-06_19h24.10.524,rantool2,2021.1.4,Win32,59.69080165,6135e006383e6ea6c3d06a28,61364e9db14b6a14215aa390,"[""period""]",0,[0.2613000000007446],12,0,12,0,1
,,,,,,,5fae3c8cd65fe6291c614cce,,,,,,5fae3c8cd65fe6291c614cce,Mężczyzna,23,2021-09-06_19h24.10.524,rantool2,2021.1.4,Win32,59.69080165,6135e006383e6ea6c3d06a28,61364e9db14b6a14215aa390,"[""comma""]",0,[0.22130000000075256],13,0,13,0,1
,,,,,,,5fae3c8cd65fe6291c614cce,,,,,,5fae3c8cd65fe6291c614cce,Mężczyzna,23,2021-09-06_19h24.10.524,rantool2,2021.1.4,Win32,59.69080165,6135e006383e6ea6c3d06a28,61364e9db14b6a14215aa390,"[""comma""]",0,[0.25229999999888264],14,0,14,0,1
,,,,,,,5fae3c8cd65fe6291c614cce,,,,,,5fae3c8cd65fe6291c614cce,Mężczyzna,23,2021-09-06_19h24.10.524,rantool2,2021.1.4,Win32,59.69080165,6135e006383e6ea6c3d06a28,61364e9db14b6a14215aa390,"[""period""]",0,[0.2295000000000016],15,0,15,0,1
,,,,,,,5fae3c8cd65fe6291c614cce,,,,,,5fae3c8cd65fe6291c614cce,Mężczyzna,23,2021-09-06_19h24.10.524,rantool2,2021.1.4,Win32,59.69080165,6135e006383e6ea6c3d06a28,61364e9db14b6a14215aa390,"[""comma""]",0,[0.24559999999962656],16,0,16,0,1
,,,,,,,5fae3c8cd65fe6291c614cce,,,,,,5fae3c8cd65fe6291c614cce,Mężczyzna,23,2021-09-06_19h24.10.524,rantool2,2021.1.4,Win32,59.69080165,6135e006383e6ea6c3d06a28,61364e9db14b6a14215aa390,"[""comma""]",0,[0.25110000000151445],17,0,17,0,1
,,,,,,,5fae3c8cd65fe6291c614cce,,,,,,5fae3c8cd65fe6291c614cce,Mężczyzna,23,2021-09-06_19h24.10.524,rantool2,2021.1.4,Win32,59.69080165,6135e006383e6ea6c3d06a28,61364e9db14b6a14215aa390,"[""comma""]",0,[0.2535000000000025],18,0,18,0,1
,,,,,,,5fae3c8cd65fe6291c614cce,,,,,,5fae3c8cd65fe6291c614cce,Mężczyzna,23,2021-09-06_19h24.10.524,rantool2,2021.1.4,Win32,59.69080165,6135e006383e6ea6c3d06a28,61364e9db14b6a14215aa390,"[""comma""]",0,[0.24549999999999272],19,0,19,0,1
,,,,,,,5fae3c8cd65fe6291c614cce,,,,,,5fae3c8cd65fe6291c614cce,Mężczyzna,23,2021-09-06_19h24.10.524,rantool2,2021.1.4,Win32,59.69080165,6135e006383e6ea6c3d06a28,61364e9db14b6a14215aa390,"[""comma""]",0,[0.2444000000003541],20,0,20,0,1
,,,,,,,5fae3c8cd65fe6291c614cce,,,,,,5fae3c8cd65fe6291c614cce,Mężczyzna,23,2021-09-06_19h24.10.524,rantool2,2021.1.4,Win32,59.69080165,6135e006383e6ea6c3d06a28,61364e9db14b6a14215aa390,"[""comma""]",0,[0.2601999999992586],21,0,21,0,1
,,,,,,,5fae3c8cd65fe6291c614cce,,,,,,5fae3c8cd65fe6291c614cce,Mężczyzna,23,2021-09-06_19h24.10.524,rantool2,2021.1.4,Win32,59.69080165,6135e006383e6ea6c3d06a28,61364e9db14b6a14215aa390,"[""period""]",0,[0.25280000000071823],22,0,22,0,1
,,,,,,,5fae3c8cd65fe6291c614cce,,,,,,5fae3c8cd65fe6291c614cce,Mężczyzna,23,2021-09-06_19h24.10.524,rantool2,2021.1.4,Win32,59.69080165,6135e006383e6ea6c3d06a28,61364e9db14b6a14215aa390,"[""period""]",0,[0.251100000001486],23,0,23,0,1
,,,,,,,5fae3c8cd65fe6291c614cce,,,,,,5fae3c8cd65fe6291c614cce,Mężczyzna,23,2021-09-06_19h24.10.524,rantool2,2021.1.4,Win32,59.69080165,6135e006383e6ea6c3d06a28,61364e9db14b6a14215aa390,"[""comma""]",0,[0.24530000000072505],24,0,24,0,1
,,,,,,,5fae3c8cd65fe6291c614cce,,,,,,5fae3c8cd65fe6291c614cce,Mężczyzna,23,2021-09-06_19h24.10.524,rantool2,2021.1.4,Win32,59.69080165,6135e006383e6ea6c3d06a28,61364e9db14b6a14215aa390,"[""period""]",0,[0.24559999999962656],25,0,25,0,1
,,,,,,,5fae3c8cd65fe6291c614cce,,,,,,5fae3c8cd65fe6291c614cce,Mężczyzna,23,2021-09-06_19h24.10.524,rantool2,2021.1.4,Win32,59.69080165,6135e006383e6ea6c3d06a28,61364e9db14b6a14215aa390,"[""comma""]",0,[0.28600000000000136],26,0,26,0,1
,,,,,,,5fae3c8cd65fe6291c614cce,,,,,,5fae3c8cd65fe6291c614cce,Mężczyzna,23,2021-09-06_19h24.10.524,rantool2,2021.1.4,Win32,59.69080165,6135e006383e6ea6c3d06a28,61364e9db14b6a14215aa390,"[""period""]",0,[0.26849999999996044],27,0,27,0,1
,,,,,,,5fae3c8cd65fe6291c614cce,,,,,,5fae3c8cd65fe6291c614cce,Mężczyzna,23,2021-09-06_19h24.10.524,rantool2,2021.1.4,Win32,59.69080165,6135e006383e6ea6c3d06a28,61364e9db14b6a14215aa390,"[""comma""]",0,[0.2728000000007569],28,0,28,0,1
,,,,,,,5fae3c8cd65fe6291c614cce,,,,,,5fae3c8cd65fe6291c614cce,Mężczyzna,23,2021-09-06_19h24.10.524,rantool2,2021.1.4,Win32,59.69080165,6135e006383e6ea6c3d06a28,61364e9db14b6a14215aa390,"[""period""]",0,[0.2527000000010844],29,0,29,0,1
,,,,,,,5fae3c8cd65fe6291c614cce,,,,,,5fae3c8cd65fe6291c614cce,Mężczyzna,23,2021-09-06_19h24.10.524,rantool2,2021.1.4,Win32,59.69080165,6135e006383e6ea6c3d06a28,61364e9db14b6a14215aa390,"[""comma""]",0,[0.28569999999928086],30,0,30,0,1
,,,,,,,5fae3c8cd65fe6291c614cce,,,,,,5fae3c8cd65fe6291c614cce,Mężczyzna,23,2021-09-06_19h24.10.524,rantool2,2021.1.4,Win32,59.69080165,6135e006383e6ea6c3d06a28,61364e9db14b6a14215aa390,"[""period""]",0,[0.2535999999996079],31,0,31,0,1
,,,,,,,5fae3c8cd65fe6291c614cce,,,,,,5fae3c8cd65fe6291c614cce,Mężczyzna,23,2021-09-06_19h24.10.524,rantool2,2021.1.4,Win32,59.69080165,6135e006383e6ea6c3d06a28,61364e9db14b6a14215aa390,"[""comma""]",0,[0.2688000000007378],32,0,32,0,1
,,,,,,,5fae3c8cd65fe6291c614cce,,,,,,5fae3c8cd65fe6291c614cce,Mężczyzna,23,2021-09-06_19h24.10.524,rantool2,2021.1.4,Win32,59.69080165,6135e006383e6ea6c3d06a28,61364e9db14b6a14215aa390,"[""period""]",0,[0.25309999999961974],33,0,33,0,1
,,,,,,,5fae3c8cd65fe6291c614cce,,,,,,5fae3c8cd65fe6291c614cce,Mężczyzna,23,2021-09-06_19h24.10.524,rantool2,2021.1.4,Win32,59.69080165,6135e006383e6ea6c3d06a28,61364e9db14b6a14215aa390,"[""comma""]",0,[0.28230000000070277],34,0,34,0,1
,,,,,,,5fae3c8cd65fe6291c614cce,,,,,,5fae3c8cd65fe6291c614cce,Mężczyzna,23,2021-09-06_19h24.10.524,rantool2,2021.1.4,Win32,59.69080165,6135e006383e6ea6c3d06a28,61364e9db14b6a14215aa390,"[""period""]",0,[0.3019999999999641],35,0,35,0,1
,,,,,,,5fae3c8cd65fe6291c614cce,,,,,,5fae3c8cd65fe6291c614cce,Mężczyzna,23,2021-09-06_19h24.10.524,rantool2,2021.1.4,Win32,59.69080165,6135e006383e6ea6c3d06a28,61364e9db14b6a14215aa390,"[""period""]",0,[0.2592000000011012],36,0,36,0,1
,,,,,,,5fae3c8cd65fe6291c614cce,,,,,,5fae3c8cd65fe6291c614cce,Mężczyzna,23,2021-09-06_19h24.10.524,rantool2,2021.1.4,Win32,59.69080165,6135e006383e6ea6c3d06a28,61364e9db14b6a14215aa390,"[""period""]",0,[0.29319999999927404],37,0,37,0,1
,,,,,,,5fae3c8cd65fe6291c614cce,,,,,,5fae3c8cd65fe6291c614cce,Mężczyzna,23,2021-09-06_19h24.10.524,rantool2,2021.1.4,Win32,59.69080165,6135e006383e6ea6c3d06a28,61364e9db14b6a14215aa390,"[""comma""]",0,[0.2690999999996393],38,0,38,0,1
,,,,,,,5fae3c8cd65fe6291c614cce,,,,,,5fae3c8cd65fe6291c614cce,Mężczyzna,23,2021-09-06_19h24.10.524,rantool2,2021.1.4,Win32,59.69080165,6135e006383e6ea6c3d06a28,61364e9db14b6a14215aa390,"[""comma""]",0,[0.3126999999992677],39,0,39,0,1
,,,,,,,5fae3c8cd65fe6291c614cce,,,,,,5fae3c8cd65fe6291c614cce,Mężczyzna,23,2021-09-06_19h24.10.524,rantool2,2021.1.4,Win32,59.69080165,6135e006383e6ea6c3d06a28,61364e9db14b6a14215aa390,"[""comma""]",0,[0.3089000000003921],40,0,40,0,1
,,,,,,,5fae3c8cd65fe6291c614cce,,,,,,5fae3c8cd65fe6291c614cce,Mężczyzna,23,2021-09-06_19h24.10.524,rantool2,2021.1.4,Win32,59.69080165,6135e006383e6ea6c3d06a28,61364e9db14b6a14215aa390,"[""comma""]",0,[0.30000000000001137],41,0,41,0,1
,,,,,,,5fae3c8cd65fe6291c614cce,,,,,,5fae3c8cd65fe6291c614cce,Mężczyzna,23,2021-09-06_19h24.10.524,rantool2,2021.1.4,Win32,59.69080165,6135e006383e6ea6c3d06a28,61364e9db14b6a14215aa390,"[""comma""]",0,[0.3019000000003871],42,0,42,0,1
,,,,,,,5fae3c8cd65fe6291c614cce,,,,,,5fae3c8cd65fe6291c614cce,Mężczyzna,23,2021-09-06_19h24.10.524,rantool2,2021.1.4,Win32,59.69080165,6135e006383e6ea6c3d06a28,61364e9db14b6a14215aa390,"[""period""]",0,[0.22100000000000364],43,0,43,0,1
,,,,,,,5fae3c8cd65fe6291c614cce,,,,,,5fae3c8cd65fe6291c614cce,Mężczyzna,23,2021-09-06_19h24.10.524,rantool2,2021.1.4,Win32,59.69080165,6135e006383e6ea6c3d06a28,61364e9db14b6a14215aa390,"[""period""]",0,[0.2605000000000359],44,0,44,0,1
,,,,,,,5fae3c8cd65fe6291c614cce,,,,,,5fae3c8cd65fe6291c614cce,Mężczyzna,23,2021-09-06_19h24.10.524,rantool2,2021.1.4,Win32,59.69080165,6135e006383e6ea6c3d06a28,61364e9db14b6a14215aa390,"[""period""]",0,[0.24080000000071777],45,0,45,0,1
,,,,,,,5fae3c8cd65fe6291c614cce,,,,,,5fae3c8cd65fe6291c614cce,Mężczyzna,23,2021-09-06_19h24.10.524,rantool2,2021.1.4,Win32,59.69080165,6135e006383e6ea6c3d06a28,61364e9db14b6a14215aa390,"[""comma""]",0,[0.18950000000000955],46,0,46,0,1
,,,,,,,5fae3c8cd65fe6291c614cce,,,,,,5fae3c8cd65fe6291c614cce,Mężczyzna,23,2021-09-06_19h24.10.524,rantool2,2021.1.4,Win32,59.69080165,6135e006383e6ea6c3d06a28,61364e9db14b6a14215aa390,"[""comma""]",0,[0.28490000000033433],47,0,47,0,1
,,,,,,,5fae3c8cd65fe6291c614cce,,,,,,5fae3c8cd65fe6291c614cce,Mężczyzna,23,2021-09-06_19h24.10.524,rantool2,2021.1.4,Win32,59.69080165,6135e006383e6ea6c3d06a28,61364e9db14b6a14215aa390,"[""period""]",0,[0.23759999999958836],48,0,48,0,1
,,,,,,,5fae3c8cd65fe6291c614cce,,,,,,5fae3c8cd65fe6291c614cce,Mężczyzna,23,2021-09-06_19h24.10.524,rantool2,2021.1.4,Win32,59.69080165,6135e006383e6ea6c3d06a28,61364e9db14b6a14215aa390,"[""comma""]",0,[0.26879999999886195],49,0,49,0,1
,,,,,,,5fae3c8cd65fe6291c614cce,,,,,,5fae3c8cd65fe6291c614cce,Mężczyzna,23,2021-09-06_19h24.10.524,rantool2,2021.1.4,Win32,59.69080165,6135e006383e6ea6c3d06a28,61364e9db14b6a14215aa390,"[""comma""]",0,[0.35269999999928814],50,0,50,0,1
,,,,,,,5fae3c8cd65fe6291c614cce,,,,,,5fae3c8cd65fe6291c614cce,Mężczyzna,23,2021-09-06_19h24.10.524,rantool2,2021.1.4,Win32,59.69080165,6135e006383e6ea6c3d06a28,61364e9db14b6a14215aa390,"[""period""]",0,[0.26069999999924676],51,0,51,0,1
,,,,,,,5fae3c8cd65fe6291c614cce,,,,,,5fae3c8cd65fe6291c614cce,Mężczyzna,23,2021-09-06_19h24.10.524,rantool2,2021.1.4,Win32,59.69080165,6135e006383e6ea6c3d06a28,61364e9db14b6a14215aa390,"[""comma""]",0,[0.2610000000000241],52,0,52,0,1
,,,,,,,5fae3c8cd65fe6291c614cce,,,,,,5fae3c8cd65fe6291c614cce,Mężczyzna,23,2021-09-06_19h24.10.524,rantool2,2021.1.4,Win32,59.69080165,6135e006383e6ea6c3d06a28,61364e9db14b6a14215aa390,"[""comma""]",0,[0.26979999999889515],53,0,53,0,1
,,,,,,,5fae3c8cd65fe6291c614cce,,,,,,5fae3c8cd65fe6291c614cce,Mężczyzna,23,2021-09-06_19h24.10.524,rantool2,2021.1.4,Win32,59.69080165,6135e006383e6ea6c3d06a28,61364e9db14b6a14215aa390,"[""period""]",0,[0.23840000000035388],54,0,54,0,1
,,,,,,,5fae3c8cd65fe6291c614cce,,,,,,5fae3c8cd65fe6291c614cce,Mężczyzna,23,2021-09-06_19h24.10.524,rantool2,2021.1.4,Win32,59.69080165,6135e006383e6ea6c3d06a28,61364e9db14b6a14215aa390,"[""comma""]",0,[0.2851999999992927],55,0,55,0,1
,,,,,,,5fae3c8cd65fe6291c614cce,,,,,,5fae3c8cd65fe6291c614cce,Mężczyzna,23,2021-09-06_19h24.10.524,rantool2,2021.1.4,Win32,59.69080165,6135e006383e6ea6c3d06a28,61364e9db14b6a14215aa390,"[""period""]",0,[0.2653999999985217],56,0,56,0,1
,,,,,,,5fae3c8cd65fe6291c614cce,,,,,,5fae3c8cd65fe6291c614cce,Mężczyzna,23,2021-09-06_19h24.10.524,rantool2,2021.1.4,Win32,59.69080165,6135e006383e6ea6c3d06a28,61364e9db14b6a14215aa390,"[""comma""]",0,[0.26089999999851443],57,0,57,0,1
,,,,,,,5fae3c8cd65fe6291c614cce,,,,,,5fae3c8cd65fe6291c614cce,Mężczyzna,23,2021-09-06_19h24.10.524,rantool2,2021.1.4,Win32,59.69080165,6135e006383e6ea6c3d06a28,61364e9db14b6a14215aa390,"[""period""]",0,[0.2615999999996461],58,0,58,0,1
,,,,,,,5fae3c8cd65fe6291c614cce,,,,,,5fae3c8cd65fe6291c614cce,Mężczyzna,23,2021-09-06_19h24.10.524,rantool2,2021.1.4,Win32,59.69080165,6135e006383e6ea6c3d06a28,61364e9db14b6a14215aa390,"[""comma""]",0,[0.2531000000014956],59,0,59,0,1
,,,,,,,5fae3c8cd65fe6291c614cce,,,,,,5fae3c8cd65fe6291c614cce,Mężczyzna,23,2021-09-06_19h24.10.524,rantool2,2021.1.4,Win32,59.69080165,6135e006383e6ea6c3d06a28,61364e9db14b6a14215aa390,"[""period""]",0,[0.2538000000007514],60,0,60,0,1
,,,,,,,5fae3c8cd65fe6291c614cce,,,,,,5fae3c8cd65fe6291c614cce,Mężczyzna,23,2021-09-06_19h24.10.524,rantool2,2021.1.4,Win32,59.69080165,6135e006383e6ea6c3d06a28,61364e9db14b6a14215aa390,"[""period""]",0,[0.3046999999992295],61,0,61,0,1
,,,,,,,5fae3c8cd65fe6291c614cce,,,,,,5fae3c8cd65fe6291c614cce,Mężczyzna,23,2021-09-06_19h24.10.524,rantool2,2021.1.4,Win32,59.69080165,6135e006383e6ea6c3d06a28,61364e9db14b6a14215aa390,"[""comma""]",0,[0.20540000000033842],62,0,62,0,1
,,,,,,,5fae3c8cd65fe6291c614cce,,,,,,5fae3c8cd65fe6291c614cce,Mężczyzna,23,2021-09-06_19h24.10.524,rantool2,2021.1.4,Win32,59.69080165,6135e006383e6ea6c3d06a28,61364e9db14b6a14215aa390,"[""period""]",0,[0.22930000000076234],63,0,63,0,1
,,,,,,,5fae3c8cd65fe6291c614cce,,,,,,5fae3c8cd65fe6291c614cce,Mężczyzna,23,2021-09-06_19h24.10.524,rantool2,2021.1.4,Win32,59.69080165,6135e006383e6ea6c3d06a28,61364e9db14b6a14215aa390,"[""period""]",0,[0.2971000000014783],64,0,64,0,1
,,,,,,,5fae3c8cd65fe6291c614cce,,,,,,5fae3c8cd65fe6291c614cce,Mężczyzna,23,2021-09-06_19h24.10.524,rantool2,2021.1.4,Win32,59.69080165,6135e006383e6ea6c3d06a28,61364e9db14b6a14215aa390,"[""comma""]",0,[0.2692000000010921],65,0,65,0,1
,,,,,,,5fae3c8cd65fe6291c614cce,,,,,,5fae3c8cd65fe6291c614cce,Mężczyzna,23,2021-09-06_19h24.10.524,rantool2,2021.1.4,Win32,59.69080165,6135e006383e6ea6c3d06a28,61364e9db14b6a14215aa390,"[""period""]",0,[0.26949999999999363],66,0,66,0,1
,,,,,,,5fae3c8cd65fe6291c614cce,,,,,,5fae3c8cd65fe6291c614cce,Mężczyzna,23,2021-09-06_19h24.10.524,rantool2,2021.1.4,Win32,59.69080165,6135e006383e6ea6c3d06a28,61364e9db14b6a14215aa390,"[""comma""]",0,[0.3156999999992536],67,0,67,0,1
,,,,,,,5fae3c8cd65fe6291c614cce,,,,,,5fae3c8cd65fe6291c614cce,Mężczyzna,23,2021-09-06_19h24.10.524,rantool2,2021.1.4,Win32,59.69080165,6135e006383e6ea6c3d06a28,61364e9db14b6a14215aa390,"[""period""]",0,[0.1827000000010912],68,0,68,0,1
,,,,,,,5fae3c8cd65fe6291c614cce,,,,,,5fae3c8cd65fe6291c614cce,Mężczyzna,23,2021-09-06_19h24.10.524,rantool2,2021.1.4,Win32,59.69080165,6135e006383e6ea6c3d06a28,61364e9db14b6a14215aa390,"[""comma""]",0,[0.26280000000070913],69,0,69,0,1
,,,,,,,5fae3c8cd65fe6291c614cce,,,,,,5fae3c8cd65fe6291c614cce,Mężczyzna,23,2021-09-06_19h24.10.524,rantool2,2021.1.4,Win32,59.69080165,6135e006383e6ea6c3d06a28,61364e9db14b6a14215aa390,"[""period""]",0,[0.26979999999889515],70,0,70,0,1
,,,,,,,5fae3c8cd65fe6291c614cce,,,,,,5fae3c8cd65fe6291c614cce,Mężczyzna,23,2021-09-06_19h24.10.524,rantool2,2021.1.4,Win32,59.69080165,6135e006383e6ea6c3d06a28,61364e9db14b6a14215aa390,"[""comma""]",0,[0.3082000000010794],71,0,71,0,1
,,,,,,,5fae3c8cd65fe6291c614cce,,,,,,5fae3c8cd65fe6291c614cce,Mężczyzna,23,2021-09-06_19h24.10.524,rantool2,2021.1.4,Win32,59.69080165,6135e006383e6ea6c3d06a28,61364e9db14b6a14215aa390,"[""period""]",0,[0.2785999999995852],72,0,72,0,1
,,,,,,,5fae3c8cd65fe6291c614cce,,,,,,5fae3c8cd65fe6291c614cce,Mężczyzna,23,2021-09-06_19h24.10.524,rantool2,2021.1.4,Win32,59.69080165,6135e006383e6ea6c3d06a28,61364e9db14b6a14215aa390,"[""comma""]",0,[0.4488000000007446],73,0,73,0,1
,,,,,,,5fae3c8cd65fe6291c614cce,,,,,,5fae3c8cd65fe6291c614cce,Mężczyzna,23,2021-09-06_19h24.10.524,rantool2,2021.1.4,Win32,59.69080165,6135e006383e6ea6c3d06a28,61364e9db14b6a14215aa390,"[""period""]",0,[0.2058999999985076],74,0,74,0,1
,,,,,,,5fae3c8cd65fe6291c614cce,,,,,,5fae3c8cd65fe6291c614cce,Mężczyzna,23,2021-09-06_19h24.10.524,rantool2,2021.1.4,Win32,59.69080165,6135e006383e6ea6c3d06a28,61364e9db14b6a14215aa390,"[""period""]",0,[0.3999000000003434],75,0,75,0,1
,,,,,,,5fae3c8cd65fe6291c614cce,,,,,,5fae3c8cd65fe6291c614cce,Mężczyzna,23,2021-09-06_19h24.10.524,rantool2,2021.1.4,Win32,59.69080165,6135e006383e6ea6c3d06a28,61364e9db14b6a14215aa390,"[""period""]",0,[0.3257000000011203],76,0,76,0,1
,,,,,,,5fae3c8cd65fe6291c614cce,,,,,,5fae3c8cd65fe6291c614cce,Mężczyzna,23,2021-09-06_19h24.10.524,rantool2,2021.1.4,Win32,59.69080165,6135e006383e6ea6c3d06a28,61364e9db14b6a14215aa390,"[""period""]",0,[0.2705999999996038],77,0,77,0,1
,,,,,,,5fae3c8cd65fe6291c614cce,,,,,,5fae3c8cd65fe6291c614cce,Mężczyzna,23,2021-09-06_19h24.10.524,rantool2,2021.1.4,Win32,59.69080165,6135e006383e6ea6c3d06a28,61364e9db14b6a14215aa390,"[""period""]",0,[0.3034000000003516],78,0,78,0,1
,,,,,,,5fae3c8cd65fe6291c614cce,,,,,,5fae3c8cd65fe6291c614cce,Mężczyzna,23,2021-09-06_19h24.10.524,rantool2,2021.1.4,Win32,59.69080165,6135e006383e6ea6c3d06a28,61364e9db14b6a14215aa390,"[""comma""]",0,[0.2655999999996652],79,0,79,0,1
,,,,,,,5fae3c8cd65fe6291c614cce,,,,,,5fae3c8cd65fe6291c614cce,Mężczyzna,23,2021-09-06_19h24.10.524,rantool2,2021.1.4,Win32,59.69080165,6135e006383e6ea6c3d06a28,61364e9db14b6a14215aa390,"[""comma""]",0,[0.3344000000003575],80,0,80,0,1
,,,,,,,5fae3c8cd65fe6291c614cce,,,,,,5fae3c8cd65fe6291c614cce,Mężczyzna,23,2021-09-06_19h24.10.524,rantool2,2021.1.4,Win32,59.69080165,6135e006383e6ea6c3d06a28,61364e9db14b6a14215aa390,"[""comma""]",0,[0.2775999999996088],81,0,81,0,1
,,,,,,,5fae3c8cd65fe6291c614cce,,,,,,5fae3c8cd65fe6291c614cce,Mężczyzna,23,2021-09-06_19h24.10.524,rantool2,2021.1.4,Win32,59.69080165,6135e006383e6ea6c3d06a28,61364e9db14b6a14215aa390,"[""comma""]",0,[0.2599999999999909],82,0,82,0,1
,,,,,,,5fae3c8cd65fe6291c614cce,,,,,,5fae3c8cd65fe6291c614cce,Mężczyzna,23,2021-09-06_19h24.10.524,rantool2,2021.1.4,Win32,59.69080165,6135e006383e6ea6c3d06a28,61364e9db14b6a14215aa390,"[""period""]",0,[0.277499999999975],83,0,83,0,1
,,,,,,,5fae3c8cd65fe6291c614cce,,,,,,5fae3c8cd65fe6291c614cce,Mężczyzna,23,2021-09-06_19h24.10.524,rantool2,2021.1.4,Win32,59.69080165,6135e006383e6ea6c3d06a28,61364e9db14b6a14215aa390,"[""comma""]",0,[0.24659999999960291],84,0,84,0,1
,,,,,,,5fae3c8cd65fe6291c614cce,,,,,,5fae3c8cd65fe6291c614cce,Mężczyzna,23,2021-09-06_19h24.10.524,rantool2,2021.1.4,Win32,59.69080165,6135e006383e6ea6c3d06a28,61364e9db14b6a14215aa390,"[""period""]",0,[0.2809000000003721],85,0,85,0,1
,,,,,,,5fae3c8cd65fe6291c614cce,,,,,,5fae3c8cd65fe6291c614cce,Mężczyzna,23,2021-09-06_19h24.10.524,rantool2,2021.1.4,Win32,59.69080165,6135e006383e6ea6c3d06a28,61364e9db14b6a14215aa390,"[""period""]",0,[0.3017000000011194],86,0,86,0,1
,,,,,,,5fae3c8cd65fe6291c614cce,,,,,,5fae3c8cd65fe6291c614cce,Mężczyzna,23,2021-09-06_19h24.10.524,rantool2,2021.1.4,Win32,59.69080165,6135e006383e6ea6c3d06a28,61364e9db14b6a14215aa390,"[""period""]",0,[0.33340000000038117],87,0,87,0,1
,,,,,,,5fae3c8cd65fe6291c614cce,,,,,,5fae3c8cd65fe6291c614cce,Mężczyzna,23,2021-09-06_19h24.10.524,rantool2,2021.1.4,Win32,59.69080165,6135e006383e6ea6c3d06a28,61364e9db14b6a14215aa390,"[""comma""]",0,[0.23009999999965203],88,0,88,0,1
,,,,,,,5fae3c8cd65fe6291c614cce,,,,,,5fae3c8cd65fe6291c614cce,Mężczyzna,23,2021-09-06_19h24.10.524,rantool2,2021.1.4,Win32,59.69080165,6135e006383e6ea6c3d06a28,61364e9db14b6a14215aa390,"[""comma""]",0,[0.24770000000114578],89,0,89,0,1
,,,,,,,5fae3c8cd65fe6291c614cce,,,,,,5fae3c8cd65fe6291c614cce,Mężczyzna,23,2021-09-06_19h24.10.524,rantool2,2021.1.4,Win32,59.69080165,6135e006383e6ea6c3d06a28,61364e9db14b6a14215aa390,"[""comma""]",0,[0.2772999999988883],90,0,90,0,1
,,,,,,,5fae3c8cd65fe6291c614cce,,,,,,5fae3c8cd65fe6291c614cce,Mężczyzna,23,2021-09-06_19h24.10.524,rantool2,2021.1.4,Win32,59.69080165,6135e006383e6ea6c3d06a28,61364e9db14b6a14215aa390,"[""comma""]",0,[0.25099999999997635],91,0,91,0,1
,,,,,,,5fae3c8cd65fe6291c614cce,,,,,,5fae3c8cd65fe6291c614cce,Mężczyzna,23,2021-09-06_19h24.10.524,rantool2,2021.1.4,Win32,59.69080165,6135e006383e6ea6c3d06a28,61364e9db14b6a14215aa390,"[""comma""]",0,[0.2615000000000123],92,0,92,0,1
,,,,,,,5fae3c8cd65fe6291c614cce,,,,,,5fae3c8cd65fe6291c614cce,Mężczyzna,23,2021-09-06_19h24.10.524,rantool2,2021.1.4,Win32,59.69080165,6135e006383e6ea6c3d06a28,61364e9db14b6a14215aa390,"[""period""]",0,[0.26149999999995543],93,0,93,0,1
,,,,,,,5fae3c8cd65fe6291c614cce,,,,,,5fae3c8cd65fe6291c614cce,Mężczyzna,23,2021-09-06_19h24.10.524,rantool2,2021.1.4,Win32,59.69080165,6135e006383e6ea6c3d06a28,61364e9db14b6a14215aa390,"[""period""]",0,[0.2940999999996734],94,0,94,0,1
,,,,,,,5fae3c8cd65fe6291c614cce,,,,,,5fae3c8cd65fe6291c614cce,Mężczyzna,23,2021-09-06_19h24.10.524,rantool2,2021.1.4,Win32,59.69080165,6135e006383e6ea6c3d06a28,61364e9db14b6a14215aa390,"[""period""]",0,[0.2745999999996229],95,0,95,0,1
,,,,,,,5fae3c8cd65fe6291c614cce,,,,,,5fae3c8cd65fe6291c614cce,Mężczyzna,23,2021-09-06_19h24.10.524,rantool2,2021.1.4,Win32,59.69080165,6135e006383e6ea6c3d06a28,61364e9db14b6a14215aa390,"[""comma""]",0,[0.2300000000000182],96,0,96,0,1
,,,,,,,5fae3c8cd65fe6291c614cce,,,,,,5fae3c8cd65fe6291c614cce,Mężczyzna,23,2021-09-06_19h24.10.524,rantool2,2021.1.4,Win32,59.69080165,6135e006383e6ea6c3d06a28,61364e9db14b6a14215aa390,"[""comma""]",0,[0.2731999999992354],97,0,97,0,1
,,,,,,,5fae3c8cd65fe6291c614cce,,,,,,5fae3c8cd65fe6291c614cce,Mężczyzna,23,2021-09-06_19h24.10.524,rantool2,2021.1.4,Win32,59.69080165,6135e006383e6ea6c3d06a28,61364e9db14b6a14215aa390,"[""comma""]",0,[0.24559999999962656],98,0,98,0,1
,,,,,,,5fae3c8cd65fe6291c614cce,,,,,,5fae3c8cd65fe6291c614cce,Mężczyzna,23,2021-09-06_19h24.10.524,rantool2,2021.1.4,Win32,59.69080165,6135e006383e6ea6c3d06a28,61364e9db14b6a14215aa390,"[""comma""]",0,[0.24640000000039208],99,0,99,0,1
,,,,,,,5fae3c8cd65fe6291c614cce,,,,,,5fae3c8cd65fe6291c614cce,Mężczyzna,23,2021-09-06_19h24.10.524,rantool2,2021.1.4,Win32,59.69080165,6135e006383e6ea6c3d06a28,61364e9db14b6a14215aa390,"[""comma""]",0,[0.2788000000007287],100,0,100,0,1
,,,,,,,5fae3c8cd65fe6291c614cce,,,,,,5fae3c8cd65fe6291c614cce,Mężczyzna,23,2021-09-06_19h24.10.524,rantool2,2021.1.4,Win32,59.69080165,6135e006383e6ea6c3d06a28,61364e9db14b6a14215aa390,"[""comma""]",0,[0.23080000000072687],101,0,101,0,1
,,,,,,,5fae3c8cd65fe6291c614cce,,,,,,5fae3c8cd65fe6291c614cce,Mężczyzna,23,2021-09-06_19h24.10.524,rantool2,2021.1.4,Win32,59.69080165,6135e006383e6ea6c3d06a28,61364e9db14b6a14215aa390,"[""comma""]",0,[0.2820999999996161],102,0,102,0,1
,,,,,,,5fae3c8cd65fe6291c614cce,,,,,,5fae3c8cd65fe6291c614cce,Mężczyzna,23,2021-09-06_19h24.10.524,rantool2,2021.1.4,Win32,59.69080165,6135e006383e6ea6c3d06a28,61364e9db14b6a14215aa390,"[""period""]",0,[0.2777999999988765],103,0,103,0,1
,,,,,,,5fae3c8cd65fe6291c614cce,,,,,,5fae3c8cd65fe6291c614cce,Mężczyzna,23,2021-09-06_19h24.10.524,rantool2,2021.1.4,Win32,59.69080165,6135e006383e6ea6c3d06a28,61364e9db14b6a14215aa390,"[""comma""]",0,[0.24580000000077007],104,0,104,0,1
,,,,,,,5fae3c8cd65fe6291c614cce,,,,,,5fae3c8cd65fe6291c614cce,Mężczyzna,23,2021-09-06_19h24.10.524,rantool2,2021.1.4,Win32,59.69080165,6135e006383e6ea6c3d06a28,61364e9db14b6a14215aa390,"[""period""]",0,[0.2610999999996011],105,0,105,0,1
,,,,,,,5fae3c8cd65fe6291c614cce,,,,,,5fae3c8cd65fe6291c614cce,Mężczyzna,23,2021-09-06_19h24.10.524,rantool2,2021.1.4,Win32,59.69080165,6135e006383e6ea6c3d06a28,61364e9db14b6a14215aa390,"[""period""]",0,[0.24609999999967158],106,0,106,0,1
,,,,,,,5fae3c8cd65fe6291c614cce,,,,,,5fae3c8cd65fe6291c614cce,Mężczyzna,23,2021-09-06_19h24.10.524,rantool2,2021.1.4,Win32,59.69080165,6135e006383e6ea6c3d06a28,61364e9db14b6a14215aa390,"[""period""]",0,[0.25259999999963156],107,0,107,0,1
,,,,,,,5fae3c8cd65fe6291c614cce,,,,,,5fae3c8cd65fe6291c614cce,Mężczyzna,23,2021-09-06_19h24.10.524,rantool2,2021.1.4,Win32,59.69080165,6135e006383e6ea6c3d06a28,61364e9db14b6a14215aa390,"[""period""]",0,[0.29750000000001364],108,0,108,0,1
,,,,,,,5fae3c8cd65fe6291c614cce,,,,,,5fae3c8cd65fe6291c614cce,Mężczyzna,23,2021-09-06_19h24.10.524,rantool2,2021.1.4,Win32,59.69080165,6135e006383e6ea6c3d06a28,61364e9db14b6a14215aa390,"[""period""]",0,[0.2951999999992836],109,0,109,0,1
,,,,,,,5fae3c8cd65fe6291c614cce,,,,,,5fae3c8cd65fe6291c614cce,Mężczyzna,23,2021-09-06_19h24.10.524,rantool2,2021.1.4,Win32,59.69080165,6135e006383e6ea6c3d06a28,61364e9db14b6a14215aa390,"[""comma""]",0,[0.23729999999886786],110,0,110,0,1
,,,,,,,5fae3c8cd65fe6291c614cce,,,,,,5fae3c8cd65fe6291c614cce,Mężczyzna,23,2021-09-06_19h24.10.524,rantool2,2021.1.4,Win32,59.69080165,6135e006383e6ea6c3d06a28,61364e9db14b6a14215aa390,"[""period""]",0,[0.27649999999999864],111,0,111,0,1
,,,,,,,5fae3c8cd65fe6291c614cce,,,,,,5fae3c8cd65fe6291c614cce,Mężczyzna,23,2021-09-06_19h24.10.524,rantool2,2021.1.4,Win32,59.69080165,6135e006383e6ea6c3d06a28,61364e9db14b6a14215aa390,"[""period""]",0,[0.2198000000007596],112,0,112,0,1
,,,,,,,5fae3c8cd65fe6291c614cce,,,,,,5fae3c8cd65fe6291c614cce,Mężczyzna,23,2021-09-06_19h24.10.524,rantool2,2021.1.4,Win32,59.69080165,6135e006383e6ea6c3d06a28,61364e9db14b6a14215aa390,"[""period""]",0,[0.23280000000073642],113,0,113,0,1
,,,,,,,5fae3c8cd65fe6291c614cce,,,,,,5fae3c8cd65fe6291c614cce,Mężczyzna,23,2021-09-06_19h24.10.524,rantool2,2021.1.4,Win32,59.69080165,6135e006383e6ea6c3d06a28,61364e9db14b6a14215aa390,"[""comma""]",0,[0.21749999999997272],114,0,114,0,1
,,,,,,,5fae3c8cd65fe6291c614cce,,,,,,5fae3c8cd65fe6291c614cce,Mężczyzna,23,2021-09-06_19h24.10.524,rantool2,2021.1.4,Win32,59.69080165,6135e006383e6ea6c3d06a28,61364e9db14b6a14215aa390,"[""comma""]",0,[0.24669999999923675],115,0,115,0,1
,,,,,,,5fae3c8cd65fe6291c614cce,,,,,,5fae3c8cd65fe6291c614cce,Mężczyzna,23,2021-09-06_19h24.10.524,rantool2,2021.1.4,Win32,59.69080165,6135e006383e6ea6c3d06a28,61364e9db14b6a14215aa390,"[""comma""]",0,[0.13459999999963657],116,0,116,0,1
,,,,,,,5fae3c8cd65fe6291c614cce,,,,,,5fae3c8cd65fe6291c614cce,Mężczyzna,23,2021-09-06_19h24.10.524,rantool2,2021.1.4,Win32,59.69080165,6135e006383e6ea6c3d06a28,61364e9db14b6a14215aa390,"[""comma""]",0,[0.26129999999886877],117,0,117,0,1
,,,,,,,5fae3c8cd65fe6291c614cce,,,,,,5fae3c8cd65fe6291c614cce,Mężczyzna,23,2021-09-06_19h24.10.524,rantool2,2021.1.4,Win32,59.69080165,6135e006383e6ea6c3d06a28,61364e9db14b6a14215aa390,"[""comma""]",0,[0.24559999999962656],118,0,118,0,1
,,,,,,,5fae3c8cd65fe6291c614cce,,,,,,5fae3c8cd65fe6291c614cce,Mężczyzna,23,2021-09-06_19h24.10.524,rantool2,2021.1.4,Win32,59.69080165,6135e006383e6ea6c3d06a28,61364e9db14b6a14215aa390,"[""period""]",0,[0.29860000000149967],119,0,119,0,1
