key_resp_7.keys,key_resp_7.rt,trials_2.thisRepN,trials_2.thisTrialN,trials_2.thisN,trials_2.thisIndex,trials_2.ran,id,series_0,series_1,acss_0,acss_1,comparison,id*,Płeć*,Wiek*,date,expName,psychopyVersion,OS,frameRate,STUDY_ID,SESSION_ID,key_resp_5.keys,key_resp_5.corr,key_resp_5.rt,trials.thisRepN,trials.thisTrialN,trials.thisN,trials.thisIndex,trials.ran
j,2.0046,0,0,0,48,1,5f2db49bdc868c0dacf98ab8,RROOOOO,RROOOOR,20.90986523,22.15934078,series_1,5f2db49bdc868c0dacf98ab8,Mężczyzna,27,2021-09-06_19h14.00.794,rantool2,2021.1.4,Win32,59.82292414,6135e006383e6ea6c3d06a28,61364c0e07d48d63535b1026,,,,,,,,
f,1.6076,0,1,1,50,1,5f2db49bdc868c0dacf98ab8,RROOROO,RROOROR,21.73568164,22.02566557,series_1,5f2db49bdc868c0dacf98ab8,Mężczyzna,27,2021-09-06_19h14.00.794,rantool2,2021.1.4,Win32,59.82292414,6135e006383e6ea6c3d06a28,61364c0e07d48d63535b1026,,,,,,,,
j,1.8668,0,2,2,23,1,5f2db49bdc868c0dacf98ab8,ORORRRO,ORORRRR,22.1285618,21.9921709,series_0,5f2db49bdc868c0dacf98ab8,Mężczyzna,27,2021-09-06_19h14.00.794,rantool2,2021.1.4,Win32,59.82292414,6135e006383e6ea6c3d06a28,61364c0e07d48d63535b1026,,,,,,,,
f,2.0837,0,3,3,26,1,5f2db49bdc868c0dacf98ab8,ORROROO,ORROROR,22.02732763,21.71443381,series_0,5f2db49bdc868c0dacf98ab8,Mężczyzna,27,2021-09-06_19h14.00.794,rantool2,2021.1.4,Win32,59.82292414,6135e006383e6ea6c3d06a28,61364c0e07d48d63535b1026,,,,,,,,
f,2.6593,0,4,4,1,1,5f2db49bdc868c0dacf98ab8,OOOOORO,OOOOORR,19.92253567,20.74050628,series_1,5f2db49bdc868c0dacf98ab8,Mężczyzna,27,2021-09-06_19h14.00.794,rantool2,2021.1.4,Win32,59.82292414,6135e006383e6ea6c3d06a28,61364c0e07d48d63535b1026,,,,,,,,
f,1.3854,0,5,5,18,1,5f2db49bdc868c0dacf98ab8,OROOROO,OROOROR,20.84860893,21.22513037,series_1,5f2db49bdc868c0dacf98ab8,Mężczyzna,27,2021-09-06_19h14.00.794,rantool2,2021.1.4,Win32,59.82292414,6135e006383e6ea6c3d06a28,61364c0e07d48d63535b1026,,,,,,,,
j,1.5875,0,6,6,55,1,5f2db49bdc868c0dacf98ab8,RRORRRO,RRORRRR,21.56657303,21.21223021,series_0,5f2db49bdc868c0dacf98ab8,Mężczyzna,27,2021-09-06_19h14.00.794,rantool2,2021.1.4,Win32,59.82292414,6135e006383e6ea6c3d06a28,61364c0e07d48d63535b1026,,,,,,,,
j,2.8063,0,7,7,41,1,5f2db49bdc868c0dacf98ab8,ROROORO,ROROORR,20.42602454,21.71443381,series_1,5f2db49bdc868c0dacf98ab8,Mężczyzna,27,2021-09-06_19h14.00.794,rantool2,2021.1.4,Win32,59.82292414,6135e006383e6ea6c3d06a28,61364c0e07d48d63535b1026,,,,,,,,
j,2.0876,0,8,8,53,1,5f2db49bdc868c0dacf98ab8,RRORORO,RRORORR,20.71309134,21.90565814,series_1,5f2db49bdc868c0dacf98ab8,Mężczyzna,27,2021-09-06_19h14.00.794,rantool2,2021.1.4,Win32,59.82292414,6135e006383e6ea6c3d06a28,61364c0e07d48d63535b1026,,,,,,,,
j,1.0023,0,9,9,5,1,5f2db49bdc868c0dacf98ab8,OOORORO,OOORORR,20.87963819,21.9921709,series_1,5f2db49bdc868c0dacf98ab8,Mężczyzna,27,2021-09-06_19h14.00.794,rantool2,2021.1.4,Win32,59.82292414,6135e006383e6ea6c3d06a28,61364c0e07d48d63535b1026,,,,,,,,
j,1.1906,0,10,10,34,1,5f2db49bdc868c0dacf98ab8,ROOOROO,ROOOROR,21.03750787,21.24781509,series_1,5f2db49bdc868c0dacf98ab8,Mężczyzna,27,2021-09-06_19h14.00.794,rantool2,2021.1.4,Win32,59.82292414,6135e006383e6ea6c3d06a28,61364c0e07d48d63535b1026,,,,,,,,
f,2.1685,0,11,11,12,1,5f2db49bdc868c0dacf98ab8,OORROOO,OORROOR,21.30250474,22.02786418,series_1,5f2db49bdc868c0dacf98ab8,Mężczyzna,27,2021-09-06_19h14.00.794,rantool2,2021.1.4,Win32,59.82292414,6135e006383e6ea6c3d06a28,61364c0e07d48d63535b1026,,,,,,,,
f,2.1673,0,12,12,49,1,5f2db49bdc868c0dacf98ab8,RROOORO,RROOORR,21.76276513,22.53364006,series_1,5f2db49bdc868c0dacf98ab8,Mężczyzna,27,2021-09-06_19h14.00.794,rantool2,2021.1.4,Win32,59.82292414,6135e006383e6ea6c3d06a28,61364c0e07d48d63535b1026,,,,,,,,
f,1.7111,0,13,13,35,1,5f2db49bdc868c0dacf98ab8,ROOORRO,ROOORRR,21.76276513,22.16977179,series_1,5f2db49bdc868c0dacf98ab8,Mężczyzna,27,2021-09-06_19h14.00.794,rantool2,2021.1.4,Win32,59.82292414,6135e006383e6ea6c3d06a28,61364c0e07d48d63535b1026,,,,,,,,
j,1.9528,0,14,14,61,1,5f2db49bdc868c0dacf98ab8,RRRRORO,RRRRORR,21.81333602,21.17347734,series_0,5f2db49bdc868c0dacf98ab8,Mężczyzna,27,2021-09-06_19h14.00.794,rantool2,2021.1.4,Win32,59.82292414,6135e006383e6ea6c3d06a28,61364c0e07d48d63535b1026,,,,,,,,
j,1.3197,0,15,15,17,1,5f2db49bdc868c0dacf98ab8,OROOORO,OROOORR,21.03750787,22.12173012,series_1,5f2db49bdc868c0dacf98ab8,Mężczyzna,27,2021-09-06_19h14.00.794,rantool2,2021.1.4,Win32,59.82292414,6135e006383e6ea6c3d06a28,61364c0e07d48d63535b1026,,,,,,,,
f,0.9021,0,16,16,57,1,5f2db49bdc868c0dacf98ab8,RRROORO,RRROORR,21.82425538,22.07102821,series_1,5f2db49bdc868c0dacf98ab8,Mężczyzna,27,2021-09-06_19h14.00.794,rantool2,2021.1.4,Win32,59.82292414,6135e006383e6ea6c3d06a28,61364c0e07d48d63535b1026,,,,,,,,
f,1.2529,0,17,17,56,1,5f2db49bdc868c0dacf98ab8,RRROOOO,RRROOOR,21.6194508,22.31681875,series_1,5f2db49bdc868c0dacf98ab8,Mężczyzna,27,2021-09-06_19h14.00.794,rantool2,2021.1.4,Win32,59.82292414,6135e006383e6ea6c3d06a28,61364c0e07d48d63535b1026,,,,,,,,
j,0.886,0,18,18,36,1,5f2db49bdc868c0dacf98ab8,ROOROOO,ROOROOR,21.07991943,20.9984461,series_0,5f2db49bdc868c0dacf98ab8,Mężczyzna,27,2021-09-06_19h14.00.794,rantool2,2021.1.4,Win32,59.82292414,6135e006383e6ea6c3d06a28,61364c0e07d48d63535b1026,,,,,,,,
f,1.4342,0,19,19,38,1,5f2db49bdc868c0dacf98ab8,ROORROO,ROORROR,21.79500819,21.36812781,series_0,5f2db49bdc868c0dacf98ab8,Mężczyzna,27,2021-09-06_19h14.00.794,rantool2,2021.1.4,Win32,59.82292414,6135e006383e6ea6c3d06a28,61364c0e07d48d63535b1026,,,,,,,,
j,1.4026,0,20,20,8,1,5f2db49bdc868c0dacf98ab8,OOROOOO,OOROOOR,19.91402015,20.89823192,series_1,5f2db49bdc868c0dacf98ab8,Mężczyzna,27,2021-09-06_19h14.00.794,rantool2,2021.1.4,Win32,59.82292414,6135e006383e6ea6c3d06a28,61364c0e07d48d63535b1026,,,,,,,,
f,1.3518,0,21,21,2,1,5f2db49bdc868c0dacf98ab8,OOOOROO,OOOOROR,20.43051175,21.02936224,series_1,5f2db49bdc868c0dacf98ab8,Mężczyzna,27,2021-09-06_19h14.00.794,rantool2,2021.1.4,Win32,59.82292414,6135e006383e6ea6c3d06a28,61364c0e07d48d63535b1026,,,,,,,,
f,1.9707,0,22,22,25,1,5f2db49bdc868c0dacf98ab8,ORROORO,ORROORR,21.79500819,22.61624387,series_1,5f2db49bdc868c0dacf98ab8,Mężczyzna,27,2021-09-06_19h14.00.794,rantool2,2021.1.4,Win32,59.82292414,6135e006383e6ea6c3d06a28,61364c0e07d48d63535b1026,,,,,,,,
f,1.3251,0,23,23,14,1,5f2db49bdc868c0dacf98ab8,OORRROO,OORRROR,22.24142883,22.16977179,series_0,5f2db49bdc868c0dacf98ab8,Mężczyzna,27,2021-09-06_19h14.00.794,rantool2,2021.1.4,Win32,59.82292414,6135e006383e6ea6c3d06a28,61364c0e07d48d63535b1026,,,,,,,,
j,0.9112,0,24,24,16,1,5f2db49bdc868c0dacf98ab8,OROOOOO,OROOOOR,20.43051175,21.17347734,series_1,5f2db49bdc868c0dacf98ab8,Mężczyzna,27,2021-09-06_19h14.00.794,rantool2,2021.1.4,Win32,59.82292414,6135e006383e6ea6c3d06a28,61364c0e07d48d63535b1026,,,,,,,,
f,1.9166,0,25,25,15,1,5f2db49bdc868c0dacf98ab8,OORRRRO,OORRRRR,22.10108823,21.74922619,series_0,5f2db49bdc868c0dacf98ab8,Mężczyzna,27,2021-09-06_19h14.00.794,rantool2,2021.1.4,Win32,59.82292414,6135e006383e6ea6c3d06a28,61364c0e07d48d63535b1026,,,,,,,,
f,2.0465,0,26,26,9,1,5f2db49bdc868c0dacf98ab8,OOROORO,OOROORR,21.07991943,22.2428857,series_1,5f2db49bdc868c0dacf98ab8,Mężczyzna,27,2021-09-06_19h14.00.794,rantool2,2021.1.4,Win32,59.82292414,6135e006383e6ea6c3d06a28,61364c0e07d48d63535b1026,,,,,,,,
j,1.7254,0,27,27,30,1,5f2db49bdc868c0dacf98ab8,ORRRROO,ORRRROR,22.46748491,22.03072203,series_0,5f2db49bdc868c0dacf98ab8,Mężczyzna,27,2021-09-06_19h14.00.794,rantool2,2021.1.4,Win32,59.82292414,6135e006383e6ea6c3d06a28,61364c0e07d48d63535b1026,,,,,,,,
f,1.3039,0,28,28,13,1,5f2db49bdc868c0dacf98ab8,OORRORO,OORRORR,21.66733484,22.11181017,series_1,5f2db49bdc868c0dacf98ab8,Mężczyzna,27,2021-09-06_19h14.00.794,rantool2,2021.1.4,Win32,59.82292414,6135e006383e6ea6c3d06a28,61364c0e07d48d63535b1026,,,,,,,,
j,1.9809,0,29,29,3,1,5f2db49bdc868c0dacf98ab8,OOOORRO,OOOORRR,20.90986523,21.74922619,series_1,5f2db49bdc868c0dacf98ab8,Mężczyzna,27,2021-09-06_19h14.00.794,rantool2,2021.1.4,Win32,59.82292414,6135e006383e6ea6c3d06a28,61364c0e07d48d63535b1026,,,,,,,,
f,0.8904,0,30,30,29,1,5f2db49bdc868c0dacf98ab8,ORRRORO,ORRRORR,22.00300695,22.12173012,series_1,5f2db49bdc868c0dacf98ab8,Mężczyzna,27,2021-09-06_19h14.00.794,rantool2,2021.1.4,Win32,59.82292414,6135e006383e6ea6c3d06a28,61364c0e07d48d63535b1026,,,,,,,,
f,2.3159,0,31,31,44,1,5f2db49bdc868c0dacf98ab8,RORROOO,RORROOR,21.66733484,22.02566557,series_1,5f2db49bdc868c0dacf98ab8,Mężczyzna,27,2021-09-06_19h14.00.794,rantool2,2021.1.4,Win32,59.82292414,6135e006383e6ea6c3d06a28,61364c0e07d48d63535b1026,,,,,,,,
j,1.2164,0,32,32,28,1,5f2db49bdc868c0dacf98ab8,ORRROOO,ORRROOR,22.24142883,22.53364006,series_1,5f2db49bdc868c0dacf98ab8,Mężczyzna,27,2021-09-06_19h14.00.794,rantool2,2021.1.4,Win32,59.82292414,6135e006383e6ea6c3d06a28,61364c0e07d48d63535b1026,,,,,,,,
f,0.9921,0,33,33,51,1,5f2db49bdc868c0dacf98ab8,RROORRO,RROORRR,21.89852628,22.02786418,series_1,5f2db49bdc868c0dacf98ab8,Mężczyzna,27,2021-09-06_19h14.00.794,rantool2,2021.1.4,Win32,59.82292414,6135e006383e6ea6c3d06a28,61364c0e07d48d63535b1026,,,,,,,,
f,2.5372,0,34,34,63,1,5f2db49bdc868c0dacf98ab8,RRRRRRO,RRRRRRR,21.35278725,19.62521613,series_0,5f2db49bdc868c0dacf98ab8,Mężczyzna,27,2021-09-06_19h14.00.794,rantool2,2021.1.4,Win32,59.82292414,6135e006383e6ea6c3d06a28,61364c0e07d48d63535b1026,,,,,,,,
f,1.3809,0,35,35,47,1,5f2db49bdc868c0dacf98ab8,RORRRRO,RORRRRR,21.81333602,21.02936224,series_0,5f2db49bdc868c0dacf98ab8,Mężczyzna,27,2021-09-06_19h14.00.794,rantool2,2021.1.4,Win32,59.82292414,6135e006383e6ea6c3d06a28,61364c0e07d48d63535b1026,,,,,,,,
j,1.4677,0,36,36,60,1,5f2db49bdc868c0dacf98ab8,RRRROOO,RRRROOR,22.10108823,22.15934078,series_1,5f2db49bdc868c0dacf98ab8,Mężczyzna,27,2021-09-06_19h14.00.794,rantool2,2021.1.4,Win32,59.82292414,6135e006383e6ea6c3d06a28,61364c0e07d48d63535b1026,,,,,,,,
j,2.369,0,37,37,7,1,5f2db49bdc868c0dacf98ab8,OOORRRO,OOORRRR,21.6194508,21.899017,series_1,5f2db49bdc868c0dacf98ab8,Mężczyzna,27,2021-09-06_19h14.00.794,rantool2,2021.1.4,Win32,59.82292414,6135e006383e6ea6c3d06a28,61364c0e07d48d63535b1026,,,,,,,,
j,1.665,0,38,38,19,1,5f2db49bdc868c0dacf98ab8,OROORRO,OROORRR,21.73568164,22.11181017,series_1,5f2db49bdc868c0dacf98ab8,Mężczyzna,27,2021-09-06_19h14.00.794,rantool2,2021.1.4,Win32,59.82292414,6135e006383e6ea6c3d06a28,61364c0e07d48d63535b1026,,,,,,,,
f,1.4269,0,39,39,0,1,5f2db49bdc868c0dacf98ab8,OOOOOOO,OOOOOOR,18.52739004,19.62521613,series_1,5f2db49bdc868c0dacf98ab8,Mężczyzna,27,2021-09-06_19h14.00.794,rantool2,2021.1.4,Win32,59.82292414,6135e006383e6ea6c3d06a28,61364c0e07d48d63535b1026,,,,,,,,
f,1.7753,0,40,40,58,1,5f2db49bdc868c0dacf98ab8,RRROROO,RRROROR,22.1285618,21.37121559,series_0,5f2db49bdc868c0dacf98ab8,Mężczyzna,27,2021-09-06_19h14.00.794,rantool2,2021.1.4,Win32,59.82292414,6135e006383e6ea6c3d06a28,61364c0e07d48d63535b1026,,,,,,,,
j,1.8244,0,41,41,42,1,5f2db49bdc868c0dacf98ab8,ROROROO,ROROROR,20.39515459,19.8361834,series_0,5f2db49bdc868c0dacf98ab8,Mężczyzna,27,2021-09-06_19h14.00.794,rantool2,2021.1.4,Win32,59.82292414,6135e006383e6ea6c3d06a28,61364c0e07d48d63535b1026,,,,,,,,
j,1.8042,0,42,42,6,1,5f2db49bdc868c0dacf98ab8,OOORROO,OOORROR,21.12383932,21.38562617,series_1,5f2db49bdc868c0dacf98ab8,Mężczyzna,27,2021-09-06_19h14.00.794,rantool2,2021.1.4,Win32,59.82292414,6135e006383e6ea6c3d06a28,61364c0e07d48d63535b1026,,,,,,,,
f,2.8163,0,43,43,45,1,5f2db49bdc868c0dacf98ab8,RORRORO,RORRORR,20.78182524,21.22513037,series_1,5f2db49bdc868c0dacf98ab8,Mężczyzna,27,2021-09-06_19h14.00.794,rantool2,2021.1.4,Win32,59.82292414,6135e006383e6ea6c3d06a28,61364c0e07d48d63535b1026,,,,,,,,
f,1.5548,0,44,44,32,1,5f2db49bdc868c0dacf98ab8,ROOOOOO,ROOOOOR,19.92253567,21.27974287,series_1,5f2db49bdc868c0dacf98ab8,Mężczyzna,27,2021-09-06_19h14.00.794,rantool2,2021.1.4,Win32,59.82292414,6135e006383e6ea6c3d06a28,61364c0e07d48d63535b1026,,,,,,,,
f,1.8168,0,45,45,37,1,5f2db49bdc868c0dacf98ab8,ROORORO,ROORORR,20.42602454,21.57657071,series_1,5f2db49bdc868c0dacf98ab8,Mężczyzna,27,2021-09-06_19h14.00.794,rantool2,2021.1.4,Win32,59.82292414,6135e006383e6ea6c3d06a28,61364c0e07d48d63535b1026,,,,,,,,
j,1.7935,0,46,46,11,1,5f2db49bdc868c0dacf98ab8,OORORRO,OORORRR,22.18365867,22.6797523,series_1,5f2db49bdc868c0dacf98ab8,Mężczyzna,27,2021-09-06_19h14.00.794,rantool2,2021.1.4,Win32,59.82292414,6135e006383e6ea6c3d06a28,61364c0e07d48d63535b1026,,,,,,,,
f,1.4831,0,47,47,27,1,5f2db49bdc868c0dacf98ab8,ORRORRO,ORRORRR,21.55250791,22.2428857,series_1,5f2db49bdc868c0dacf98ab8,Mężczyzna,27,2021-09-06_19h14.00.794,rantool2,2021.1.4,Win32,59.82292414,6135e006383e6ea6c3d06a28,61364c0e07d48d63535b1026,,,,,,,,
j,1.7363,0,48,48,40,1,5f2db49bdc868c0dacf98ab8,ROROOOO,ROROOOR,20.87963819,21.37121559,series_1,5f2db49bdc868c0dacf98ab8,Mężczyzna,27,2021-09-06_19h14.00.794,rantool2,2021.1.4,Win32,59.82292414,6135e006383e6ea6c3d06a28,61364c0e07d48d63535b1026,,,,,,,,
f,1.65,0,49,49,46,1,5f2db49bdc868c0dacf98ab8,RORRROO,RORRROR,22.00300695,21.24781509,series_0,5f2db49bdc868c0dacf98ab8,Mężczyzna,27,2021-09-06_19h14.00.794,rantool2,2021.1.4,Win32,59.82292414,6135e006383e6ea6c3d06a28,61364c0e07d48d63535b1026,,,,,,,,
f,1.7497,0,50,50,54,1,5f2db49bdc868c0dacf98ab8,RRORROO,RRORROR,21.55250791,20.9984461,series_0,5f2db49bdc868c0dacf98ab8,Mężczyzna,27,2021-09-06_19h14.00.794,rantool2,2021.1.4,Win32,59.82292414,6135e006383e6ea6c3d06a28,61364c0e07d48d63535b1026,,,,,,,,
f,1.7063,0,51,51,39,1,5f2db49bdc868c0dacf98ab8,ROORRRO,ROORRRR,21.82425538,21.38562617,series_0,5f2db49bdc868c0dacf98ab8,Mężczyzna,27,2021-09-06_19h14.00.794,rantool2,2021.1.4,Win32,59.82292414,6135e006383e6ea6c3d06a28,61364c0e07d48d63535b1026,,,,,,,,
j,1.2389,0,52,52,20,1,5f2db49bdc868c0dacf98ab8,OROROOO,OROROOR,21.31236711,21.90565814,series_1,5f2db49bdc868c0dacf98ab8,Mężczyzna,27,2021-09-06_19h14.00.794,rantool2,2021.1.4,Win32,59.82292414,6135e006383e6ea6c3d06a28,61364c0e07d48d63535b1026,,,,,,,,
f,2.049,0,53,53,24,1,5f2db49bdc868c0dacf98ab8,ORROOOO,ORROOOR,21.12383932,22.07102821,series_1,5f2db49bdc868c0dacf98ab8,Mężczyzna,27,2021-09-06_19h14.00.794,rantool2,2021.1.4,Win32,59.82292414,6135e006383e6ea6c3d06a28,61364c0e07d48d63535b1026,,,,,,,,
j,1.4412,0,54,54,33,1,5f2db49bdc868c0dacf98ab8,ROOOORO,ROOOORR,20.83779602,22.03072203,series_1,5f2db49bdc868c0dacf98ab8,Mężczyzna,27,2021-09-06_19h14.00.794,rantool2,2021.1.4,Win32,59.82292414,6135e006383e6ea6c3d06a28,61364c0e07d48d63535b1026,,,,,,,,
f,1.3682,0,55,55,43,1,5f2db49bdc868c0dacf98ab8,RORORRO,RORORRR,20.71309134,21.07490964,series_1,5f2db49bdc868c0dacf98ab8,Mężczyzna,27,2021-09-06_19h14.00.794,rantool2,2021.1.4,Win32,59.82292414,6135e006383e6ea6c3d06a28,61364c0e07d48d63535b1026,,,,,,,,
j,0.7895,0,56,56,10,1,5f2db49bdc868c0dacf98ab8,OOROROO,OOROROR,21.31236711,21.07490964,series_0,5f2db49bdc868c0dacf98ab8,Mężczyzna,27,2021-09-06_19h14.00.794,rantool2,2021.1.4,Win32,59.82292414,6135e006383e6ea6c3d06a28,61364c0e07d48d63535b1026,,,,,,,,
f,1.3158,0,57,57,59,1,5f2db49bdc868c0dacf98ab8,RRRORRO,RRRORRR,21.56657303,20.89823192,series_0,5f2db49bdc868c0dacf98ab8,Mężczyzna,27,2021-09-06_19h14.00.794,rantool2,2021.1.4,Win32,59.82292414,6135e006383e6ea6c3d06a28,61364c0e07d48d63535b1026,,,,,,,,
j,1.0189,0,58,58,4,1,5f2db49bdc868c0dacf98ab8,OOOROOO,OOOROOR,19.91402015,21.21223021,series_1,5f2db49bdc868c0dacf98ab8,Mężczyzna,27,2021-09-06_19h14.00.794,rantool2,2021.1.4,Win32,59.82292414,6135e006383e6ea6c3d06a28,61364c0e07d48d63535b1026,,,,,,,,
f,0.8881,0,59,59,62,1,5f2db49bdc868c0dacf98ab8,RRRRROO,RRRRROR,22.16413392,21.27974287,series_0,5f2db49bdc868c0dacf98ab8,Mężczyzna,27,2021-09-06_19h14.00.794,rantool2,2021.1.4,Win32,59.82292414,6135e006383e6ea6c3d06a28,61364c0e07d48d63535b1026,,,,,,,,
f,0.8392,0,60,60,52,1,5f2db49bdc868c0dacf98ab8,RROROOO,RROROOR,22.18365867,22.11097995,series_0,5f2db49bdc868c0dacf98ab8,Mężczyzna,27,2021-09-06_19h14.00.794,rantool2,2021.1.4,Win32,59.82292414,6135e006383e6ea6c3d06a28,61364c0e07d48d63535b1026,,,,,,,,
f,0.9941,0,61,61,31,1,5f2db49bdc868c0dacf98ab8,ORRRRRO,ORRRRRR,22.16413392,20.74050628,series_0,5f2db49bdc868c0dacf98ab8,Mężczyzna,27,2021-09-06_19h14.00.794,rantool2,2021.1.4,Win32,59.82292414,6135e006383e6ea6c3d06a28,61364c0e07d48d63535b1026,,,,,,,,
f,1.1072,0,62,62,22,1,5f2db49bdc868c0dacf98ab8,ORORROO,ORORROR,22.02732763,21.57657071,series_0,5f2db49bdc868c0dacf98ab8,Mężczyzna,27,2021-09-06_19h14.00.794,rantool2,2021.1.4,Win32,59.82292414,6135e006383e6ea6c3d06a28,61364c0e07d48d63535b1026,,,,,,,,
f,1.021,0,63,63,21,1,5f2db49bdc868c0dacf98ab8,ORORORO,ORORORR,20.39515459,22.06781359,series_1,5f2db49bdc868c0dacf98ab8,Mężczyzna,27,2021-09-06_19h14.00.794,rantool2,2021.1.4,Win32,59.82292414,6135e006383e6ea6c3d06a28,61364c0e07d48d63535b1026,,,,,,,,
,,,,,,,5f2db49bdc868c0dacf98ab8,,,,,,5f2db49bdc868c0dacf98ab8,Mężczyzna,27,2021-09-06_19h14.00.794,rantool2,2021.1.4,Win32,59.82292414,6135e006383e6ea6c3d06a28,61364c0e07d48d63535b1026,"[""period""]",0,[1.0641999999284621],0,0,0,0,1
,,,,,,,5f2db49bdc868c0dacf98ab8,,,,,,5f2db49bdc868c0dacf98ab8,Mężczyzna,27,2021-09-06_19h14.00.794,rantool2,2021.1.4,Win32,59.82292414,6135e006383e6ea6c3d06a28,61364c0e07d48d63535b1026,"[""period""]",0,[0.3597000000476669],1,0,1,0,1
,,,,,,,5f2db49bdc868c0dacf98ab8,,,,,,5f2db49bdc868c0dacf98ab8,Mężczyzna,27,2021-09-06_19h14.00.794,rantool2,2021.1.4,Win32,59.82292414,6135e006383e6ea6c3d06a28,61364c0e07d48d63535b1026,"[""comma""]",0,[0.9226000000238344],2,0,2,0,1
,,,,,,,5f2db49bdc868c0dacf98ab8,,,,,,5f2db49bdc868c0dacf98ab8,Mężczyzna,27,2021-09-06_19h14.00.794,rantool2,2021.1.4,Win32,59.82292414,6135e006383e6ea6c3d06a28,61364c0e07d48d63535b1026,"[""period"",""period""]",0,"[0.328099999904623,1.0625]",3,0,3,0,1
,,,,,,,5f2db49bdc868c0dacf98ab8,,,,,,5f2db49bdc868c0dacf98ab8,Mężczyzna,27,2021-09-06_19h14.00.794,rantool2,2021.1.4,Win32,59.82292414,6135e006383e6ea6c3d06a28,61364c0e07d48d63535b1026,"[""comma"",""comma""]",0,"[0.4181000000238555,0.7692000000476753]",4,0,4,0,1
,,,,,,,5f2db49bdc868c0dacf98ab8,,,,,,5f2db49bdc868c0dacf98ab8,Mężczyzna,27,2021-09-06_19h14.00.794,rantool2,2021.1.4,Win32,59.82292414,6135e006383e6ea6c3d06a28,61364c0e07d48d63535b1026,"[""period""]",0,[1.025999999999982],5,0,5,0,1
,,,,,,,5f2db49bdc868c0dacf98ab8,,,,,,5f2db49bdc868c0dacf98ab8,Mężczyzna,27,2021-09-06_19h14.00.794,rantool2,2021.1.4,Win32,59.82292414,6135e006383e6ea6c3d06a28,61364c0e07d48d63535b1026,"[""comma""]",0,[0.4399999999999977],6,0,6,0,1
,,,,,,,5f2db49bdc868c0dacf98ab8,,,,,,5f2db49bdc868c0dacf98ab8,Mężczyzna,27,2021-09-06_19h14.00.794,rantool2,2021.1.4,Win32,59.82292414,6135e006383e6ea6c3d06a28,61364c0e07d48d63535b1026,"[""period"",""period"",""period""]",0,"[0.02660000002384777,0.3287000000476894,0.9434000000953517]",7,0,7,0,1
,,,,,,,5f2db49bdc868c0dacf98ab8,,,,,,5f2db49bdc868c0dacf98ab8,Mężczyzna,27,2021-09-06_19h14.00.794,rantool2,2021.1.4,Win32,59.82292414,6135e006383e6ea6c3d06a28,61364c0e07d48d63535b1026,"[""comma""]",0,[0.27839999997615905],8,0,8,0,1
,,,,,,,5f2db49bdc868c0dacf98ab8,,,,,,5f2db49bdc868c0dacf98ab8,Mężczyzna,27,2021-09-06_19h14.00.794,rantool2,2021.1.4,Win32,59.82292414,6135e006383e6ea6c3d06a28,61364c0e07d48d63535b1026,"[""period""]",0,[0.4866000000238557],9,0,9,0,1
,,,,,,,5f2db49bdc868c0dacf98ab8,,,,,,5f2db49bdc868c0dacf98ab8,Mężczyzna,27,2021-09-06_19h14.00.794,rantool2,2021.1.4,Win32,59.82292414,6135e006383e6ea6c3d06a28,61364c0e07d48d63535b1026,"[""period""]",0,[0.2293000000715324],10,0,10,0,1
,,,,,,,5f2db49bdc868c0dacf98ab8,,,,,,5f2db49bdc868c0dacf98ab8,Mężczyzna,27,2021-09-06_19h14.00.794,rantool2,2021.1.4,Win32,59.82292414,6135e006383e6ea6c3d06a28,61364c0e07d48d63535b1026,"[""comma"",""comma"",""period""]",0,"[0.06210000002386096,1.093600000023855,1.8704000000953727]",11,0,11,0,1
,,,,,,,5f2db49bdc868c0dacf98ab8,,,,,,5f2db49bdc868c0dacf98ab8,Mężczyzna,27,2021-09-06_19h14.00.794,rantool2,2021.1.4,Win32,59.82292414,6135e006383e6ea6c3d06a28,61364c0e07d48d63535b1026,"[""period"",""period""]",0,"[0.5867000000476708,0.8017999999522942]",12,0,12,0,1
,,,,,,,5f2db49bdc868c0dacf98ab8,,,,,,5f2db49bdc868c0dacf98ab8,Mężczyzna,27,2021-09-06_19h14.00.794,rantool2,2021.1.4,Win32,59.82292414,6135e006383e6ea6c3d06a28,61364c0e07d48d63535b1026,"[""comma""]",0,[0.04599999999999227],13,0,13,0,1
,,,,,,,5f2db49bdc868c0dacf98ab8,,,,,,5f2db49bdc868c0dacf98ab8,Mężczyzna,27,2021-09-06_19h14.00.794,rantool2,2021.1.4,Win32,59.82292414,6135e006383e6ea6c3d06a28,61364c0e07d48d63535b1026,"[""period"",""period""]",0,"[0.0006000000238373104,0.6626000000238434]",14,0,14,0,1
,,,,,,,5f2db49bdc868c0dacf98ab8,,,,,,5f2db49bdc868c0dacf98ab8,Mężczyzna,27,2021-09-06_19h14.00.794,rantool2,2021.1.4,Win32,59.82292414,6135e006383e6ea6c3d06a28,61364c0e07d48d63535b1026,"[""period"",""period""]",0,"[0.26249999999998863,1.917600000023839]",15,0,15,0,1
,,,,,,,5f2db49bdc868c0dacf98ab8,,,,,,5f2db49bdc868c0dacf98ab8,Mężczyzna,27,2021-09-06_19h14.00.794,rantool2,2021.1.4,Win32,59.82292414,6135e006383e6ea6c3d06a28,61364c0e07d48d63535b1026,"[""period"",""period""]",0,"[0.3733999999761579,0.91310000002386]",16,0,16,0,1
,,,,,,,5f2db49bdc868c0dacf98ab8,,,,,,5f2db49bdc868c0dacf98ab8,Mężczyzna,27,2021-09-06_19h14.00.794,rantool2,2021.1.4,Win32,59.82292414,6135e006383e6ea6c3d06a28,61364c0e07d48d63535b1026,"[""period""]",0,[0.21220000004768735],17,0,17,0,1
,,,,,,,5f2db49bdc868c0dacf98ab8,,,,,,5f2db49bdc868c0dacf98ab8,Mężczyzna,27,2021-09-06_19h14.00.794,rantool2,2021.1.4,Win32,59.82292414,6135e006383e6ea6c3d06a28,61364c0e07d48d63535b1026,"[""comma""]",0,[0.19620000004769622],18,0,18,0,1
,,,,,,,5f2db49bdc868c0dacf98ab8,,,,,,5f2db49bdc868c0dacf98ab8,Mężczyzna,27,2021-09-06_19h14.00.794,rantool2,2021.1.4,Win32,59.82292414,6135e006383e6ea6c3d06a28,61364c0e07d48d63535b1026,"[""comma""]",0,[0.568000000000012],19,0,19,0,1
,,,,,,,5f2db49bdc868c0dacf98ab8,,,,,,5f2db49bdc868c0dacf98ab8,Mężczyzna,27,2021-09-06_19h14.00.794,rantool2,2021.1.4,Win32,59.82292414,6135e006383e6ea6c3d06a28,61364c0e07d48d63535b1026,"[""period""]",0,[0.21379999995230037],20,0,20,0,1
,,,,,,,5f2db49bdc868c0dacf98ab8,,,,,,5f2db49bdc868c0dacf98ab8,Mężczyzna,27,2021-09-06_19h14.00.794,rantool2,2021.1.4,Win32,59.82292414,6135e006383e6ea6c3d06a28,61364c0e07d48d63535b1026,"[""comma""]",0,[0.18970000004765097],21,0,21,0,1
,,,,,,,5f2db49bdc868c0dacf98ab8,,,,,,5f2db49bdc868c0dacf98ab8,Mężczyzna,27,2021-09-06_19h14.00.794,rantool2,2021.1.4,Win32,59.82292414,6135e006383e6ea6c3d06a28,61364c0e07d48d63535b1026,"[""period""]",0,[0.2528999999761936],22,0,22,0,1
,,,,,,,5f2db49bdc868c0dacf98ab8,,,,,,5f2db49bdc868c0dacf98ab8,Mężczyzna,27,2021-09-06_19h14.00.794,rantool2,2021.1.4,Win32,59.82292414,6135e006383e6ea6c3d06a28,61364c0e07d48d63535b1026,"[""period""]",0,[0.3242000000476537],23,0,23,0,1
,,,,,,,5f2db49bdc868c0dacf98ab8,,,,,,5f2db49bdc868c0dacf98ab8,Mężczyzna,27,2021-09-06_19h14.00.794,rantool2,2021.1.4,Win32,59.82292414,6135e006383e6ea6c3d06a28,61364c0e07d48d63535b1026,"[""comma"",""period""]",0,"[0.16629999995234357,1.922099999904617]",24,0,24,0,1
,,,,,,,5f2db49bdc868c0dacf98ab8,,,,,,5f2db49bdc868c0dacf98ab8,Mężczyzna,27,2021-09-06_19h14.00.794,rantool2,2021.1.4,Win32,59.82292414,6135e006383e6ea6c3d06a28,61364c0e07d48d63535b1026,"[""period""]",0,[0.6188000000715306],25,0,25,0,1
,,,,,,,5f2db49bdc868c0dacf98ab8,,,,,,5f2db49bdc868c0dacf98ab8,Mężczyzna,27,2021-09-06_19h14.00.794,rantool2,2021.1.4,Win32,59.82292414,6135e006383e6ea6c3d06a28,61364c0e07d48d63535b1026,"[""period"",""period"",""period"",""period""]",0,"[0.049600000023872326,0.26539999997618224,0.43479999995236085,0.9800000000000182]",26,0,26,0,1
,,,,,,,5f2db49bdc868c0dacf98ab8,,,,,,5f2db49bdc868c0dacf98ab8,Mężczyzna,27,2021-09-06_19h14.00.794,rantool2,2021.1.4,Win32,59.82292414,6135e006383e6ea6c3d06a28,61364c0e07d48d63535b1026,"[""period"",""period"",""period""]",0,"[0.2749000000953856,0.49530000007155195,0.6846000000238632]",27,0,27,0,1
,,,,,,,5f2db49bdc868c0dacf98ab8,,,,,,5f2db49bdc868c0dacf98ab8,Mężczyzna,27,2021-09-06_19h14.00.794,rantool2,2021.1.4,Win32,59.82292414,6135e006383e6ea6c3d06a28,61364c0e07d48d63535b1026,"[""comma"",""comma""]",0,"[0.2805999999046094,0.9013999999761495]",28,0,28,0,1
,,,,,,,5f2db49bdc868c0dacf98ab8,,,,,,5f2db49bdc868c0dacf98ab8,Mężczyzna,27,2021-09-06_19h14.00.794,rantool2,2021.1.4,Win32,59.82292414,6135e006383e6ea6c3d06a28,61364c0e07d48d63535b1026,"[""period""]",0,[0.2871000000238837],29,0,29,0,1
,,,,,,,5f2db49bdc868c0dacf98ab8,,,,,,5f2db49bdc868c0dacf98ab8,Mężczyzna,27,2021-09-06_19h14.00.794,rantool2,2021.1.4,Win32,59.82292414,6135e006383e6ea6c3d06a28,61364c0e07d48d63535b1026,"[""comma""]",0,[0.23430000007152785],30,0,30,0,1
,,,,,,,5f2db49bdc868c0dacf98ab8,,,,,,5f2db49bdc868c0dacf98ab8,Mężczyzna,27,2021-09-06_19h14.00.794,rantool2,2021.1.4,Win32,59.82292414,6135e006383e6ea6c3d06a28,61364c0e07d48d63535b1026,"[""comma""]",0,[0.18590000009538699],31,0,31,0,1
,,,,,,,5f2db49bdc868c0dacf98ab8,,,,,,5f2db49bdc868c0dacf98ab8,Mężczyzna,27,2021-09-06_19h14.00.794,rantool2,2021.1.4,Win32,59.82292414,6135e006383e6ea6c3d06a28,61364c0e07d48d63535b1026,"[""comma""]",0,[0.3201999999284908],32,0,32,0,1
,,,,,,,5f2db49bdc868c0dacf98ab8,,,,,,5f2db49bdc868c0dacf98ab8,Mężczyzna,27,2021-09-06_19h14.00.794,rantool2,2021.1.4,Win32,59.82292414,6135e006383e6ea6c3d06a28,61364c0e07d48d63535b1026,"[""period""]",0,[0.23279999995230582],33,0,33,0,1
,,,,,,,5f2db49bdc868c0dacf98ab8,,,,,,5f2db49bdc868c0dacf98ab8,Mężczyzna,27,2021-09-06_19h14.00.794,rantool2,2021.1.4,Win32,59.82292414,6135e006383e6ea6c3d06a28,61364c0e07d48d63535b1026,"[""comma""]",0,[0.21840000009535743],34,0,34,0,1
,,,,,,,5f2db49bdc868c0dacf98ab8,,,,,,5f2db49bdc868c0dacf98ab8,Mężczyzna,27,2021-09-06_19h14.00.794,rantool2,2021.1.4,Win32,59.82292414,6135e006383e6ea6c3d06a28,61364c0e07d48d63535b1026,"[""comma""]",0,[0.6408999999761704],35,0,35,0,1
,,,,,,,5f2db49bdc868c0dacf98ab8,,,,,,5f2db49bdc868c0dacf98ab8,Mężczyzna,27,2021-09-06_19h14.00.794,rantool2,2021.1.4,Win32,59.82292414,6135e006383e6ea6c3d06a28,61364c0e07d48d63535b1026,"[""period"",""period""]",0,"[0.3245999999045921,1.862599999904603]",36,0,36,0,1
,,,,,,,5f2db49bdc868c0dacf98ab8,,,,,,5f2db49bdc868c0dacf98ab8,Mężczyzna,27,2021-09-06_19h14.00.794,rantool2,2021.1.4,Win32,59.82292414,6135e006383e6ea6c3d06a28,61364c0e07d48d63535b1026,"[""period""]",0,[0.8983000000715151],37,0,37,0,1
,,,,,,,5f2db49bdc868c0dacf98ab8,,,,,,5f2db49bdc868c0dacf98ab8,Mężczyzna,27,2021-09-06_19h14.00.794,rantool2,2021.1.4,Win32,59.82292414,6135e006383e6ea6c3d06a28,61364c0e07d48d63535b1026,"[""period"",""period"",""period""]",0,"[1.4206000000238532,1.6709999999999923,1.883900000095366]",38,0,38,0,1
,,,,,,,5f2db49bdc868c0dacf98ab8,,,,,,5f2db49bdc868c0dacf98ab8,Mężczyzna,27,2021-09-06_19h14.00.794,rantool2,2021.1.4,Win32,59.82292414,6135e006383e6ea6c3d06a28,61364c0e07d48d63535b1026,"[""period"",""period"",""period"",""period""]",0,"[0.11640000009538198,0.32799999999997453,0.5745000000000005,0.8067000000476696]",39,0,39,0,1
,,,,,,,5f2db49bdc868c0dacf98ab8,,,,,,5f2db49bdc868c0dacf98ab8,Mężczyzna,27,2021-09-06_19h14.00.794,rantool2,2021.1.4,Win32,59.82292414,6135e006383e6ea6c3d06a28,61364c0e07d48d63535b1026,"[""comma"",""comma"",""comma""]",0,"[0.731200000047636,1.055499999999995,1.3181000000238328]",40,0,40,0,1
,,,,,,,5f2db49bdc868c0dacf98ab8,,,,,,5f2db49bdc868c0dacf98ab8,Mężczyzna,27,2021-09-06_19h14.00.794,rantool2,2021.1.4,Win32,59.82292414,6135e006383e6ea6c3d06a28,61364c0e07d48d63535b1026,"[""comma"",""comma"",""comma""]",0,"[0.2999000000953629,0.5409999999999968,0.7282000000476501]",41,0,41,0,1
,,,,,,,5f2db49bdc868c0dacf98ab8,,,,,,5f2db49bdc868c0dacf98ab8,Mężczyzna,27,2021-09-06_19h14.00.794,rantool2,2021.1.4,Win32,59.82292414,6135e006383e6ea6c3d06a28,61364c0e07d48d63535b1026,"[""period"",""period"",""period""]",0,"[0.23280000007150647,0.45400000000000773,0.6697000000476692]",42,0,42,0,1
,,,,,,,5f2db49bdc868c0dacf98ab8,,,,,,5f2db49bdc868c0dacf98ab8,Mężczyzna,27,2021-09-06_19h14.00.794,rantool2,2021.1.4,Win32,59.82292414,6135e006383e6ea6c3d06a28,61364c0e07d48d63535b1026,"[""comma""]",0,[0.23929999995232265],43,0,43,0,1
,,,,,,,5f2db49bdc868c0dacf98ab8,,,,,,5f2db49bdc868c0dacf98ab8,Mężczyzna,27,2021-09-06_19h14.00.794,rantool2,2021.1.4,Win32,59.82292414,6135e006383e6ea6c3d06a28,61364c0e07d48d63535b1026,"[""period""]",0,[0.2674999999999841],44,0,44,0,1
,,,,,,,5f2db49bdc868c0dacf98ab8,,,,,,5f2db49bdc868c0dacf98ab8,Mężczyzna,27,2021-09-06_19h14.00.794,rantool2,2021.1.4,Win32,59.82292414,6135e006383e6ea6c3d06a28,61364c0e07d48d63535b1026,"[""comma""]",0,[0.272599999904628],45,0,45,0,1
,,,,,,,5f2db49bdc868c0dacf98ab8,,,,,,5f2db49bdc868c0dacf98ab8,Mężczyzna,27,2021-09-06_19h14.00.794,rantool2,2021.1.4,Win32,59.82292414,6135e006383e6ea6c3d06a28,61364c0e07d48d63535b1026,"[""period""]",0,[0.6251999999284976],46,0,46,0,1
,,,,,,,5f2db49bdc868c0dacf98ab8,,,,,,5f2db49bdc868c0dacf98ab8,Mężczyzna,27,2021-09-06_19h14.00.794,rantool2,2021.1.4,Win32,59.82292414,6135e006383e6ea6c3d06a28,61364c0e07d48d63535b1026,"[""comma""]",0,[0.2557999999523304],47,0,47,0,1
,,,,,,,5f2db49bdc868c0dacf98ab8,,,,,,5f2db49bdc868c0dacf98ab8,Mężczyzna,27,2021-09-06_19h14.00.794,rantool2,2021.1.4,Win32,59.82292414,6135e006383e6ea6c3d06a28,61364c0e07d48d63535b1026,"[""period""]",0,[0.1698000000715183],48,0,48,0,1
,,,,,,,5f2db49bdc868c0dacf98ab8,,,,,,5f2db49bdc868c0dacf98ab8,Mężczyzna,27,2021-09-06_19h14.00.794,rantool2,2021.1.4,Win32,59.82292414,6135e006383e6ea6c3d06a28,61364c0e07d48d63535b1026,"[""comma"",""comma""]",0,"[0.01819999992846988,0.6831000000238419]",49,0,49,0,1
,,,,,,,5f2db49bdc868c0dacf98ab8,,,,,,5f2db49bdc868c0dacf98ab8,Mężczyzna,27,2021-09-06_19h14.00.794,rantool2,2021.1.4,Win32,59.82292414,6135e006383e6ea6c3d06a28,61364c0e07d48d63535b1026,"[""period""]",0,[0.8262999999523117],50,0,50,0,1
,,,,,,,5f2db49bdc868c0dacf98ab8,,,,,,5f2db49bdc868c0dacf98ab8,Mężczyzna,27,2021-09-06_19h14.00.794,rantool2,2021.1.4,Win32,59.82292414,6135e006383e6ea6c3d06a28,61364c0e07d48d63535b1026,0,0,,51,0,51,0,1
,,,,,,,5f2db49bdc868c0dacf98ab8,,,,,,5f2db49bdc868c0dacf98ab8,Mężczyzna,27,2021-09-06_19h14.00.794,rantool2,2021.1.4,Win32,59.82292414,6135e006383e6ea6c3d06a28,61364c0e07d48d63535b1026,"[""comma""]",0,[0.6360999999046157],52,0,52,0,1
,,,,,,,5f2db49bdc868c0dacf98ab8,,,,,,5f2db49bdc868c0dacf98ab8,Mężczyzna,27,2021-09-06_19h14.00.794,rantool2,2021.1.4,Win32,59.82292414,6135e006383e6ea6c3d06a28,61364c0e07d48d63535b1026,"[""period"",""period""]",0,"[0.7074999999999818,0.9727000000476664]",53,0,53,0,1
,,,,,,,5f2db49bdc868c0dacf98ab8,,,,,,5f2db49bdc868c0dacf98ab8,Mężczyzna,27,2021-09-06_19h14.00.794,rantool2,2021.1.4,Win32,59.82292414,6135e006383e6ea6c3d06a28,61364c0e07d48d63535b1026,"[""period"",""period"",""period""]",0,"[0.2557000000476819,0.5742000000477105,0.8622000000476646]",54,0,54,0,1
,,,,,,,5f2db49bdc868c0dacf98ab8,,,,,,5f2db49bdc868c0dacf98ab8,Mężczyzna,27,2021-09-06_19h14.00.794,rantool2,2021.1.4,Win32,59.82292414,6135e006383e6ea6c3d06a28,61364c0e07d48d63535b1026,"[""comma""]",0,[0.7532000000476842],55,0,55,0,1
,,,,,,,5f2db49bdc868c0dacf98ab8,,,,,,5f2db49bdc868c0dacf98ab8,Mężczyzna,27,2021-09-06_19h14.00.794,rantool2,2021.1.4,Win32,59.82292414,6135e006383e6ea6c3d06a28,61364c0e07d48d63535b1026,"[""period""]",0,[0.2746000000238382],56,0,56,0,1
,,,,,,,5f2db49bdc868c0dacf98ab8,,,,,,5f2db49bdc868c0dacf98ab8,Mężczyzna,27,2021-09-06_19h14.00.794,rantool2,2021.1.4,Win32,59.82292414,6135e006383e6ea6c3d06a28,61364c0e07d48d63535b1026,"[""period""]",0,[0.1951000000238423],57,0,57,0,1
,,,,,,,5f2db49bdc868c0dacf98ab8,,,,,,5f2db49bdc868c0dacf98ab8,Mężczyzna,27,2021-09-06_19h14.00.794,rantool2,2021.1.4,Win32,59.82292414,6135e006383e6ea6c3d06a28,61364c0e07d48d63535b1026,"[""period""]",0,[0.34189999997619225],58,0,58,0,1
,,,,,,,5f2db49bdc868c0dacf98ab8,,,,,,5f2db49bdc868c0dacf98ab8,Mężczyzna,27,2021-09-06_19h14.00.794,rantool2,2021.1.4,Win32,59.82292414,6135e006383e6ea6c3d06a28,61364c0e07d48d63535b1026,"[""comma""]",0,[0.262300000071491],59,0,59,0,1
,,,,,,,5f2db49bdc868c0dacf98ab8,,,,,,5f2db49bdc868c0dacf98ab8,Mężczyzna,27,2021-09-06_19h14.00.794,rantool2,2021.1.4,Win32,59.82292414,6135e006383e6ea6c3d06a28,61364c0e07d48d63535b1026,"[""comma""]",0,[0.23500000000001364],60,0,60,0,1
,,,,,,,5f2db49bdc868c0dacf98ab8,,,,,,5f2db49bdc868c0dacf98ab8,Mężczyzna,27,2021-09-06_19h14.00.794,rantool2,2021.1.4,Win32,59.82292414,6135e006383e6ea6c3d06a28,61364c0e07d48d63535b1026,"[""comma""]",0,[0.22289999997616405],61,0,61,0,1
,,,,,,,5f2db49bdc868c0dacf98ab8,,,,,,5f2db49bdc868c0dacf98ab8,Mężczyzna,27,2021-09-06_19h14.00.794,rantool2,2021.1.4,Win32,59.82292414,6135e006383e6ea6c3d06a28,61364c0e07d48d63535b1026,"[""period""]",0,[0.2627000000476869],62,0,62,0,1
,,,,,,,5f2db49bdc868c0dacf98ab8,,,,,,5f2db49bdc868c0dacf98ab8,Mężczyzna,27,2021-09-06_19h14.00.794,rantool2,2021.1.4,Win32,59.82292414,6135e006383e6ea6c3d06a28,61364c0e07d48d63535b1026,"[""period""]",0,[0.2615000000000123],63,0,63,0,1
,,,,,,,5f2db49bdc868c0dacf98ab8,,,,,,5f2db49bdc868c0dacf98ab8,Mężczyzna,27,2021-09-06_19h14.00.794,rantool2,2021.1.4,Win32,59.82292414,6135e006383e6ea6c3d06a28,61364c0e07d48d63535b1026,"[""comma""]",0,[0.25360000002388006],64,0,64,0,1
,,,,,,,5f2db49bdc868c0dacf98ab8,,,,,,5f2db49bdc868c0dacf98ab8,Mężczyzna,27,2021-09-06_19h14.00.794,rantool2,2021.1.4,Win32,59.82292414,6135e006383e6ea6c3d06a28,61364c0e07d48d63535b1026,"[""period""]",0,[0.2343999999761195],65,0,65,0,1
,,,,,,,5f2db49bdc868c0dacf98ab8,,,,,,5f2db49bdc868c0dacf98ab8,Mężczyzna,27,2021-09-06_19h14.00.794,rantool2,2021.1.4,Win32,59.82292414,6135e006383e6ea6c3d06a28,61364c0e07d48d63535b1026,"[""period""]",0,[0.4456000000238305],66,0,66,0,1
,,,,,,,5f2db49bdc868c0dacf98ab8,,,,,,5f2db49bdc868c0dacf98ab8,Mężczyzna,27,2021-09-06_19h14.00.794,rantool2,2021.1.4,Win32,59.82292414,6135e006383e6ea6c3d06a28,61364c0e07d48d63535b1026,"[""comma"",""period""]",0,"[0.11779999995229673,1.9226999999284544]",67,0,67,0,1
,,,,,,,5f2db49bdc868c0dacf98ab8,,,,,,5f2db49bdc868c0dacf98ab8,Mężczyzna,27,2021-09-06_19h14.00.794,rantool2,2021.1.4,Win32,59.82292414,6135e006383e6ea6c3d06a28,61364c0e07d48d63535b1026,"[""period"",""period""]",0,"[0.5567000000476696,0.7911000000237891]",68,0,68,0,1
,,,,,,,5f2db49bdc868c0dacf98ab8,,,,,,5f2db49bdc868c0dacf98ab8,Mężczyzna,27,2021-09-06_19h14.00.794,rantool2,2021.1.4,Win32,59.82292414,6135e006383e6ea6c3d06a28,61364c0e07d48d63535b1026,"[""period""]",0,[0.2688999999761563],69,0,69,0,1
,,,,,,,5f2db49bdc868c0dacf98ab8,,,,,,5f2db49bdc868c0dacf98ab8,Mężczyzna,27,2021-09-06_19h14.00.794,rantool2,2021.1.4,Win32,59.82292414,6135e006383e6ea6c3d06a28,61364c0e07d48d63535b1026,"[""period""]",0,[0.3033000000715447],70,0,70,0,1
,,,,,,,5f2db49bdc868c0dacf98ab8,,,,,,5f2db49bdc868c0dacf98ab8,Mężczyzna,27,2021-09-06_19h14.00.794,rantool2,2021.1.4,Win32,59.82292414,6135e006383e6ea6c3d06a28,61364c0e07d48d63535b1026,"[""period""]",0,[0.33089999997616815],71,0,71,0,1
,,,,,,,5f2db49bdc868c0dacf98ab8,,,,,,5f2db49bdc868c0dacf98ab8,Mężczyzna,27,2021-09-06_19h14.00.794,rantool2,2021.1.4,Win32,59.82292414,6135e006383e6ea6c3d06a28,61364c0e07d48d63535b1026,"[""comma""]",0,[0.3095000000000141],72,0,72,0,1
,,,,,,,5f2db49bdc868c0dacf98ab8,,,,,,5f2db49bdc868c0dacf98ab8,Mężczyzna,27,2021-09-06_19h14.00.794,rantool2,2021.1.4,Win32,59.82292414,6135e006383e6ea6c3d06a28,61364c0e07d48d63535b1026,"[""period""]",0,[0.32389999997616314],73,0,73,0,1
,,,,,,,5f2db49bdc868c0dacf98ab8,,,,,,5f2db49bdc868c0dacf98ab8,Mężczyzna,27,2021-09-06_19h14.00.794,rantool2,2021.1.4,Win32,59.82292414,6135e006383e6ea6c3d06a28,61364c0e07d48d63535b1026,"[""comma""]",0,[0.3007999999523463],74,0,74,0,1
,,,,,,,5f2db49bdc868c0dacf98ab8,,,,,,5f2db49bdc868c0dacf98ab8,Mężczyzna,27,2021-09-06_19h14.00.794,rantool2,2021.1.4,Win32,59.82292414,6135e006383e6ea6c3d06a28,61364c0e07d48d63535b1026,"[""comma""]",0,[0.25869999992846715],75,0,75,0,1
,,,,,,,5f2db49bdc868c0dacf98ab8,,,,,,5f2db49bdc868c0dacf98ab8,Mężczyzna,27,2021-09-06_19h14.00.794,rantool2,2021.1.4,Win32,59.82292414,6135e006383e6ea6c3d06a28,61364c0e07d48d63535b1026,"[""period""]",0,[0.19539999997618906],76,0,76,0,1
,,,,,,,5f2db49bdc868c0dacf98ab8,,,,,,5f2db49bdc868c0dacf98ab8,Mężczyzna,27,2021-09-06_19h14.00.794,rantool2,2021.1.4,Win32,59.82292414,6135e006383e6ea6c3d06a28,61364c0e07d48d63535b1026,"[""comma""]",0,[0.2336000000238414],77,0,77,0,1
,,,,,,,5f2db49bdc868c0dacf98ab8,,,,,,5f2db49bdc868c0dacf98ab8,Mężczyzna,27,2021-09-06_19h14.00.794,rantool2,2021.1.4,Win32,59.82292414,6135e006383e6ea6c3d06a28,61364c0e07d48d63535b1026,"[""comma""]",0,[0.22939999997618088],78,0,78,0,1
,,,,,,,5f2db49bdc868c0dacf98ab8,,,,,,5f2db49bdc868c0dacf98ab8,Mężczyzna,27,2021-09-06_19h14.00.794,rantool2,2021.1.4,Win32,59.82292414,6135e006383e6ea6c3d06a28,61364c0e07d48d63535b1026,"[""comma""]",0,[0.2627999999523354],79,0,79,0,1
,,,,,,,5f2db49bdc868c0dacf98ab8,,,,,,5f2db49bdc868c0dacf98ab8,Mężczyzna,27,2021-09-06_19h14.00.794,rantool2,2021.1.4,Win32,59.82292414,6135e006383e6ea6c3d06a28,61364c0e07d48d63535b1026,"[""period""]",0,[0.22249999999996817],80,0,80,0,1
,,,,,,,5f2db49bdc868c0dacf98ab8,,,,,,5f2db49bdc868c0dacf98ab8,Mężczyzna,27,2021-09-06_19h14.00.794,rantool2,2021.1.4,Win32,59.82292414,6135e006383e6ea6c3d06a28,61364c0e07d48d63535b1026,"[""period""]",0,[0.2666999999284485],81,0,81,0,1
,,,,,,,5f2db49bdc868c0dacf98ab8,,,,,,5f2db49bdc868c0dacf98ab8,Mężczyzna,27,2021-09-06_19h14.00.794,rantool2,2021.1.4,Win32,59.82292414,6135e006383e6ea6c3d06a28,61364c0e07d48d63535b1026,"[""comma""]",0,[0.25310000002383504],82,0,82,0,1
,,,,,,,5f2db49bdc868c0dacf98ab8,,,,,,5f2db49bdc868c0dacf98ab8,Mężczyzna,27,2021-09-06_19h14.00.794,rantool2,2021.1.4,Win32,59.82292414,6135e006383e6ea6c3d06a28,61364c0e07d48d63535b1026,"[""period""]",0,[0.28729999995232447],83,0,83,0,1
,,,,,,,5f2db49bdc868c0dacf98ab8,,,,,,5f2db49bdc868c0dacf98ab8,Mężczyzna,27,2021-09-06_19h14.00.794,rantool2,2021.1.4,Win32,59.82292414,6135e006383e6ea6c3d06a28,61364c0e07d48d63535b1026,"[""comma""]",0,[0.3931999999284699],84,0,84,0,1
,,,,,,,5f2db49bdc868c0dacf98ab8,,,,,,5f2db49bdc868c0dacf98ab8,Mężczyzna,27,2021-09-06_19h14.00.794,rantool2,2021.1.4,Win32,59.82292414,6135e006383e6ea6c3d06a28,61364c0e07d48d63535b1026,"[""comma""]",0,[0.09210000002389052],85,0,85,0,1
,,,,,,,5f2db49bdc868c0dacf98ab8,,,,,,5f2db49bdc868c0dacf98ab8,Mężczyzna,27,2021-09-06_19h14.00.794,rantool2,2021.1.4,Win32,59.82292414,6135e006383e6ea6c3d06a28,61364c0e07d48d63535b1026,"[""comma"",""comma""]",0,"[-0.01130000007151466,0.4225999999046053]",86,0,86,0,1
,,,,,,,5f2db49bdc868c0dacf98ab8,,,,,,5f2db49bdc868c0dacf98ab8,Mężczyzna,27,2021-09-06_19h14.00.794,rantool2,2021.1.4,Win32,59.82292414,6135e006383e6ea6c3d06a28,61364c0e07d48d63535b1026,"[""period""]",0,[0.01710000002384504],87,0,87,0,1
,,,,,,,5f2db49bdc868c0dacf98ab8,,,,,,5f2db49bdc868c0dacf98ab8,Mężczyzna,27,2021-09-06_19h14.00.794,rantool2,2021.1.4,Win32,59.82292414,6135e006383e6ea6c3d06a28,61364c0e07d48d63535b1026,"[""period""]",0,[0.1593999999761877],88,0,88,0,1
,,,,,,,5f2db49bdc868c0dacf98ab8,,,,,,5f2db49bdc868c0dacf98ab8,Mężczyzna,27,2021-09-06_19h14.00.794,rantool2,2021.1.4,Win32,59.82292414,6135e006383e6ea6c3d06a28,61364c0e07d48d63535b1026,"[""comma""]",0,[0.2880000000000109],89,0,89,0,1
,,,,,,,5f2db49bdc868c0dacf98ab8,,,,,,5f2db49bdc868c0dacf98ab8,Mężczyzna,27,2021-09-06_19h14.00.794,rantool2,2021.1.4,Win32,59.82292414,6135e006383e6ea6c3d06a28,61364c0e07d48d63535b1026,"[""comma""]",0,[0.33299999999997],90,0,90,0,1
,,,,,,,5f2db49bdc868c0dacf98ab8,,,,,,5f2db49bdc868c0dacf98ab8,Mężczyzna,27,2021-09-06_19h14.00.794,rantool2,2021.1.4,Win32,59.82292414,6135e006383e6ea6c3d06a28,61364c0e07d48d63535b1026,"[""period"",""period""]",0,"[0.28329999995230537,1.9458999999761772]",91,0,91,0,1
,,,,,,,5f2db49bdc868c0dacf98ab8,,,,,,5f2db49bdc868c0dacf98ab8,Mężczyzna,27,2021-09-06_19h14.00.794,rantool2,2021.1.4,Win32,59.82292414,6135e006383e6ea6c3d06a28,61364c0e07d48d63535b1026,"[""period""]",0,[0.45729999995228354],92,0,92,0,1
,,,,,,,5f2db49bdc868c0dacf98ab8,,,,,,5f2db49bdc868c0dacf98ab8,Mężczyzna,27,2021-09-06_19h14.00.794,rantool2,2021.1.4,Win32,59.82292414,6135e006383e6ea6c3d06a28,61364c0e07d48d63535b1026,"[""period""]",0,[0.10349999999999682],93,0,93,0,1
,,,,,,,5f2db49bdc868c0dacf98ab8,,,,,,5f2db49bdc868c0dacf98ab8,Mężczyzna,27,2021-09-06_19h14.00.794,rantool2,2021.1.4,Win32,59.82292414,6135e006383e6ea6c3d06a28,61364c0e07d48d63535b1026,"[""period""]",0,[0.24349999999998317],94,0,94,0,1
,,,,,,,5f2db49bdc868c0dacf98ab8,,,,,,5f2db49bdc868c0dacf98ab8,Mężczyzna,27,2021-09-06_19h14.00.794,rantool2,2021.1.4,Win32,59.82292414,6135e006383e6ea6c3d06a28,61364c0e07d48d63535b1026,"[""period""]",0,[0.2529999999999859],95,0,95,0,1
,,,,,,,5f2db49bdc868c0dacf98ab8,,,,,,5f2db49bdc868c0dacf98ab8,Mężczyzna,27,2021-09-06_19h14.00.794,rantool2,2021.1.4,Win32,59.82292414,6135e006383e6ea6c3d06a28,61364c0e07d48d63535b1026,"[""period"",""period""]",0,"[0.31049999999999045,1.7908000000714992]",96,0,96,0,1
,,,,,,,5f2db49bdc868c0dacf98ab8,,,,,,5f2db49bdc868c0dacf98ab8,Mężczyzna,27,2021-09-06_19h14.00.794,rantool2,2021.1.4,Win32,59.82292414,6135e006383e6ea6c3d06a28,61364c0e07d48d63535b1026,"[""comma""]",0,[1.7283000000714992],97,0,97,0,1
,,,,,,,5f2db49bdc868c0dacf98ab8,,,,,,5f2db49bdc868c0dacf98ab8,Mężczyzna,27,2021-09-06_19h14.00.794,rantool2,2021.1.4,Win32,59.82292414,6135e006383e6ea6c3d06a28,61364c0e07d48d63535b1026,"[""comma""]",0,[0.46630000007149874],98,0,98,0,1
,,,,,,,5f2db49bdc868c0dacf98ab8,,,,,,5f2db49bdc868c0dacf98ab8,Mężczyzna,27,2021-09-06_19h14.00.794,rantool2,2021.1.4,Win32,59.82292414,6135e006383e6ea6c3d06a28,61364c0e07d48d63535b1026,"[""period""]",0,[0.23510000002386278],99,0,99,0,1
,,,,,,,5f2db49bdc868c0dacf98ab8,,,,,,5f2db49bdc868c0dacf98ab8,Mężczyzna,27,2021-09-06_19h14.00.794,rantool2,2021.1.4,Win32,59.82292414,6135e006383e6ea6c3d06a28,61364c0e07d48d63535b1026,"[""period""]",0,[0.3594999999999686],100,0,100,0,1
,,,,,,,5f2db49bdc868c0dacf98ab8,,,,,,5f2db49bdc868c0dacf98ab8,Mężczyzna,27,2021-09-06_19h14.00.794,rantool2,2021.1.4,Win32,59.82292414,6135e006383e6ea6c3d06a28,61364c0e07d48d63535b1026,"[""period""]",0,[0.28439999997613086],101,0,101,0,1
,,,,,,,5f2db49bdc868c0dacf98ab8,,,,,,5f2db49bdc868c0dacf98ab8,Mężczyzna,27,2021-09-06_19h14.00.794,rantool2,2021.1.4,Win32,59.82292414,6135e006383e6ea6c3d06a28,61364c0e07d48d63535b1026,"[""period""]",0,[0.39360000002380957],102,0,102,0,1
,,,,,,,5f2db49bdc868c0dacf98ab8,,,,,,5f2db49bdc868c0dacf98ab8,Mężczyzna,27,2021-09-06_19h14.00.794,rantool2,2021.1.4,Win32,59.82292414,6135e006383e6ea6c3d06a28,61364c0e07d48d63535b1026,"[""comma""]",0,[0.2545000000000073],103,0,103,0,1
,,,,,,,5f2db49bdc868c0dacf98ab8,,,,,,5f2db49bdc868c0dacf98ab8,Mężczyzna,27,2021-09-06_19h14.00.794,rantool2,2021.1.4,Win32,59.82292414,6135e006383e6ea6c3d06a28,61364c0e07d48d63535b1026,"[""comma""]",0,[0.2436000000238323],104,0,104,0,1
,,,,,,,5f2db49bdc868c0dacf98ab8,,,,,,5f2db49bdc868c0dacf98ab8,Mężczyzna,27,2021-09-06_19h14.00.794,rantool2,2021.1.4,Win32,59.82292414,6135e006383e6ea6c3d06a28,61364c0e07d48d63535b1026,"[""period""]",0,[0.32479999995229036],105,0,105,0,1
,,,,,,,5f2db49bdc868c0dacf98ab8,,,,,,5f2db49bdc868c0dacf98ab8,Mężczyzna,27,2021-09-06_19h14.00.794,rantool2,2021.1.4,Win32,59.82292414,6135e006383e6ea6c3d06a28,61364c0e07d48d63535b1026,"[""period"",""period""]",0,"[0.2115000000000009,1.9042999999523431]",106,0,106,0,1
,,,,,,,5f2db49bdc868c0dacf98ab8,,,,,,5f2db49bdc868c0dacf98ab8,Mężczyzna,27,2021-09-06_19h14.00.794,rantool2,2021.1.4,Win32,59.82292414,6135e006383e6ea6c3d06a28,61364c0e07d48d63535b1026,"[""comma""]",0,[1.9470000000000027],107,0,107,0,1
,,,,,,,5f2db49bdc868c0dacf98ab8,,,,,,5f2db49bdc868c0dacf98ab8,Mężczyzna,27,2021-09-06_19h14.00.794,rantool2,2021.1.4,Win32,59.82292414,6135e006383e6ea6c3d06a28,61364c0e07d48d63535b1026,"[""period""]",0,[1.2168999999761922],108,0,108,0,1
,,,,,,,5f2db49bdc868c0dacf98ab8,,,,,,5f2db49bdc868c0dacf98ab8,Mężczyzna,27,2021-09-06_19h14.00.794,rantool2,2021.1.4,Win32,59.82292414,6135e006383e6ea6c3d06a28,61364c0e07d48d63535b1026,"[""period"",""period""]",0,"[0.5573000000715638,0.8063999999761791]",109,0,109,0,1
,,,,,,,5f2db49bdc868c0dacf98ab8,,,,,,5f2db49bdc868c0dacf98ab8,Mężczyzna,27,2021-09-06_19h14.00.794,rantool2,2021.1.4,Win32,59.82292414,6135e006383e6ea6c3d06a28,61364c0e07d48d63535b1026,"[""period"",""period"",""period"",""period""]",0,"[0.0595000000000141,0.3375999999046826,0.5820999999046421,0.8681999999284926]",110,0,110,0,1
,,,,,,,5f2db49bdc868c0dacf98ab8,,,,,,5f2db49bdc868c0dacf98ab8,Mężczyzna,27,2021-09-06_19h14.00.794,rantool2,2021.1.4,Win32,59.82292414,6135e006383e6ea6c3d06a28,61364c0e07d48d63535b1026,"[""comma""]",0,[0.4342000000477242],111,0,111,0,1
,,,,,,,5f2db49bdc868c0dacf98ab8,,,,,,5f2db49bdc868c0dacf98ab8,Mężczyzna,27,2021-09-06_19h14.00.794,rantool2,2021.1.4,Win32,59.82292414,6135e006383e6ea6c3d06a28,61364c0e07d48d63535b1026,"[""comma""]",0,[0.19029999995234448],112,0,112,0,1
,,,,,,,5f2db49bdc868c0dacf98ab8,,,,,,5f2db49bdc868c0dacf98ab8,Mężczyzna,27,2021-09-06_19h14.00.794,rantool2,2021.1.4,Win32,59.82292414,6135e006383e6ea6c3d06a28,61364c0e07d48d63535b1026,"[""comma""]",0,[0.286199999928499],113,0,113,0,1
,,,,,,,5f2db49bdc868c0dacf98ab8,,,,,,5f2db49bdc868c0dacf98ab8,Mężczyzna,27,2021-09-06_19h14.00.794,rantool2,2021.1.4,Win32,59.82292414,6135e006383e6ea6c3d06a28,61364c0e07d48d63535b1026,"[""period""]",0,[0.8187000000476701],114,0,114,0,1
,,,,,,,5f2db49bdc868c0dacf98ab8,,,,,,5f2db49bdc868c0dacf98ab8,Mężczyzna,27,2021-09-06_19h14.00.794,rantool2,2021.1.4,Win32,59.82292414,6135e006383e6ea6c3d06a28,61364c0e07d48d63535b1026,"[""period""]",0,[0.4411999999284717],115,0,115,0,1
,,,,,,,5f2db49bdc868c0dacf98ab8,,,,,,5f2db49bdc868c0dacf98ab8,Mężczyzna,27,2021-09-06_19h14.00.794,rantool2,2021.1.4,Win32,59.82292414,6135e006383e6ea6c3d06a28,61364c0e07d48d63535b1026,"[""period""]",0,[0.19979999995229036],116,0,116,0,1
,,,,,,,5f2db49bdc868c0dacf98ab8,,,,,,5f2db49bdc868c0dacf98ab8,Mężczyzna,27,2021-09-06_19h14.00.794,rantool2,2021.1.4,Win32,59.82292414,6135e006383e6ea6c3d06a28,61364c0e07d48d63535b1026,"[""period""]",0,[0.017600000023833218],117,0,117,0,1
,,,,,,,5f2db49bdc868c0dacf98ab8,,,,,,5f2db49bdc868c0dacf98ab8,Mężczyzna,27,2021-09-06_19h14.00.794,rantool2,2021.1.4,Win32,59.82292414,6135e006383e6ea6c3d06a28,61364c0e07d48d63535b1026,"[""period""]",0,[1.21579999995231],118,0,118,0,1
,,,,,,,5f2db49bdc868c0dacf98ab8,,,,,,5f2db49bdc868c0dacf98ab8,Mężczyzna,27,2021-09-06_19h14.00.794,rantool2,2021.1.4,Win32,59.82292414,6135e006383e6ea6c3d06a28,61364c0e07d48d63535b1026,"[""period"",""comma"",""comma""]",0,"[0.49069999992843805,0.608299999952294,0.9154999999999518]",119,0,119,0,1
