key_resp_7.keys,key_resp_7.rt,trials_2.thisRepN,trials_2.thisTrialN,trials_2.thisN,trials_2.thisIndex,trials_2.ran,id,series_0,series_1,acss_0,acss_1,comparison,id*,Płeć*,Wiek*,date,expName,psychopyVersion,OS,frameRate,STUDY_ID,SESSION_ID,key_resp_5.keys,key_resp_5.corr,key_resp_5.rt,trials.thisRepN,trials.thisTrialN,trials.thisN,trials.thisIndex,trials.ran
j,2.285,0,0,0,4,1,5eb43dc9664e99274faade46,OOOROOO,OOOROOR,19.91402015,21.21223021,series_1,5eb43dc9664e99274faade46,Kobieta,23,2021-09-06_19h11.44.814,rantool2,2021.1.4,Win32,60.0240096,6135e006383e6ea6c3d06a28,61364b9f698616b39da4ec10,,,,,,,,
f,1.751,0,1,1,1,1,5eb43dc9664e99274faade46,OOOOORO,OOOOORR,19.92253567,20.74050628,series_1,5eb43dc9664e99274faade46,Kobieta,23,2021-09-06_19h11.44.814,rantool2,2021.1.4,Win32,60.0240096,6135e006383e6ea6c3d06a28,61364b9f698616b39da4ec10,,,,,,,,
f,1.321,0,2,2,38,1,5eb43dc9664e99274faade46,ROORROO,ROORROR,21.79500819,21.36812781,series_0,5eb43dc9664e99274faade46,Kobieta,23,2021-09-06_19h11.44.814,rantool2,2021.1.4,Win32,60.0240096,6135e006383e6ea6c3d06a28,61364b9f698616b39da4ec10,,,,,,,,
f,1.9,0,3,3,25,1,5eb43dc9664e99274faade46,ORROORO,ORROORR,21.79500819,22.61624387,series_1,5eb43dc9664e99274faade46,Kobieta,23,2021-09-06_19h11.44.814,rantool2,2021.1.4,Win32,60.0240096,6135e006383e6ea6c3d06a28,61364b9f698616b39da4ec10,,,,,,,,
j,1.335,0,4,4,29,1,5eb43dc9664e99274faade46,ORRRORO,ORRRORR,22.00300695,22.12173012,series_1,5eb43dc9664e99274faade46,Kobieta,23,2021-09-06_19h11.44.814,rantool2,2021.1.4,Win32,60.0240096,6135e006383e6ea6c3d06a28,61364b9f698616b39da4ec10,,,,,,,,
f,1.417,0,5,5,35,1,5eb43dc9664e99274faade46,ROOORRO,ROOORRR,21.76276513,22.16977179,series_1,5eb43dc9664e99274faade46,Kobieta,23,2021-09-06_19h11.44.814,rantool2,2021.1.4,Win32,60.0240096,6135e006383e6ea6c3d06a28,61364b9f698616b39da4ec10,,,,,,,,
j,1.5,0,6,6,20,1,5eb43dc9664e99274faade46,OROROOO,OROROOR,21.31236711,21.90565814,series_1,5eb43dc9664e99274faade46,Kobieta,23,2021-09-06_19h11.44.814,rantool2,2021.1.4,Win32,60.0240096,6135e006383e6ea6c3d06a28,61364b9f698616b39da4ec10,,,,,,,,
f,1.317,0,7,7,28,1,5eb43dc9664e99274faade46,ORRROOO,ORRROOR,22.24142883,22.53364006,series_1,5eb43dc9664e99274faade46,Kobieta,23,2021-09-06_19h11.44.814,rantool2,2021.1.4,Win32,60.0240096,6135e006383e6ea6c3d06a28,61364b9f698616b39da4ec10,,,,,,,,
f,1.537,0,8,8,12,1,5eb43dc9664e99274faade46,OORROOO,OORROOR,21.30250474,22.02786418,series_1,5eb43dc9664e99274faade46,Kobieta,23,2021-09-06_19h11.44.814,rantool2,2021.1.4,Win32,60.0240096,6135e006383e6ea6c3d06a28,61364b9f698616b39da4ec10,,,,,,,,
f,1.621,0,9,9,31,1,5eb43dc9664e99274faade46,ORRRRRO,ORRRRRR,22.16413392,20.74050628,series_0,5eb43dc9664e99274faade46,Kobieta,23,2021-09-06_19h11.44.814,rantool2,2021.1.4,Win32,60.0240096,6135e006383e6ea6c3d06a28,61364b9f698616b39da4ec10,,,,,,,,
f,1.904,0,10,10,42,1,5eb43dc9664e99274faade46,ROROROO,ROROROR,20.39515459,19.8361834,series_0,5eb43dc9664e99274faade46,Kobieta,23,2021-09-06_19h11.44.814,rantool2,2021.1.4,Win32,60.0240096,6135e006383e6ea6c3d06a28,61364b9f698616b39da4ec10,,,,,,,,
f,1.985,0,11,11,39,1,5eb43dc9664e99274faade46,ROORRRO,ROORRRR,21.82425538,21.38562617,series_0,5eb43dc9664e99274faade46,Kobieta,23,2021-09-06_19h11.44.814,rantool2,2021.1.4,Win32,60.0240096,6135e006383e6ea6c3d06a28,61364b9f698616b39da4ec10,,,,,,,,
j,1.038,0,12,12,16,1,5eb43dc9664e99274faade46,OROOOOO,OROOOOR,20.43051175,21.17347734,series_1,5eb43dc9664e99274faade46,Kobieta,23,2021-09-06_19h11.44.814,rantool2,2021.1.4,Win32,60.0240096,6135e006383e6ea6c3d06a28,61364b9f698616b39da4ec10,,,,,,,,
f,1.634,0,13,13,43,1,5eb43dc9664e99274faade46,RORORRO,RORORRR,20.71309134,21.07490964,series_1,5eb43dc9664e99274faade46,Kobieta,23,2021-09-06_19h11.44.814,rantool2,2021.1.4,Win32,60.0240096,6135e006383e6ea6c3d06a28,61364b9f698616b39da4ec10,,,,,,,,
j,1.501,0,14,14,60,1,5eb43dc9664e99274faade46,RRRROOO,RRRROOR,22.10108823,22.15934078,series_1,5eb43dc9664e99274faade46,Kobieta,23,2021-09-06_19h11.44.814,rantool2,2021.1.4,Win32,60.0240096,6135e006383e6ea6c3d06a28,61364b9f698616b39da4ec10,,,,,,,,
f,1.554,0,15,15,21,1,5eb43dc9664e99274faade46,ORORORO,ORORORR,20.39515459,22.06781359,series_1,5eb43dc9664e99274faade46,Kobieta,23,2021-09-06_19h11.44.814,rantool2,2021.1.4,Win32,60.0240096,6135e006383e6ea6c3d06a28,61364b9f698616b39da4ec10,,,,,,,,
j,1.818,0,16,16,13,1,5eb43dc9664e99274faade46,OORRORO,OORRORR,21.66733484,22.11181017,series_1,5eb43dc9664e99274faade46,Kobieta,23,2021-09-06_19h11.44.814,rantool2,2021.1.4,Win32,60.0240096,6135e006383e6ea6c3d06a28,61364b9f698616b39da4ec10,,,,,,,,
f,1.308,0,17,17,7,1,5eb43dc9664e99274faade46,OOORRRO,OOORRRR,21.6194508,21.899017,series_1,5eb43dc9664e99274faade46,Kobieta,23,2021-09-06_19h11.44.814,rantool2,2021.1.4,Win32,60.0240096,6135e006383e6ea6c3d06a28,61364b9f698616b39da4ec10,,,,,,,,
f,1.517,0,18,18,17,1,5eb43dc9664e99274faade46,OROOORO,OROOORR,21.03750787,22.12173012,series_1,5eb43dc9664e99274faade46,Kobieta,23,2021-09-06_19h11.44.814,rantool2,2021.1.4,Win32,60.0240096,6135e006383e6ea6c3d06a28,61364b9f698616b39da4ec10,,,,,,,,
j,1.577,0,19,19,0,1,5eb43dc9664e99274faade46,OOOOOOO,OOOOOOR,18.52739004,19.62521613,series_1,5eb43dc9664e99274faade46,Kobieta,23,2021-09-06_19h11.44.814,rantool2,2021.1.4,Win32,60.0240096,6135e006383e6ea6c3d06a28,61364b9f698616b39da4ec10,,,,,,,,
j,1.434,0,20,20,24,1,5eb43dc9664e99274faade46,ORROOOO,ORROOOR,21.12383932,22.07102821,series_1,5eb43dc9664e99274faade46,Kobieta,23,2021-09-06_19h11.44.814,rantool2,2021.1.4,Win32,60.0240096,6135e006383e6ea6c3d06a28,61364b9f698616b39da4ec10,,,,,,,,
f,1.69,0,21,21,23,1,5eb43dc9664e99274faade46,ORORRRO,ORORRRR,22.1285618,21.9921709,series_0,5eb43dc9664e99274faade46,Kobieta,23,2021-09-06_19h11.44.814,rantool2,2021.1.4,Win32,60.0240096,6135e006383e6ea6c3d06a28,61364b9f698616b39da4ec10,,,,,,,,
f,1.418,0,22,22,5,1,5eb43dc9664e99274faade46,OOORORO,OOORORR,20.87963819,21.9921709,series_1,5eb43dc9664e99274faade46,Kobieta,23,2021-09-06_19h11.44.814,rantool2,2021.1.4,Win32,60.0240096,6135e006383e6ea6c3d06a28,61364b9f698616b39da4ec10,,,,,,,,
f,1.401,0,23,23,6,1,5eb43dc9664e99274faade46,OOORROO,OOORROR,21.12383932,21.38562617,series_1,5eb43dc9664e99274faade46,Kobieta,23,2021-09-06_19h11.44.814,rantool2,2021.1.4,Win32,60.0240096,6135e006383e6ea6c3d06a28,61364b9f698616b39da4ec10,,,,,,,,
j,1.39,0,24,24,27,1,5eb43dc9664e99274faade46,ORRORRO,ORRORRR,21.55250791,22.2428857,series_1,5eb43dc9664e99274faade46,Kobieta,23,2021-09-06_19h11.44.814,rantool2,2021.1.4,Win32,60.0240096,6135e006383e6ea6c3d06a28,61364b9f698616b39da4ec10,,,,,,,,
f,1.152,0,25,25,8,1,5eb43dc9664e99274faade46,OOROOOO,OOROOOR,19.91402015,20.89823192,series_1,5eb43dc9664e99274faade46,Kobieta,23,2021-09-06_19h11.44.814,rantool2,2021.1.4,Win32,60.0240096,6135e006383e6ea6c3d06a28,61364b9f698616b39da4ec10,,,,,,,,
j,1.301,0,26,26,3,1,5eb43dc9664e99274faade46,OOOORRO,OOOORRR,20.90986523,21.74922619,series_1,5eb43dc9664e99274faade46,Kobieta,23,2021-09-06_19h11.44.814,rantool2,2021.1.4,Win32,60.0240096,6135e006383e6ea6c3d06a28,61364b9f698616b39da4ec10,,,,,,,,
f,1.118,0,27,27,41,1,5eb43dc9664e99274faade46,ROROORO,ROROORR,20.42602454,21.71443381,series_1,5eb43dc9664e99274faade46,Kobieta,23,2021-09-06_19h11.44.814,rantool2,2021.1.4,Win32,60.0240096,6135e006383e6ea6c3d06a28,61364b9f698616b39da4ec10,,,,,,,,
j,1.355,0,28,28,54,1,5eb43dc9664e99274faade46,RRORROO,RRORROR,21.55250791,20.9984461,series_0,5eb43dc9664e99274faade46,Kobieta,23,2021-09-06_19h11.44.814,rantool2,2021.1.4,Win32,60.0240096,6135e006383e6ea6c3d06a28,61364b9f698616b39da4ec10,,,,,,,,
f,1.151,0,29,29,2,1,5eb43dc9664e99274faade46,OOOOROO,OOOOROR,20.43051175,21.02936224,series_1,5eb43dc9664e99274faade46,Kobieta,23,2021-09-06_19h11.44.814,rantool2,2021.1.4,Win32,60.0240096,6135e006383e6ea6c3d06a28,61364b9f698616b39da4ec10,,,,,,,,
f,1.789,0,30,30,44,1,5eb43dc9664e99274faade46,RORROOO,RORROOR,21.66733484,22.02566557,series_1,5eb43dc9664e99274faade46,Kobieta,23,2021-09-06_19h11.44.814,rantool2,2021.1.4,Win32,60.0240096,6135e006383e6ea6c3d06a28,61364b9f698616b39da4ec10,,,,,,,,
f,1.741,0,31,31,15,1,5eb43dc9664e99274faade46,OORRRRO,OORRRRR,22.10108823,21.74922619,series_0,5eb43dc9664e99274faade46,Kobieta,23,2021-09-06_19h11.44.814,rantool2,2021.1.4,Win32,60.0240096,6135e006383e6ea6c3d06a28,61364b9f698616b39da4ec10,,,,,,,,
j,1.518,0,32,32,57,1,5eb43dc9664e99274faade46,RRROORO,RRROORR,21.82425538,22.07102821,series_1,5eb43dc9664e99274faade46,Kobieta,23,2021-09-06_19h11.44.814,rantool2,2021.1.4,Win32,60.0240096,6135e006383e6ea6c3d06a28,61364b9f698616b39da4ec10,,,,,,,,
f,1.279,0,33,33,36,1,5eb43dc9664e99274faade46,ROOROOO,ROOROOR,21.07991943,20.9984461,series_0,5eb43dc9664e99274faade46,Kobieta,23,2021-09-06_19h11.44.814,rantool2,2021.1.4,Win32,60.0240096,6135e006383e6ea6c3d06a28,61364b9f698616b39da4ec10,,,,,,,,
f,1.385,0,34,34,37,1,5eb43dc9664e99274faade46,ROORORO,ROORORR,20.42602454,21.57657071,series_1,5eb43dc9664e99274faade46,Kobieta,23,2021-09-06_19h11.44.814,rantool2,2021.1.4,Win32,60.0240096,6135e006383e6ea6c3d06a28,61364b9f698616b39da4ec10,,,,,,,,
j,0.967,0,35,35,50,1,5eb43dc9664e99274faade46,RROOROO,RROOROR,21.73568164,22.02566557,series_1,5eb43dc9664e99274faade46,Kobieta,23,2021-09-06_19h11.44.814,rantool2,2021.1.4,Win32,60.0240096,6135e006383e6ea6c3d06a28,61364b9f698616b39da4ec10,,,,,,,,
j,1.385,0,36,36,48,1,5eb43dc9664e99274faade46,RROOOOO,RROOOOR,20.90986523,22.15934078,series_1,5eb43dc9664e99274faade46,Kobieta,23,2021-09-06_19h11.44.814,rantool2,2021.1.4,Win32,60.0240096,6135e006383e6ea6c3d06a28,61364b9f698616b39da4ec10,,,,,,,,
f,1.434,0,37,37,11,1,5eb43dc9664e99274faade46,OORORRO,OORORRR,22.18365867,22.6797523,series_1,5eb43dc9664e99274faade46,Kobieta,23,2021-09-06_19h11.44.814,rantool2,2021.1.4,Win32,60.0240096,6135e006383e6ea6c3d06a28,61364b9f698616b39da4ec10,,,,,,,,
j,1.441,0,38,38,61,1,5eb43dc9664e99274faade46,RRRRORO,RRRRORR,21.81333602,21.17347734,series_0,5eb43dc9664e99274faade46,Kobieta,23,2021-09-06_19h11.44.814,rantool2,2021.1.4,Win32,60.0240096,6135e006383e6ea6c3d06a28,61364b9f698616b39da4ec10,,,,,,,,
f,1.82,0,39,39,9,1,5eb43dc9664e99274faade46,OOROORO,OOROORR,21.07991943,22.2428857,series_1,5eb43dc9664e99274faade46,Kobieta,23,2021-09-06_19h11.44.814,rantool2,2021.1.4,Win32,60.0240096,6135e006383e6ea6c3d06a28,61364b9f698616b39da4ec10,,,,,,,,
j,1.567,0,40,40,14,1,5eb43dc9664e99274faade46,OORRROO,OORRROR,22.24142883,22.16977179,series_0,5eb43dc9664e99274faade46,Kobieta,23,2021-09-06_19h11.44.814,rantool2,2021.1.4,Win32,60.0240096,6135e006383e6ea6c3d06a28,61364b9f698616b39da4ec10,,,,,,,,
f,1.234,0,41,41,34,1,5eb43dc9664e99274faade46,ROOOROO,ROOOROR,21.03750787,21.24781509,series_1,5eb43dc9664e99274faade46,Kobieta,23,2021-09-06_19h11.44.814,rantool2,2021.1.4,Win32,60.0240096,6135e006383e6ea6c3d06a28,61364b9f698616b39da4ec10,,,,,,,,
j,1.235,0,42,42,62,1,5eb43dc9664e99274faade46,RRRRROO,RRRRROR,22.16413392,21.27974287,series_0,5eb43dc9664e99274faade46,Kobieta,23,2021-09-06_19h11.44.814,rantool2,2021.1.4,Win32,60.0240096,6135e006383e6ea6c3d06a28,61364b9f698616b39da4ec10,,,,,,,,
f,1.255,0,43,43,18,1,5eb43dc9664e99274faade46,OROOROO,OROOROR,20.84860893,21.22513037,series_1,5eb43dc9664e99274faade46,Kobieta,23,2021-09-06_19h11.44.814,rantool2,2021.1.4,Win32,60.0240096,6135e006383e6ea6c3d06a28,61364b9f698616b39da4ec10,,,,,,,,
j,1.417,0,44,44,53,1,5eb43dc9664e99274faade46,RRORORO,RRORORR,20.71309134,21.90565814,series_1,5eb43dc9664e99274faade46,Kobieta,23,2021-09-06_19h11.44.814,rantool2,2021.1.4,Win32,60.0240096,6135e006383e6ea6c3d06a28,61364b9f698616b39da4ec10,,,,,,,,
f,1.473,0,45,45,40,1,5eb43dc9664e99274faade46,ROROOOO,ROROOOR,20.87963819,21.37121559,series_1,5eb43dc9664e99274faade46,Kobieta,23,2021-09-06_19h11.44.814,rantool2,2021.1.4,Win32,60.0240096,6135e006383e6ea6c3d06a28,61364b9f698616b39da4ec10,,,,,,,,
j,1.684,0,46,46,45,1,5eb43dc9664e99274faade46,RORRORO,RORRORR,20.78182524,21.22513037,series_1,5eb43dc9664e99274faade46,Kobieta,23,2021-09-06_19h11.44.814,rantool2,2021.1.4,Win32,60.0240096,6135e006383e6ea6c3d06a28,61364b9f698616b39da4ec10,,,,,,,,
f,1.383,0,47,47,51,1,5eb43dc9664e99274faade46,RROORRO,RROORRR,21.89852628,22.02786418,series_1,5eb43dc9664e99274faade46,Kobieta,23,2021-09-06_19h11.44.814,rantool2,2021.1.4,Win32,60.0240096,6135e006383e6ea6c3d06a28,61364b9f698616b39da4ec10,,,,,,,,
j,1.719,0,48,48,22,1,5eb43dc9664e99274faade46,ORORROO,ORORROR,22.02732763,21.57657071,series_0,5eb43dc9664e99274faade46,Kobieta,23,2021-09-06_19h11.44.814,rantool2,2021.1.4,Win32,60.0240096,6135e006383e6ea6c3d06a28,61364b9f698616b39da4ec10,,,,,,,,
j,1.821,0,49,49,30,1,5eb43dc9664e99274faade46,ORRRROO,ORRRROR,22.46748491,22.03072203,series_0,5eb43dc9664e99274faade46,Kobieta,23,2021-09-06_19h11.44.814,rantool2,2021.1.4,Win32,60.0240096,6135e006383e6ea6c3d06a28,61364b9f698616b39da4ec10,,,,,,,,
f,1.101,0,50,50,46,1,5eb43dc9664e99274faade46,RORRROO,RORRROR,22.00300695,21.24781509,series_0,5eb43dc9664e99274faade46,Kobieta,23,2021-09-06_19h11.44.814,rantool2,2021.1.4,Win32,60.0240096,6135e006383e6ea6c3d06a28,61364b9f698616b39da4ec10,,,,,,,,
j,1.889,0,51,51,32,1,5eb43dc9664e99274faade46,ROOOOOO,ROOOOOR,19.92253567,21.27974287,series_1,5eb43dc9664e99274faade46,Kobieta,23,2021-09-06_19h11.44.814,rantool2,2021.1.4,Win32,60.0240096,6135e006383e6ea6c3d06a28,61364b9f698616b39da4ec10,,,,,,,,
f,1.785,0,52,52,10,1,5eb43dc9664e99274faade46,OOROROO,OOROROR,21.31236711,21.07490964,series_0,5eb43dc9664e99274faade46,Kobieta,23,2021-09-06_19h11.44.814,rantool2,2021.1.4,Win32,60.0240096,6135e006383e6ea6c3d06a28,61364b9f698616b39da4ec10,,,,,,,,
f,1.286,0,53,53,47,1,5eb43dc9664e99274faade46,RORRRRO,RORRRRR,21.81333602,21.02936224,series_0,5eb43dc9664e99274faade46,Kobieta,23,2021-09-06_19h11.44.814,rantool2,2021.1.4,Win32,60.0240096,6135e006383e6ea6c3d06a28,61364b9f698616b39da4ec10,,,,,,,,
f,1.484,0,54,54,52,1,5eb43dc9664e99274faade46,RROROOO,RROROOR,22.18365867,22.11097995,series_0,5eb43dc9664e99274faade46,Kobieta,23,2021-09-06_19h11.44.814,rantool2,2021.1.4,Win32,60.0240096,6135e006383e6ea6c3d06a28,61364b9f698616b39da4ec10,,,,,,,,
j,1.634,0,55,55,58,1,5eb43dc9664e99274faade46,RRROROO,RRROROR,22.1285618,21.37121559,series_0,5eb43dc9664e99274faade46,Kobieta,23,2021-09-06_19h11.44.814,rantool2,2021.1.4,Win32,60.0240096,6135e006383e6ea6c3d06a28,61364b9f698616b39da4ec10,,,,,,,,
j,2.217,0,56,56,19,1,5eb43dc9664e99274faade46,OROORRO,OROORRR,21.73568164,22.11181017,series_1,5eb43dc9664e99274faade46,Kobieta,23,2021-09-06_19h11.44.814,rantool2,2021.1.4,Win32,60.0240096,6135e006383e6ea6c3d06a28,61364b9f698616b39da4ec10,,,,,,,,
f,1.251,0,57,57,49,1,5eb43dc9664e99274faade46,RROOORO,RROOORR,21.76276513,22.53364006,series_1,5eb43dc9664e99274faade46,Kobieta,23,2021-09-06_19h11.44.814,rantool2,2021.1.4,Win32,60.0240096,6135e006383e6ea6c3d06a28,61364b9f698616b39da4ec10,,,,,,,,
f,1.485,0,58,58,33,1,5eb43dc9664e99274faade46,ROOOORO,ROOOORR,20.83779602,22.03072203,series_1,5eb43dc9664e99274faade46,Kobieta,23,2021-09-06_19h11.44.814,rantool2,2021.1.4,Win32,60.0240096,6135e006383e6ea6c3d06a28,61364b9f698616b39da4ec10,,,,,,,,
f,1.718,0,59,59,59,1,5eb43dc9664e99274faade46,RRRORRO,RRRORRR,21.56657303,20.89823192,series_0,5eb43dc9664e99274faade46,Kobieta,23,2021-09-06_19h11.44.814,rantool2,2021.1.4,Win32,60.0240096,6135e006383e6ea6c3d06a28,61364b9f698616b39da4ec10,,,,,,,,
f,1.917,0,60,60,56,1,5eb43dc9664e99274faade46,RRROOOO,RRROOOR,21.6194508,22.31681875,series_1,5eb43dc9664e99274faade46,Kobieta,23,2021-09-06_19h11.44.814,rantool2,2021.1.4,Win32,60.0240096,6135e006383e6ea6c3d06a28,61364b9f698616b39da4ec10,,,,,,,,
j,1.836,0,61,61,63,1,5eb43dc9664e99274faade46,RRRRRRO,RRRRRRR,21.35278725,19.62521613,series_0,5eb43dc9664e99274faade46,Kobieta,23,2021-09-06_19h11.44.814,rantool2,2021.1.4,Win32,60.0240096,6135e006383e6ea6c3d06a28,61364b9f698616b39da4ec10,,,,,,,,
f,1.288,0,62,62,26,1,5eb43dc9664e99274faade46,ORROROO,ORROROR,22.02732763,21.71443381,series_0,5eb43dc9664e99274faade46,Kobieta,23,2021-09-06_19h11.44.814,rantool2,2021.1.4,Win32,60.0240096,6135e006383e6ea6c3d06a28,61364b9f698616b39da4ec10,,,,,,,,
f,1.451,0,63,63,55,1,5eb43dc9664e99274faade46,RRORRRO,RRORRRR,21.56657303,21.21223021,series_0,5eb43dc9664e99274faade46,Kobieta,23,2021-09-06_19h11.44.814,rantool2,2021.1.4,Win32,60.0240096,6135e006383e6ea6c3d06a28,61364b9f698616b39da4ec10,,,,,,,,
,,,,,,,5eb43dc9664e99274faade46,,,,,,5eb43dc9664e99274faade46,Kobieta,23,2021-09-06_19h11.44.814,rantool2,2021.1.4,Win32,60.0240096,6135e006383e6ea6c3d06a28,61364b9f698616b39da4ec10,"[""period""]",0,[0.9050000000000011],0,0,0,0,1
,,,,,,,5eb43dc9664e99274faade46,,,,,,5eb43dc9664e99274faade46,Kobieta,23,2021-09-06_19h11.44.814,rantool2,2021.1.4,Win32,60.0240096,6135e006383e6ea6c3d06a28,61364b9f698616b39da4ec10,"[""comma"",""comma""]",0,"[0.30699999999998795,1.3839999999999861]",1,0,1,0,1
,,,,,,,5eb43dc9664e99274faade46,,,,,,5eb43dc9664e99274faade46,Kobieta,23,2021-09-06_19h11.44.814,rantool2,2021.1.4,Win32,60.0240096,6135e006383e6ea6c3d06a28,61364b9f698616b39da4ec10,"[""period""]",0,[0.9900000000000091],2,0,2,0,1
,,,,,,,5eb43dc9664e99274faade46,,,,,,5eb43dc9664e99274faade46,Kobieta,23,2021-09-06_19h11.44.814,rantool2,2021.1.4,Win32,60.0240096,6135e006383e6ea6c3d06a28,61364b9f698616b39da4ec10,"[""comma"",""comma""]",0,"[0.2709999999999866,1.48599999999999]",3,0,3,0,1
,,,,,,,5eb43dc9664e99274faade46,,,,,,5eb43dc9664e99274faade46,Kobieta,23,2021-09-06_19h11.44.814,rantool2,2021.1.4,Win32,60.0240096,6135e006383e6ea6c3d06a28,61364b9f698616b39da4ec10,"[""period"",""period"",""comma"",""period"",""comma"",""period""]",0,"[0.5029999999999859,1.024000000000001,1.117999999999995,1.2520000000000095,1.4019999999999868,1.585000000000008]",4,0,4,0,1
,,,,,,,5eb43dc9664e99274faade46,,,,,,5eb43dc9664e99274faade46,Kobieta,23,2021-09-06_19h11.44.814,rantool2,2021.1.4,Win32,60.0240096,6135e006383e6ea6c3d06a28,61364b9f698616b39da4ec10,"[""comma"",""comma"",""period"",""comma"",""comma"",""comma""]",0,"[0.4029999999999916,0.7860000000000014,0.9029999999999916,1.0349999999999966,1.2369999999999948,1.4339999999999975]",5,0,5,0,1
,,,,,,,5eb43dc9664e99274faade46,,,,,,5eb43dc9664e99274faade46,Kobieta,23,2021-09-06_19h11.44.814,rantool2,2021.1.4,Win32,60.0240096,6135e006383e6ea6c3d06a28,61364b9f698616b39da4ec10,"[""period"",""period""]",0,"[0.9350000000000023,1.1050000000000182]",6,0,6,0,1
,,,,,,,5eb43dc9664e99274faade46,,,,,,5eb43dc9664e99274faade46,Kobieta,23,2021-09-06_19h11.44.814,rantool2,2021.1.4,Win32,60.0240096,6135e006383e6ea6c3d06a28,61364b9f698616b39da4ec10,"[""comma"",""comma"",""comma""]",0,"[0.5859999999999843,0.8569999999999993,1.0360000000000014]",7,0,7,0,1
,,,,,,,5eb43dc9664e99274faade46,,,,,,5eb43dc9664e99274faade46,Kobieta,23,2021-09-06_19h11.44.814,rantool2,2021.1.4,Win32,60.0240096,6135e006383e6ea6c3d06a28,61364b9f698616b39da4ec10,"[""period"",""period"",""period"",""period"",""period""]",0,"[0.28700000000000614,0.48699999999999477,0.6529999999999916,0.8019999999999925,0.9900000000000091]",8,0,8,0,1
,,,,,,,5eb43dc9664e99274faade46,,,,,,5eb43dc9664e99274faade46,Kobieta,23,2021-09-06_19h11.44.814,rantool2,2021.1.4,Win32,60.0240096,6135e006383e6ea6c3d06a28,61364b9f698616b39da4ec10,"[""comma"",""comma"",""comma"",""comma""]",0,"[0.4070000000000107,0.6189999999999998,0.804000000000002,0.9850000000000136]",9,0,9,0,1
,,,,,,,5eb43dc9664e99274faade46,,,,,,5eb43dc9664e99274faade46,Kobieta,23,2021-09-06_19h11.44.814,rantool2,2021.1.4,Win32,60.0240096,6135e006383e6ea6c3d06a28,61364b9f698616b39da4ec10,"[""comma"",""comma"",""comma"",""comma"",""comma""]",0,"[0.3199999999999932,0.5029999999999859,0.7039999999999793,0.8859999999999957,1.0769999999999982]",10,0,10,0,1
,,,,,,,5eb43dc9664e99274faade46,,,,,,5eb43dc9664e99274faade46,Kobieta,23,2021-09-06_19h11.44.814,rantool2,2021.1.4,Win32,60.0240096,6135e006383e6ea6c3d06a28,61364b9f698616b39da4ec10,"[""period"",""period"",""period"",""period"",""period""]",0,"[0.28600000000000136,0.507000000000005,0.6850000000000023,0.8429999999999893,1.0019999999999811]",11,0,11,0,1
,,,,,,,5eb43dc9664e99274faade46,,,,,,5eb43dc9664e99274faade46,Kobieta,23,2021-09-06_19h11.44.814,rantool2,2021.1.4,Win32,60.0240096,6135e006383e6ea6c3d06a28,61364b9f698616b39da4ec10,"[""period"",""period"",""period"",""period"",""period""]",0,"[0.38700000000000045,0.5870000000000175,0.7860000000000014,0.9509999999999934,1.125]",12,0,12,0,1
,,,,,,,5eb43dc9664e99274faade46,,,,,,5eb43dc9664e99274faade46,Kobieta,23,2021-09-06_19h11.44.814,rantool2,2021.1.4,Win32,60.0240096,6135e006383e6ea6c3d06a28,61364b9f698616b39da4ec10,"[""comma"",""comma"",""comma"",""comma"",""comma""]",0,"[0.5730000000000075,0.867999999999995,1.0409999999999968,1.2180000000000177,1.457000000000022]",13,0,13,0,1
,,,,,,,5eb43dc9664e99274faade46,,,,,,5eb43dc9664e99274faade46,Kobieta,23,2021-09-06_19h11.44.814,rantool2,2021.1.4,Win32,60.0240096,6135e006383e6ea6c3d06a28,61364b9f698616b39da4ec10,"[""period"",""period"",""period"",""period"",""period"",""period""]",0,"[0.4849999999999852,0.6859999999999786,0.8359999999999843,0.9849999999999852,1.1379999999999768,1.3049999999999784]",14,0,14,0,1
,,,,,,,5eb43dc9664e99274faade46,,,,,,5eb43dc9664e99274faade46,Kobieta,23,2021-09-06_19h11.44.814,rantool2,2021.1.4,Win32,60.0240096,6135e006383e6ea6c3d06a28,61364b9f698616b39da4ec10,"[""comma"",""comma"",""comma"",""comma"",""comma""]",0,"[0.2529999999999859,0.4509999999999934,0.625,0.8059999999999832,0.9890000000000043]",15,0,15,0,1
,,,,,,,5eb43dc9664e99274faade46,,,,,,5eb43dc9664e99274faade46,Kobieta,23,2021-09-06_19h11.44.814,rantool2,2021.1.4,Win32,60.0240096,6135e006383e6ea6c3d06a28,61364b9f698616b39da4ec10,"[""comma"",""comma"",""comma"",""comma""]",0,"[0.4519999999999982,0.6510000000000105,0.818000000000012,0.9699999999999989]",16,0,16,0,1
,,,,,,,5eb43dc9664e99274faade46,,,,,,5eb43dc9664e99274faade46,Kobieta,23,2021-09-06_19h11.44.814,rantool2,2021.1.4,Win32,60.0240096,6135e006383e6ea6c3d06a28,61364b9f698616b39da4ec10,"[""comma"",""comma"",""comma"",""comma"",""comma""]",0,"[0.33600000000001273,0.5200000000000102,0.6870000000000118,0.8220000000000027,0.974000000000018]",17,0,17,0,1
,,,,,,,5eb43dc9664e99274faade46,,,,,,5eb43dc9664e99274faade46,Kobieta,23,2021-09-06_19h11.44.814,rantool2,2021.1.4,Win32,60.0240096,6135e006383e6ea6c3d06a28,61364b9f698616b39da4ec10,"[""period"",""period"",""period"",""period"",""period"",""period""]",0,"[0.21800000000001774,0.37300000000001887,0.5360000000000014,0.6890000000000214,0.8500000000000227,1.0020000000000095]",18,0,18,0,1
,,,,,,,5eb43dc9664e99274faade46,,,,,,5eb43dc9664e99274faade46,Kobieta,23,2021-09-06_19h11.44.814,rantool2,2021.1.4,Win32,60.0240096,6135e006383e6ea6c3d06a28,61364b9f698616b39da4ec10,"[""comma"",""comma"",""comma"",""comma"",""comma""]",0,"[0.23799999999999955,0.41900000000001114,0.6030000000000086,0.8009999999999877,0.9749999999999943]",19,0,19,0,1
,,,,,,,5eb43dc9664e99274faade46,,,,,,5eb43dc9664e99274faade46,Kobieta,23,2021-09-06_19h11.44.814,rantool2,2021.1.4,Win32,60.0240096,6135e006383e6ea6c3d06a28,61364b9f698616b39da4ec10,"[""period"",""period"",""period"",""period"",""period"",""period""]",0,"[0.40300000000002,0.6030000000000086,0.7690000000000055,0.936000000000007,1.0870000000000175,1.2520000000000095]",20,0,20,0,1
,,,,,,,5eb43dc9664e99274faade46,,,,,,5eb43dc9664e99274faade46,Kobieta,23,2021-09-06_19h11.44.814,rantool2,2021.1.4,Win32,60.0240096,6135e006383e6ea6c3d06a28,61364b9f698616b39da4ec10,"[""comma"",""comma"",""comma"",""comma"",""comma"",""comma"",""comma"",""comma""]",0,"[0.4099999999999966,0.6229999999999905,0.8220000000000027,1.018999999999977,1.203000000000003,1.370999999999981,1.5519999999999925,1.6879999999999882]",21,0,21,0,1
,,,,,,,5eb43dc9664e99274faade46,,,,,,5eb43dc9664e99274faade46,Kobieta,23,2021-09-06_19h11.44.814,rantool2,2021.1.4,Win32,60.0240096,6135e006383e6ea6c3d06a28,61364b9f698616b39da4ec10,"[""comma"",""comma"",""comma"",""comma"",""comma""]",0,"[0.9689999999999941,1.1529999999999916,1.335000000000008,1.5089999999999861,1.6680000000000064]",22,0,22,0,1
,,,,,,,5eb43dc9664e99274faade46,,,,,,5eb43dc9664e99274faade46,Kobieta,23,2021-09-06_19h11.44.814,rantool2,2021.1.4,Win32,60.0240096,6135e006383e6ea6c3d06a28,61364b9f698616b39da4ec10,"[""comma"",""comma"",""comma"",""comma""]",0,"[0.9689999999999941,1.1380000000000052,1.320999999999998,1.5010000000000048]",23,0,23,0,1
,,,,,,,5eb43dc9664e99274faade46,,,,,,5eb43dc9664e99274faade46,Kobieta,23,2021-09-06_19h11.44.814,rantool2,2021.1.4,Win32,60.0240096,6135e006383e6ea6c3d06a28,61364b9f698616b39da4ec10,"[""comma"",""comma"",""comma"",""comma"",""comma""]",0,"[0.4350000000000023,0.6020000000000039,0.7849999999999966,0.9380000000000166,1.1020000000000039]",24,0,24,0,1
,,,,,,,5eb43dc9664e99274faade46,,,,,,5eb43dc9664e99274faade46,Kobieta,23,2021-09-06_19h11.44.814,rantool2,2021.1.4,Win32,60.0240096,6135e006383e6ea6c3d06a28,61364b9f698616b39da4ec10,"[""period"",""period"",""period"",""period"",""period"",""period""]",0,"[0.25499999999999545,0.42399999999997817,0.6009999999999991,0.7560000000000002,0.9189999999999827,1.0720000000000027]",25,0,25,0,1
,,,,,,,5eb43dc9664e99274faade46,,,,,,5eb43dc9664e99274faade46,Kobieta,23,2021-09-06_19h11.44.814,rantool2,2021.1.4,Win32,60.0240096,6135e006383e6ea6c3d06a28,61364b9f698616b39da4ec10,"[""period"",""period"",""period"",""period"",""period"",""period""]",0,"[0.35300000000000864,0.5589999999999975,0.7220000000000084,0.8739999999999952,1.0370000000000061,1.1740000000000066]",26,0,26,0,1
,,,,,,,5eb43dc9664e99274faade46,,,,,,5eb43dc9664e99274faade46,Kobieta,23,2021-09-06_19h11.44.814,rantool2,2021.1.4,Win32,60.0240096,6135e006383e6ea6c3d06a28,61364b9f698616b39da4ec10,"[""comma"",""comma"",""comma"",""comma"",""comma"",""comma""]",0,"[0.2530000000000143,0.4380000000000166,0.6200000000000045,0.7700000000000102,1.007000000000005,1.2410000000000139]",27,0,27,0,1
,,,,,,,5eb43dc9664e99274faade46,,,,,,5eb43dc9664e99274faade46,Kobieta,23,2021-09-06_19h11.44.814,rantool2,2021.1.4,Win32,60.0240096,6135e006383e6ea6c3d06a28,61364b9f698616b39da4ec10,"[""comma"",""comma"",""comma"",""comma"",""comma""]",0,"[0.3020000000000209,0.48500000000001364,0.6680000000000064,0.8550000000000182,1.035000000000025]",28,0,28,0,1
,,,,,,,5eb43dc9664e99274faade46,,,,,,5eb43dc9664e99274faade46,Kobieta,23,2021-09-06_19h11.44.814,rantool2,2021.1.4,Win32,60.0240096,6135e006383e6ea6c3d06a28,61364b9f698616b39da4ec10,"[""period"",""period"",""period"",""period"",""period"",""period""]",0,"[0.26899999999997704,0.4350000000000023,0.6029999999999802,0.7699999999999818,0.9350000000000023,1.0840000000000032]",29,0,29,0,1
,,,,,,,5eb43dc9664e99274faade46,,,,,,5eb43dc9664e99274faade46,Kobieta,23,2021-09-06_19h11.44.814,rantool2,2021.1.4,Win32,60.0240096,6135e006383e6ea6c3d06a28,61364b9f698616b39da4ec10,"[""comma"",""comma"",""comma"",""comma"",""comma"",""comma""]",0,"[0.22100000000000364,0.41900000000001114,0.617999999999995,0.8340000000000032,1.0230000000000246,1.2180000000000177]",30,0,30,0,1
,,,,,,,5eb43dc9664e99274faade46,,,,,,5eb43dc9664e99274faade46,Kobieta,23,2021-09-06_19h11.44.814,rantool2,2021.1.4,Win32,60.0240096,6135e006383e6ea6c3d06a28,61364b9f698616b39da4ec10,"[""period"",""period"",""period"",""period"",""period"",""period""]",0,"[0.28600000000000136,0.47200000000003683,0.6419999999999959,0.8020000000000209,0.9560000000000173,1.1190000000000282]",31,0,31,0,1
,,,,,,,5eb43dc9664e99274faade46,,,,,,5eb43dc9664e99274faade46,Kobieta,23,2021-09-06_19h11.44.814,rantool2,2021.1.4,Win32,60.0240096,6135e006383e6ea6c3d06a28,61364b9f698616b39da4ec10,"[""period"",""period"",""period"",""period"",""period""]",0,"[0.23500000000001364,0.4189999999999827,0.5869999999999891,0.7509999999999764,0.8879999999999768]",32,0,32,0,1
,,,,,,,5eb43dc9664e99274faade46,,,,,,5eb43dc9664e99274faade46,Kobieta,23,2021-09-06_19h11.44.814,rantool2,2021.1.4,Win32,60.0240096,6135e006383e6ea6c3d06a28,61364b9f698616b39da4ec10,"[""comma"",""comma"",""comma"",""comma"",""comma""]",0,"[0.2400000000000091,0.4689999999999941,0.6519999999999868,0.8349999999999795,0.9909999999999854]",33,0,33,0,1
,,,,,,,5eb43dc9664e99274faade46,,,,,,5eb43dc9664e99274faade46,Kobieta,23,2021-09-06_19h11.44.814,rantool2,2021.1.4,Win32,60.0240096,6135e006383e6ea6c3d06a28,61364b9f698616b39da4ec10,"[""period"",""period"",""period"",""period"",""period"",""period""]",0,"[0.2689999999999486,0.4339999999999691,0.5919999999999845,0.7399999999999523,0.8879999999999768,1.0359999999999445]",34,0,34,0,1
,,,,,,,5eb43dc9664e99274faade46,,,,,,5eb43dc9664e99274faade46,Kobieta,23,2021-09-06_19h11.44.814,rantool2,2021.1.4,Win32,60.0240096,6135e006383e6ea6c3d06a28,61364b9f698616b39da4ec10,"[""period"",""period"",""period"",""period"",""period""]",0,"[0.26900000000000546,0.4700000000000273,0.6200000000000045,0.771000000000015,0.9230000000000018]",35,0,35,0,1
,,,,,,,5eb43dc9664e99274faade46,,,,,,5eb43dc9664e99274faade46,Kobieta,23,2021-09-06_19h11.44.814,rantool2,2021.1.4,Win32,60.0240096,6135e006383e6ea6c3d06a28,61364b9f698616b39da4ec10,"[""period"",""period"",""period"",""period"",""period""]",0,"[0.25200000000000955,0.4339999999999691,0.6030000000000086,0.7529999999999859,0.9230000000000018]",36,0,36,0,1
,,,,,,,5eb43dc9664e99274faade46,,,,,,5eb43dc9664e99274faade46,Kobieta,23,2021-09-06_19h11.44.814,rantool2,2021.1.4,Win32,60.0240096,6135e006383e6ea6c3d06a28,61364b9f698616b39da4ec10,"[""comma"",""comma"",""comma"",""comma"",""comma""]",0,"[0.06900000000001683,0.3210000000000264,0.5230000000000246,0.7180000000000177,0.9020000000000437]",37,0,37,0,1
,,,,,,,5eb43dc9664e99274faade46,,,,,,5eb43dc9664e99274faade46,Kobieta,23,2021-09-06_19h11.44.814,rantool2,2021.1.4,Win32,60.0240096,6135e006383e6ea6c3d06a28,61364b9f698616b39da4ec10,"[""comma"",""comma"",""comma"",""comma""]",0,"[0.28499999999996817,0.48999999999995225,0.6859999999999786,0.8849999999999909]",38,0,38,0,1
,,,,,,,5eb43dc9664e99274faade46,,,,,,5eb43dc9664e99274faade46,Kobieta,23,2021-09-06_19h11.44.814,rantool2,2021.1.4,Win32,60.0240096,6135e006383e6ea6c3d06a28,61364b9f698616b39da4ec10,"[""comma"",""comma"",""comma"",""comma"",""comma""]",0,"[0.23799999999999955,0.46699999999998454,0.6689999999999827,0.8689999999999714,1.0349999999999682]",39,0,39,0,1
,,,,,,,5eb43dc9664e99274faade46,,,,,,5eb43dc9664e99274faade46,Kobieta,23,2021-09-06_19h11.44.814,rantool2,2021.1.4,Win32,60.0240096,6135e006383e6ea6c3d06a28,61364b9f698616b39da4ec10,"[""period"",""period"",""period"",""period"",""comma""]",0,"[0.23500000000001364,0.41200000000003456,0.5680000000000405,0.7180000000000177,1.8830000000000382]",40,0,40,0,1
,,,,,,,5eb43dc9664e99274faade46,,,,,,5eb43dc9664e99274faade46,Kobieta,23,2021-09-06_19h11.44.814,rantool2,2021.1.4,Win32,60.0240096,6135e006383e6ea6c3d06a28,61364b9f698616b39da4ec10,"[""comma"",""comma"",""comma"",""comma"",""comma""]",0,"[0.20300000000003138,0.37700000000000955,0.5570000000000164,0.7189999999999941,0.90300000000002]",41,0,41,0,1
,,,,,,,5eb43dc9664e99274faade46,,,,,,5eb43dc9664e99274faade46,Kobieta,23,2021-09-06_19h11.44.814,rantool2,2021.1.4,Win32,60.0240096,6135e006383e6ea6c3d06a28,61364b9f698616b39da4ec10,"[""comma"",""comma"",""comma"",""comma"",""comma""]",0,"[0.28600000000000136,0.4689999999999941,0.7520000000000095,0.9529999999999745,1.117999999999995]",42,0,42,0,1
,,,,,,,5eb43dc9664e99274faade46,,,,,,5eb43dc9664e99274faade46,Kobieta,23,2021-09-06_19h11.44.814,rantool2,2021.1.4,Win32,60.0240096,6135e006383e6ea6c3d06a28,61364b9f698616b39da4ec10,"[""period"",""period"",""period"",""period"",""period""]",0,"[0.36899999999997135,0.5360000000000014,0.70799999999997,0.8700000000000045,1.0349999999999682]",43,0,43,0,1
,,,,,,,5eb43dc9664e99274faade46,,,,,,5eb43dc9664e99274faade46,Kobieta,23,2021-09-06_19h11.44.814,rantool2,2021.1.4,Win32,60.0240096,6135e006383e6ea6c3d06a28,61364b9f698616b39da4ec10,"[""comma"",""comma"",""comma"",""comma"",""comma""]",0,"[0.2370000000000232,0.4019999999999868,0.589999999999975,0.7520000000000095,0.9189999999999827]",44,0,44,0,1
,,,,,,,5eb43dc9664e99274faade46,,,,,,5eb43dc9664e99274faade46,Kobieta,23,2021-09-06_19h11.44.814,rantool2,2021.1.4,Win32,60.0240096,6135e006383e6ea6c3d06a28,61364b9f698616b39da4ec10,"[""period"",""period"",""period"",""period"",""period""]",0,"[0.32499999999998863,0.5179999999999723,0.700999999999965,0.8519999999999754,1.0179999999999723]",45,0,45,0,1
,,,,,,,5eb43dc9664e99274faade46,,,,,,5eb43dc9664e99274faade46,Kobieta,23,2021-09-06_19h11.44.814,rantool2,2021.1.4,Win32,60.0240096,6135e006383e6ea6c3d06a28,61364b9f698616b39da4ec10,"[""comma"",""comma"",""comma"",""comma"",""comma""]",0,"[0.19099999999997408,0.3739999999999668,0.5369999999999777,0.7029999999999745,0.8700000000000045]",46,0,46,0,1
,,,,,,,5eb43dc9664e99274faade46,,,,,,5eb43dc9664e99274faade46,Kobieta,23,2021-09-06_19h11.44.814,rantool2,2021.1.4,Win32,60.0240096,6135e006383e6ea6c3d06a28,61364b9f698616b39da4ec10,"[""comma"",""comma"",""comma"",""comma"",""comma""]",0,"[0.3190000000000168,0.48500000000001364,0.6709999999999923,0.9870000000000232,1.1850000000000023]",47,0,47,0,1
,,,,,,,5eb43dc9664e99274faade46,,,,,,5eb43dc9664e99274faade46,Kobieta,23,2021-09-06_19h11.44.814,rantool2,2021.1.4,Win32,60.0240096,6135e006383e6ea6c3d06a28,61364b9f698616b39da4ec10,"[""period"",""period"",""period"",""period"",""period"",""period""]",0,"[0.2529999999999859,0.4179999999999495,0.5879999999999654,0.7559999999999718,0.9199999999999591,1.0889999999999986]",48,0,48,0,1
,,,,,,,5eb43dc9664e99274faade46,,,,,,5eb43dc9664e99274faade46,Kobieta,23,2021-09-06_19h11.44.814,rantool2,2021.1.4,Win32,60.0240096,6135e006383e6ea6c3d06a28,61364b9f698616b39da4ec10,"[""comma"",""comma"",""comma"",""comma"",""comma"",""comma""]",0,"[0.28799999999995407,0.4749999999999659,0.6419999999999959,0.825999999999965,1.0039999999999623,1.1689999999999827]",49,0,49,0,1
,,,,,,,5eb43dc9664e99274faade46,,,,,,5eb43dc9664e99274faade46,Kobieta,23,2021-09-06_19h11.44.814,rantool2,2021.1.4,Win32,60.0240096,6135e006383e6ea6c3d06a28,61364b9f698616b39da4ec10,"[""comma"",""comma"",""comma"",""comma"",""comma"",""comma""]",0,"[0.3039999999999736,0.47800000000000864,0.6689999999999827,0.9379999999999882,1.1359999999999673,1.274000000000001]",50,0,50,0,1
,,,,,,,5eb43dc9664e99274faade46,,,,,,5eb43dc9664e99274faade46,Kobieta,23,2021-09-06_19h11.44.814,rantool2,2021.1.4,Win32,60.0240096,6135e006383e6ea6c3d06a28,61364b9f698616b39da4ec10,"[""comma"",""comma"",""comma"",""comma"",""comma"",""comma""]",0,"[0.28600000000000136,0.48500000000001364,0.65300000000002,0.8190000000000168,0.9340000000000259,1.1190000000000282]",51,0,51,0,1
,,,,,,,5eb43dc9664e99274faade46,,,,,,5eb43dc9664e99274faade46,Kobieta,23,2021-09-06_19h11.44.814,rantool2,2021.1.4,Win32,60.0240096,6135e006383e6ea6c3d06a28,61364b9f698616b39da4ec10,"[""comma"",""comma"",""comma"",""comma"",""comma""]",0,"[0.2680000000000291,0.4519999999999982,0.6220000000000141,0.8020000000000209,0.9669999999999845]",52,0,52,0,1
,,,,,,,5eb43dc9664e99274faade46,,,,,,5eb43dc9664e99274faade46,Kobieta,23,2021-09-06_19h11.44.814,rantool2,2021.1.4,Win32,60.0240096,6135e006383e6ea6c3d06a28,61364b9f698616b39da4ec10,"[""period"",""period"",""period"",""period"",""period""]",0,"[0.22200000000003683,0.3930000000000291,0.5749999999999886,0.7520000000000095,0.9360000000000355]",53,0,53,0,1
,,,,,,,5eb43dc9664e99274faade46,,,,,,5eb43dc9664e99274faade46,Kobieta,23,2021-09-06_19h11.44.814,rantool2,2021.1.4,Win32,60.0240096,6135e006383e6ea6c3d06a28,61364b9f698616b39da4ec10,"[""period"",""period"",""period"",""period"",""period""]",0,"[0.3020000000000209,0.48500000000001364,0.6700000000000159,0.8360000000000127,0.9860000000000468]",54,0,54,0,1
,,,,,,,5eb43dc9664e99274faade46,,,,,,5eb43dc9664e99274faade46,Kobieta,23,2021-09-06_19h11.44.814,rantool2,2021.1.4,Win32,60.0240096,6135e006383e6ea6c3d06a28,61364b9f698616b39da4ec10,"[""comma"",""comma"",""comma"",""comma"",""comma""]",0,"[0.21999999999997044,0.4189999999999827,0.6019999999999754,0.785000000000025,0.9169999999999732]",55,0,55,0,1
,,,,,,,5eb43dc9664e99274faade46,,,,,,5eb43dc9664e99274faade46,Kobieta,23,2021-09-06_19h11.44.814,rantool2,2021.1.4,Win32,60.0240096,6135e006383e6ea6c3d06a28,61364b9f698616b39da4ec10,"[""period"",""period"",""period"",""period"",""period""]",0,"[0.48900000000003274,0.6850000000000023,0.8520000000000323,1.002999999999986,1.1510000000000105]",56,0,56,0,1
,,,,,,,5eb43dc9664e99274faade46,,,,,,5eb43dc9664e99274faade46,Kobieta,23,2021-09-06_19h11.44.814,rantool2,2021.1.4,Win32,60.0240096,6135e006383e6ea6c3d06a28,61364b9f698616b39da4ec10,"[""comma"",""comma"",""comma"",""comma"",""comma"",""comma"",""comma""]",0,"[0.06999999999999318,0.29200000000003,0.4700000000000273,0.6349999999999909,0.8020000000000209,0.9230000000000018,1.1020000000000323]",57,0,57,0,1
,,,,,,,5eb43dc9664e99274faade46,,,,,,5eb43dc9664e99274faade46,Kobieta,23,2021-09-06_19h11.44.814,rantool2,2021.1.4,Win32,60.0240096,6135e006383e6ea6c3d06a28,61364b9f698616b39da4ec10,"[""period"",""period"",""period"",""period"",""period"",""period""]",0,"[0.30299999999999727,0.5030000000000427,0.6850000000000023,0.8530000000000086,1.0050000000000523,1.15300000000002]",58,0,58,0,1
,,,,,,,5eb43dc9664e99274faade46,,,,,,5eb43dc9664e99274faade46,Kobieta,23,2021-09-06_19h11.44.814,rantool2,2021.1.4,Win32,60.0240096,6135e006383e6ea6c3d06a28,61364b9f698616b39da4ec10,"[""comma"",""comma"",""comma"",""comma"",""comma"",""comma""]",0,"[0.2529999999999859,0.4359999999999786,0.6070000000000277,0.7590000000000146,0.9529999999999745,1.1070000000000277]",59,0,59,0,1
,,,,,,,5eb43dc9664e99274faade46,,,,,,5eb43dc9664e99274faade46,Kobieta,23,2021-09-06_19h11.44.814,rantool2,2021.1.4,Win32,60.0240096,6135e006383e6ea6c3d06a28,61364b9f698616b39da4ec10,"[""comma"",""comma"",""comma"",""comma"",""comma""]",0,"[0.27199999999999136,0.4700000000000273,0.6550000000000296,0.8029999999999973,0.9549999999999841]",60,0,60,0,1
,,,,,,,5eb43dc9664e99274faade46,,,,,,5eb43dc9664e99274faade46,Kobieta,23,2021-09-06_19h11.44.814,rantool2,2021.1.4,Win32,60.0240096,6135e006383e6ea6c3d06a28,61364b9f698616b39da4ec10,"[""comma"",""comma"",""comma"",""comma""]",0,"[0.33499999999997954,0.5389999999999873,0.6889999999999645,1.0009999999999764]",61,0,61,0,1
,,,,,,,5eb43dc9664e99274faade46,,,,,,5eb43dc9664e99274faade46,Kobieta,23,2021-09-06_19h11.44.814,rantool2,2021.1.4,Win32,60.0240096,6135e006383e6ea6c3d06a28,61364b9f698616b39da4ec10,"[""period"",""period"",""period"",""period""]",0,"[0.053999999999973625,0.2909999999999968,0.617999999999995,0.9989999999999668]",62,0,62,0,1
,,,,,,,5eb43dc9664e99274faade46,,,,,,5eb43dc9664e99274faade46,Kobieta,23,2021-09-06_19h11.44.814,rantool2,2021.1.4,Win32,60.0240096,6135e006383e6ea6c3d06a28,61364b9f698616b39da4ec10,"[""comma"",""comma"",""comma"",""comma"",""comma"",""comma"",""comma"",""comma""]",0,"[-0.007999999999981355,0.17400000000003502,0.37000000000000455,0.5529999999999973,0.7019999999999982,0.9019999999999868,1.0860000000000127,1.9519999999999982]",63,0,63,0,1
,,,,,,,5eb43dc9664e99274faade46,,,,,,5eb43dc9664e99274faade46,Kobieta,23,2021-09-06_19h11.44.814,rantool2,2021.1.4,Win32,60.0240096,6135e006383e6ea6c3d06a28,61364b9f698616b39da4ec10,"[""comma"",""comma"",""comma"",""comma"",""comma"",""comma""]",0,"[0.2680000000000291,0.41800000000000637,0.5670000000000073,0.7350000000000136,0.9010000000000105,1.1550000000000296]",64,0,64,0,1
,,,,,,,5eb43dc9664e99274faade46,,,,,,5eb43dc9664e99274faade46,Kobieta,23,2021-09-06_19h11.44.814,rantool2,2021.1.4,Win32,60.0240096,6135e006383e6ea6c3d06a28,61364b9f698616b39da4ec10,"[""comma"",""comma"",""comma"",""comma"",""comma""]",0,"[0.23399999999998045,0.41699999999997317,0.5840000000000032,0.757000000000005,0.9049999999999727]",65,0,65,0,1
,,,,,,,5eb43dc9664e99274faade46,,,,,,5eb43dc9664e99274faade46,Kobieta,23,2021-09-06_19h11.44.814,rantool2,2021.1.4,Win32,60.0240096,6135e006383e6ea6c3d06a28,61364b9f698616b39da4ec10,"[""period"",""period"",""period"",""period"",""period""]",0,"[0.2720000000000482,0.4840000000000373,0.6570000000000391,0.8240000000000123,1.0010000000000332]",66,0,66,0,1
,,,,,,,5eb43dc9664e99274faade46,,,,,,5eb43dc9664e99274faade46,Kobieta,23,2021-09-06_19h11.44.814,rantool2,2021.1.4,Win32,60.0240096,6135e006383e6ea6c3d06a28,61364b9f698616b39da4ec10,"[""period"",""period"",""period"",""period""]",0,"[0.3019999999999641,0.4849999999999568,0.6689999999999827,0.8349999999999795]",67,0,67,0,1
,,,,,,,5eb43dc9664e99274faade46,,,,,,5eb43dc9664e99274faade46,Kobieta,23,2021-09-06_19h11.44.814,rantool2,2021.1.4,Win32,60.0240096,6135e006383e6ea6c3d06a28,61364b9f698616b39da4ec10,"[""comma"",""comma"",""comma"",""comma""]",0,"[0.21800000000001774,0.40100000000001046,0.5690000000000168,0.7220000000000368]",68,0,68,0,1
,,,,,,,5eb43dc9664e99274faade46,,,,,,5eb43dc9664e99274faade46,Kobieta,23,2021-09-06_19h11.44.814,rantool2,2021.1.4,Win32,60.0240096,6135e006383e6ea6c3d06a28,61364b9f698616b39da4ec10,"[""comma"",""comma"",""comma"",""comma""]",0,"[0.2909999999999968,0.4549999999999841,0.6360000000000241,0.785000000000025]",69,0,69,0,1
,,,,,,,5eb43dc9664e99274faade46,,,,,,5eb43dc9664e99274faade46,Kobieta,23,2021-09-06_19h11.44.814,rantool2,2021.1.4,Win32,60.0240096,6135e006383e6ea6c3d06a28,61364b9f698616b39da4ec10,"[""period"",""period"",""period"",""period"",""period"",""period""]",0,"[0.25499999999999545,0.4259999999999877,0.603999999999985,0.7849999999999682,0.9519999999999982,1.1589999999999918]",70,0,70,0,1
,,,,,,,5eb43dc9664e99274faade46,,,,,,5eb43dc9664e99274faade46,Kobieta,23,2021-09-06_19h11.44.814,rantool2,2021.1.4,Win32,60.0240096,6135e006383e6ea6c3d06a28,61364b9f698616b39da4ec10,"[""comma"",""comma"",""comma"",""comma"",""comma"",""comma""]",0,"[0.37000000000000455,0.5369999999999777,0.72199999999998,0.9019999999999868,1.0739999999999554,1.2409999999999854]",71,0,71,0,1
,,,,,,,5eb43dc9664e99274faade46,,,,,,5eb43dc9664e99274faade46,Kobieta,23,2021-09-06_19h11.44.814,rantool2,2021.1.4,Win32,60.0240096,6135e006383e6ea6c3d06a28,61364b9f698616b39da4ec10,"[""period"",""period"",""period"",""period"",""period"",""period""]",0,"[0.2869999999999777,0.5029999999999859,0.7029999999999745,0.8859999999999673,1.0529999999999973,1.2090000000000032]",72,0,72,0,1
,,,,,,,5eb43dc9664e99274faade46,,,,,,5eb43dc9664e99274faade46,Kobieta,23,2021-09-06_19h11.44.814,rantool2,2021.1.4,Win32,60.0240096,6135e006383e6ea6c3d06a28,61364b9f698616b39da4ec10,"[""comma"",""comma"",""comma"",""comma"",""comma"",""comma"",""comma""]",0,"[0.26900000000000546,0.48600000000004684,0.65300000000002,0.8180000000000405,1.0020000000000095,1.1750000000000114,1.3350000000000364]",73,0,73,0,1
,,,,,,,5eb43dc9664e99274faade46,,,,,,5eb43dc9664e99274faade46,Kobieta,23,2021-09-06_19h11.44.814,rantool2,2021.1.4,Win32,60.0240096,6135e006383e6ea6c3d06a28,61364b9f698616b39da4ec10,"[""comma"",""comma"",""comma"",""comma"",""comma"",""comma""]",0,"[0.3340000000000032,0.5180000000000291,0.7060000000000173,0.8670000000000186,1.038000000000011,1.2169999999999845]",74,0,74,0,1
,,,,,,,5eb43dc9664e99274faade46,,,,,,5eb43dc9664e99274faade46,Kobieta,23,2021-09-06_19h11.44.814,rantool2,2021.1.4,Win32,60.0240096,6135e006383e6ea6c3d06a28,61364b9f698616b39da4ec10,"[""period"",""period"",""period"",""period"",""period"",""period""]",0,"[0.353999999999985,0.5369999999999777,0.73599999999999,0.9189999999999827,1.0849999999999795,1.2679999999999723]",75,0,75,0,1
,,,,,,,5eb43dc9664e99274faade46,,,,,,5eb43dc9664e99274faade46,Kobieta,23,2021-09-06_19h11.44.814,rantool2,2021.1.4,Win32,60.0240096,6135e006383e6ea6c3d06a28,61364b9f698616b39da4ec10,"[""period"",""period"",""period"",""period"",""period""]",0,"[0.40900000000004866,0.5860000000000127,0.7680000000000291,0.9250000000000114,1.0740000000000123]",76,0,76,0,1
,,,,,,,5eb43dc9664e99274faade46,,,,,,5eb43dc9664e99274faade46,Kobieta,23,2021-09-06_19h11.44.814,rantool2,2021.1.4,Win32,60.0240096,6135e006383e6ea6c3d06a28,61364b9f698616b39da4ec10,"[""comma"",""comma"",""comma"",""comma"",""comma""]",0,"[0.2839999999999918,0.4689999999999941,0.6730000000000018,0.8419999999999845,0.9850000000000136]",77,0,77,0,1
,,,,,,,5eb43dc9664e99274faade46,,,,,,5eb43dc9664e99274faade46,Kobieta,23,2021-09-06_19h11.44.814,rantool2,2021.1.4,Win32,60.0240096,6135e006383e6ea6c3d06a28,61364b9f698616b39da4ec10,"[""comma"",""comma"",""comma"",""comma"",""comma"",""period""]",0,"[0.2540000000000191,0.4420000000000073,0.6510000000000105,0.8520000000000323,1.0020000000000095,1.8340000000000032]",78,0,78,0,1
,,,,,,,5eb43dc9664e99274faade46,,,,,,5eb43dc9664e99274faade46,Kobieta,23,2021-09-06_19h11.44.814,rantool2,2021.1.4,Win32,60.0240096,6135e006383e6ea6c3d06a28,61364b9f698616b39da4ec10,"[""period"",""period"",""period"",""period"",""period"",""period""]",0,"[0.05500000000000682,0.28600000000000136,0.45400000000000773,0.6190000000000282,0.7900000000000205,0.9689999999999941]",79,0,79,0,1
,,,,,,,5eb43dc9664e99274faade46,,,,,,5eb43dc9664e99274faade46,Kobieta,23,2021-09-06_19h11.44.814,rantool2,2021.1.4,Win32,60.0240096,6135e006383e6ea6c3d06a28,61364b9f698616b39da4ec10,"[""comma"",""comma"",""comma"",""comma"",""comma""]",0,"[0.2400000000000091,0.4399999999999977,0.6379999999999768,0.8340000000000032,1.0020000000000095]",80,0,80,0,1
,,,,,,,5eb43dc9664e99274faade46,,,,,,5eb43dc9664e99274faade46,Kobieta,23,2021-09-06_19h11.44.814,rantool2,2021.1.4,Win32,60.0240096,6135e006383e6ea6c3d06a28,61364b9f698616b39da4ec10,"[""comma"",""comma"",""comma"",""comma"",""comma"",""comma""]",0,"[0.285000000000025,0.4889999999999759,0.6689999999999827,0.839999999999975,0.9580000000000268,1.134999999999991]",81,0,81,0,1
,,,,,,,5eb43dc9664e99274faade46,,,,,,5eb43dc9664e99274faade46,Kobieta,23,2021-09-06_19h11.44.814,rantool2,2021.1.4,Win32,60.0240096,6135e006383e6ea6c3d06a28,61364b9f698616b39da4ec10,"[""period"",""period"",""period"",""period""]",0,"[0.5529999999999973,0.7200000000000273,0.867999999999995,1.016999999999996]",82,0,82,0,1
,,,,,,,5eb43dc9664e99274faade46,,,,,,5eb43dc9664e99274faade46,Kobieta,23,2021-09-06_19h11.44.814,rantool2,2021.1.4,Win32,60.0240096,6135e006383e6ea6c3d06a28,61364b9f698616b39da4ec10,"[""period"",""period"",""period"",""period"",""period""]",0,"[0.28700000000003456,0.4730000000000132,0.6560000000000059,0.8360000000000127,1.0190000000000055]",83,0,83,0,1
,,,,,,,5eb43dc9664e99274faade46,,,,,,5eb43dc9664e99274faade46,Kobieta,23,2021-09-06_19h11.44.814,rantool2,2021.1.4,Win32,60.0240096,6135e006383e6ea6c3d06a28,61364b9f698616b39da4ec10,"[""period"",""period"",""period"",""period"",""period""]",0,"[0.25200000000000955,0.4049999999999727,0.6030000000000086,0.785000000000025,0.9850000000000136]",84,0,84,0,1
,,,,,,,5eb43dc9664e99274faade46,,,,,,5eb43dc9664e99274faade46,Kobieta,23,2021-09-06_19h11.44.814,rantool2,2021.1.4,Win32,60.0240096,6135e006383e6ea6c3d06a28,61364b9f698616b39da4ec10,"[""period"",""period"",""period"",""period"",""period""]",0,"[0.2869999999999777,0.45999999999997954,0.6080000000000041,0.7699999999999818,1.1019999999999754]",85,0,85,0,1
,,,,,,,5eb43dc9664e99274faade46,,,,,,5eb43dc9664e99274faade46,Kobieta,23,2021-09-06_19h11.44.814,rantool2,2021.1.4,Win32,60.0240096,6135e006383e6ea6c3d06a28,61364b9f698616b39da4ec10,"[""comma"",""comma"",""comma"",""comma"",""comma""]",0,"[0.18800000000004502,0.3720000000000141,0.5550000000000068,0.7239999999999895,0.9020000000000437]",86,0,86,0,1
,,,,,,,5eb43dc9664e99274faade46,,,,,,5eb43dc9664e99274faade46,Kobieta,23,2021-09-06_19h11.44.814,rantool2,2021.1.4,Win32,60.0240096,6135e006383e6ea6c3d06a28,61364b9f698616b39da4ec10,"[""comma"",""comma"",""comma"",""comma"",""comma""]",0,"[0.2699999999999818,0.4350000000000023,0.6119999999999663,0.7909999999999968,0.9519999999999982]",87,0,87,0,1
,,,,,,,5eb43dc9664e99274faade46,,,,,,5eb43dc9664e99274faade46,Kobieta,23,2021-09-06_19h11.44.814,rantool2,2021.1.4,Win32,60.0240096,6135e006383e6ea6c3d06a28,61364b9f698616b39da4ec10,"[""comma"",""comma"",""comma"",""comma"",""period""]",0,"[0.8190000000000168,0.992999999999995,1.1850000000000023,1.367999999999995,1.7210000000000036]",88,0,88,0,1
,,,,,,,5eb43dc9664e99274faade46,,,,,,5eb43dc9664e99274faade46,Kobieta,23,2021-09-06_19h11.44.814,rantool2,2021.1.4,Win32,60.0240096,6135e006383e6ea6c3d06a28,61364b9f698616b39da4ec10,"[""period"",""period"",""period"",""period"",""period"",""period""]",0,"[0.021000000000015007,0.20100000000002183,0.36700000000001864,0.5199999999999818,0.7019999999999982,0.8700000000000045]",89,0,89,0,1
,,,,,,,5eb43dc9664e99274faade46,,,,,,5eb43dc9664e99274faade46,Kobieta,23,2021-09-06_19h11.44.814,rantool2,2021.1.4,Win32,60.0240096,6135e006383e6ea6c3d06a28,61364b9f698616b39da4ec10,"[""period"",""period"",""period"",""period""]",0,"[0.33600000000001273,0.5029999999999859,0.6539999999999964,0.9869999999999663]",90,0,90,0,1
,,,,,,,5eb43dc9664e99274faade46,,,,,,5eb43dc9664e99274faade46,Kobieta,23,2021-09-06_19h11.44.814,rantool2,2021.1.4,Win32,60.0240096,6135e006383e6ea6c3d06a28,61364b9f698616b39da4ec10,"[""comma"",""comma"",""comma"",""comma"",""comma""]",0,"[0.2680000000000291,0.4399999999999977,0.6230000000000473,0.8080000000000496,1.0340000000000487]",91,0,91,0,1
,,,,,,,5eb43dc9664e99274faade46,,,,,,5eb43dc9664e99274faade46,Kobieta,23,2021-09-06_19h11.44.814,rantool2,2021.1.4,Win32,60.0240096,6135e006383e6ea6c3d06a28,61364b9f698616b39da4ec10,"[""period"",""period"",""period"",""period"",""period""]",0,"[0.23599999999999,0.4200000000000159,0.5720000000000027,0.7540000000000191,0.9700000000000273]",92,0,92,0,1
,,,,,,,5eb43dc9664e99274faade46,,,,,,5eb43dc9664e99274faade46,Kobieta,23,2021-09-06_19h11.44.814,rantool2,2021.1.4,Win32,60.0240096,6135e006383e6ea6c3d06a28,61364b9f698616b39da4ec10,"[""comma"",""comma"",""comma"",""comma"",""comma""]",0,"[0.10300000000000864,0.30400000000003047,0.46100000000001273,0.65300000000002,0.8190000000000168]",93,0,93,0,1
,,,,,,,5eb43dc9664e99274faade46,,,,,,5eb43dc9664e99274faade46,Kobieta,23,2021-09-06_19h11.44.814,rantool2,2021.1.4,Win32,60.0240096,6135e006383e6ea6c3d06a28,61364b9f698616b39da4ec10,"[""comma"",""comma"",""comma"",""comma""]",0,"[0.20799999999997,0.40399999999999636,0.589999999999975,0.7789999999999964]",94,0,94,0,1
,,,,,,,5eb43dc9664e99274faade46,,,,,,5eb43dc9664e99274faade46,Kobieta,23,2021-09-06_19h11.44.814,rantool2,2021.1.4,Win32,60.0240096,6135e006383e6ea6c3d06a28,61364b9f698616b39da4ec10,"[""comma"",""comma"",""comma"",""comma""]",0,"[0.26900000000000546,0.4359999999999786,0.6170000000000186,0.7900000000000205]",95,0,95,0,1
,,,,,,,5eb43dc9664e99274faade46,,,,,,5eb43dc9664e99274faade46,Kobieta,23,2021-09-06_19h11.44.814,rantool2,2021.1.4,Win32,60.0240096,6135e006383e6ea6c3d06a28,61364b9f698616b39da4ec10,"[""period"",""period"",""period"",""period"",""period""]",0,"[0.1519999999999868,0.35199999999997544,0.5190000000000055,0.6850000000000023,0.8410000000000082]",96,0,96,0,1
,,,,,,,5eb43dc9664e99274faade46,,,,,,5eb43dc9664e99274faade46,Kobieta,23,2021-09-06_19h11.44.814,rantool2,2021.1.4,Win32,60.0240096,6135e006383e6ea6c3d06a28,61364b9f698616b39da4ec10,"[""period"",""period"",""period"",""period"",""period""]",0,"[0.29200000000003,0.47200000000003683,0.6510000000000105,0.8090000000000259,1.052000000000021]",97,0,97,0,1
,,,,,,,5eb43dc9664e99274faade46,,,,,,5eb43dc9664e99274faade46,Kobieta,23,2021-09-06_19h11.44.814,rantool2,2021.1.4,Win32,60.0240096,6135e006383e6ea6c3d06a28,61364b9f698616b39da4ec10,"[""comma"",""comma"",""comma"",""comma"",""comma""]",0,"[0.271000000000015,0.4370000000000118,0.6209999999999809,0.90300000000002,1.9510000000000218]",98,0,98,0,1
,,,,,,,5eb43dc9664e99274faade46,,,,,,5eb43dc9664e99274faade46,Kobieta,23,2021-09-06_19h11.44.814,rantool2,2021.1.4,Win32,60.0240096,6135e006383e6ea6c3d06a28,61364b9f698616b39da4ec10,"[""comma"",""comma"",""comma"",""comma"",""comma""]",0,"[0.18500000000000227,0.37400000000002365,0.5570000000000164,0.7389999999999759,1.7860000000000014]",99,0,99,0,1
,,,,,,,5eb43dc9664e99274faade46,,,,,,5eb43dc9664e99274faade46,Kobieta,23,2021-09-06_19h11.44.814,rantool2,2021.1.4,Win32,60.0240096,6135e006383e6ea6c3d06a28,61364b9f698616b39da4ec10,"[""comma"",""comma"",""comma"",""comma"",""comma"",""comma""]",0,"[-0.014000000000010004,0.20299999999997453,0.3909999999999627,0.5569999999999595,0.7090000000000032,0.8709999999999809]",100,0,100,0,1
,,,,,,,5eb43dc9664e99274faade46,,,,,,5eb43dc9664e99274faade46,Kobieta,23,2021-09-06_19h11.44.814,rantool2,2021.1.4,Win32,60.0240096,6135e006383e6ea6c3d06a28,61364b9f698616b39da4ec10,"[""period"",""period"",""period"",""period"",""period"",""period"",""period"",""period""]",0,"[-0.012000000000000455,0.20400000000000773,0.4060000000000059,0.5720000000000027,0.7370000000000232,0.8919999999999959,1.0690000000000168,1.2690000000000055]",101,0,101,0,1
,,,,,,,5eb43dc9664e99274faade46,,,,,,5eb43dc9664e99274faade46,Kobieta,23,2021-09-06_19h11.44.814,rantool2,2021.1.4,Win32,60.0240096,6135e006383e6ea6c3d06a28,61364b9f698616b39da4ec10,"[""period"",""period"",""period"",""period"",""period""]",0,"[0.32000000000005,0.5030000000000427,0.6860000000000355,0.8700000000000045,1.0410000000000537]",102,0,102,0,1
,,,,,,,5eb43dc9664e99274faade46,,,,,,5eb43dc9664e99274faade46,Kobieta,23,2021-09-06_19h11.44.814,rantool2,2021.1.4,Win32,60.0240096,6135e006383e6ea6c3d06a28,61364b9f698616b39da4ec10,"[""comma"",""comma"",""comma"",""comma"",""comma""]",0,"[0.30299999999999727,0.48699999999996635,0.6579999999999586,0.8359999999999559,0.9889999999999759]",103,0,103,0,1
,,,,,,,5eb43dc9664e99274faade46,,,,,,5eb43dc9664e99274faade46,Kobieta,23,2021-09-06_19h11.44.814,rantool2,2021.1.4,Win32,60.0240096,6135e006383e6ea6c3d06a28,61364b9f698616b39da4ec10,"[""comma"",""comma"",""comma"",""comma""]",0,"[0.2680000000000291,0.4689999999999941,0.6430000000000291,0.8020000000000209]",104,0,104,0,1
,,,,,,,5eb43dc9664e99274faade46,,,,,,5eb43dc9664e99274faade46,Kobieta,23,2021-09-06_19h11.44.814,rantool2,2021.1.4,Win32,60.0240096,6135e006383e6ea6c3d06a28,61364b9f698616b39da4ec10,"[""comma"",""comma"",""comma""]",0,"[0.2750000000000341,0.4530000000000314,0.6200000000000045]",105,0,105,0,1
,,,,,,,5eb43dc9664e99274faade46,,,,,,5eb43dc9664e99274faade46,Kobieta,23,2021-09-06_19h11.44.814,rantool2,2021.1.4,Win32,60.0240096,6135e006383e6ea6c3d06a28,61364b9f698616b39da4ec10,"[""comma"",""comma"",""comma""]",0,"[0.23500000000001364,0.4189999999999827,0.5710000000000264]",106,0,106,0,1
,,,,,,,5eb43dc9664e99274faade46,,,,,,5eb43dc9664e99274faade46,Kobieta,23,2021-09-06_19h11.44.814,rantool2,2021.1.4,Win32,60.0240096,6135e006383e6ea6c3d06a28,61364b9f698616b39da4ec10,"[""period"",""period"",""period"",""period"",""period""]",0,"[0.21999999999997044,0.3739999999999668,0.5199999999999818,0.6850000000000023,0.839999999999975]",107,0,107,0,1
,,,,,,,5eb43dc9664e99274faade46,,,,,,5eb43dc9664e99274faade46,Kobieta,23,2021-09-06_19h11.44.814,rantool2,2021.1.4,Win32,60.0240096,6135e006383e6ea6c3d06a28,61364b9f698616b39da4ec10,"[""period"",""period"",""period""]",0,"[0.6030000000000086,0.7690000000000055,0.9260000000000446]",108,0,108,0,1
,,,,,,,5eb43dc9664e99274faade46,,,,,,5eb43dc9664e99274faade46,Kobieta,23,2021-09-06_19h11.44.814,rantool2,2021.1.4,Win32,60.0240096,6135e006383e6ea6c3d06a28,61364b9f698616b39da4ec10,"[""comma"",""comma"",""comma"",""comma""]",0,"[0.2189999999999941,0.38999999999998636,0.5690000000000168,0.7350000000000136]",109,0,109,0,1
,,,,,,,5eb43dc9664e99274faade46,,,,,,5eb43dc9664e99274faade46,Kobieta,23,2021-09-06_19h11.44.814,rantool2,2021.1.4,Win32,60.0240096,6135e006383e6ea6c3d06a28,61364b9f698616b39da4ec10,"[""period"",""period"",""period"",""period"",""period""]",0,"[0.28600000000000136,0.4390000000000214,0.603999999999985,0.7680000000000291,0.9379999999999882]",110,0,110,0,1
,,,,,,,5eb43dc9664e99274faade46,,,,,,5eb43dc9664e99274faade46,Kobieta,23,2021-09-06_19h11.44.814,rantool2,2021.1.4,Win32,60.0240096,6135e006383e6ea6c3d06a28,61364b9f698616b39da4ec10,"[""comma"",""comma"",""comma"",""comma""]",0,"[0.23699999999996635,0.41800000000000637,0.589999999999975,0.7349999999999568]",111,0,111,0,1
,,,,,,,5eb43dc9664e99274faade46,,,,,,5eb43dc9664e99274faade46,Kobieta,23,2021-09-06_19h11.44.814,rantool2,2021.1.4,Win32,60.0240096,6135e006383e6ea6c3d06a28,61364b9f698616b39da4ec10,"[""comma"",""comma"",""comma"",""comma""]",0,"[0.2370000000000232,0.4200000000000159,0.6030000000000086,0.7550000000000523]",112,0,112,0,1
,,,,,,,5eb43dc9664e99274faade46,,,,,,5eb43dc9664e99274faade46,Kobieta,23,2021-09-06_19h11.44.814,rantool2,2021.1.4,Win32,60.0240096,6135e006383e6ea6c3d06a28,61364b9f698616b39da4ec10,"[""comma"",""comma"",""comma"",""comma""]",0,"[0.24200000000001864,0.410000000000025,0.6030000000000086,0.7420000000000186]",113,0,113,0,1
,,,,,,,5eb43dc9664e99274faade46,,,,,,5eb43dc9664e99274faade46,Kobieta,23,2021-09-06_19h11.44.814,rantool2,2021.1.4,Win32,60.0240096,6135e006383e6ea6c3d06a28,61364b9f698616b39da4ec10,"[""period"",""period"",""period""]",0,"[0.2899999999999636,0.4179999999999495,0.6679999999999495]",114,0,114,0,1
,,,,,,,5eb43dc9664e99274faade46,,,,,,5eb43dc9664e99274faade46,Kobieta,23,2021-09-06_19h11.44.814,rantool2,2021.1.4,Win32,60.0240096,6135e006383e6ea6c3d06a28,61364b9f698616b39da4ec10,"[""period"",""period"",""period"",""period"",""period"",""comma""]",0,"[-0.013999999999953161,0.22200000000003683,0.38900000000001,0.5540000000000305,0.7030000000000314,1.9350000000000023]",115,0,115,0,1
,,,,,,,5eb43dc9664e99274faade46,,,,,,5eb43dc9664e99274faade46,Kobieta,23,2021-09-06_19h11.44.814,rantool2,2021.1.4,Win32,60.0240096,6135e006383e6ea6c3d06a28,61364b9f698616b39da4ec10,"[""comma"",""comma"",""comma"",""comma"",""comma""]",0,"[0.1360000000000241,0.3180000000000405,0.4910000000000423,0.6680000000000064,0.8180000000000405]",116,0,116,0,1
,,,,,,,5eb43dc9664e99274faade46,,,,,,5eb43dc9664e99274faade46,Kobieta,23,2021-09-06_19h11.44.814,rantool2,2021.1.4,Win32,60.0240096,6135e006383e6ea6c3d06a28,61364b9f698616b39da4ec10,"[""comma"",""comma"",""comma"",""comma"",""comma""]",0,"[0.2519999999999527,0.4219999999999686,0.603999999999985,0.7749999999999773,0.9349999999999454]",117,0,117,0,1
,,,,,,,5eb43dc9664e99274faade46,,,,,,5eb43dc9664e99274faade46,Kobieta,23,2021-09-06_19h11.44.814,rantool2,2021.1.4,Win32,60.0240096,6135e006383e6ea6c3d06a28,61364b9f698616b39da4ec10,"[""period"",""period"",""period"",""period""]",0,"[0.25200000000000955,0.4049999999999727,0.5849999999999795,0.9350000000000023]",118,0,118,0,1
,,,,,,,5eb43dc9664e99274faade46,,,,,,5eb43dc9664e99274faade46,Kobieta,23,2021-09-06_19h11.44.814,rantool2,2021.1.4,Win32,60.0240096,6135e006383e6ea6c3d06a28,61364b9f698616b39da4ec10,"[""comma"",""comma"",""comma"",""comma""]",0,"[0.2939999999999827,0.4519999999999982,0.6359999999999673,0.8190000000000168]",119,0,119,0,1
