key_resp_5.keys,key_resp_5.corr,key_resp_5.rt,trials.thisRepN,trials.thisTrialN,trials.thisN,trials.thisIndex,trials.ran,id*,Płeć*,Wiek*,date,expName,psychopyVersion,OS,frameRate,id,STUDY_ID,SESSION_ID,key_resp_7.keys,key_resp_7.rt,trials_2.thisRepN,trials_2.thisTrialN,trials_2.thisN,trials_2.thisIndex,trials_2.ran,series_0,series_1,acss_0,acss_1,comparison
"[""comma""]",0,[1.1159999999999997],0,0,0,0,1,5ebf3541fa0189324a7cf56b,Mężczyzna,24,2021-07-13_22h00.39.133,rantool2,2021.1.4,Win32,61.05006105,5ebf3541fa0189324a7cf56b,60d9d14f4a8a35a482e0d9bf,60edf0a8df004ddbc9297f78,,,,,,,,,,,,
"[""comma""]",0,[0.9080000000000013],1,0,1,0,1,5ebf3541fa0189324a7cf56b,Mężczyzna,24,2021-07-13_22h00.39.133,rantool2,2021.1.4,Win32,61.05006105,5ebf3541fa0189324a7cf56b,60d9d14f4a8a35a482e0d9bf,60edf0a8df004ddbc9297f78,,,,,,,,,,,,
"[""period""]",0,[0.40099999999999625],2,0,2,0,1,5ebf3541fa0189324a7cf56b,Mężczyzna,24,2021-07-13_22h00.39.133,rantool2,2021.1.4,Win32,61.05006105,5ebf3541fa0189324a7cf56b,60d9d14f4a8a35a482e0d9bf,60edf0a8df004ddbc9297f78,,,,,,,,,,,,
"[""comma""]",0,[0.6340000000000003],3,0,3,0,1,5ebf3541fa0189324a7cf56b,Mężczyzna,24,2021-07-13_22h00.39.133,rantool2,2021.1.4,Win32,61.05006105,5ebf3541fa0189324a7cf56b,60d9d14f4a8a35a482e0d9bf,60edf0a8df004ddbc9297f78,,,,,,,,,,,,
"[""period""]",0,[0.7779999999999916],4,0,4,0,1,5ebf3541fa0189324a7cf56b,Mężczyzna,24,2021-07-13_22h00.39.133,rantool2,2021.1.4,Win32,61.05006105,5ebf3541fa0189324a7cf56b,60d9d14f4a8a35a482e0d9bf,60edf0a8df004ddbc9297f78,,,,,,,,,,,,
"[""period""]",0,[0.44700000000000273],5,0,5,0,1,5ebf3541fa0189324a7cf56b,Mężczyzna,24,2021-07-13_22h00.39.133,rantool2,2021.1.4,Win32,61.05006105,5ebf3541fa0189324a7cf56b,60d9d14f4a8a35a482e0d9bf,60edf0a8df004ddbc9297f78,,,,,,,,,,,,
"[""period""]",0,[0.6009999999999991],6,0,6,0,1,5ebf3541fa0189324a7cf56b,Mężczyzna,24,2021-07-13_22h00.39.133,rantool2,2021.1.4,Win32,61.05006105,5ebf3541fa0189324a7cf56b,60d9d14f4a8a35a482e0d9bf,60edf0a8df004ddbc9297f78,,,,,,,,,,,,
"[""comma""]",0,[0.7449999999999903],7,0,7,0,1,5ebf3541fa0189324a7cf56b,Mężczyzna,24,2021-07-13_22h00.39.133,rantool2,2021.1.4,Win32,61.05006105,5ebf3541fa0189324a7cf56b,60d9d14f4a8a35a482e0d9bf,60edf0a8df004ddbc9297f78,,,,,,,,,,,,
"[""comma""]",0,[0.8259999999999934],8,0,8,0,1,5ebf3541fa0189324a7cf56b,Mężczyzna,24,2021-07-13_22h00.39.133,rantool2,2021.1.4,Win32,61.05006105,5ebf3541fa0189324a7cf56b,60d9d14f4a8a35a482e0d9bf,60edf0a8df004ddbc9297f78,,,,,,,,,,,,
"[""period""]",0,[0.5459999999999923],9,0,9,0,1,5ebf3541fa0189324a7cf56b,Mężczyzna,24,2021-07-13_22h00.39.133,rantool2,2021.1.4,Win32,61.05006105,5ebf3541fa0189324a7cf56b,60d9d14f4a8a35a482e0d9bf,60edf0a8df004ddbc9297f78,,,,,,,,,,,,
"[""comma""]",0,[0.6289999999999907],10,0,10,0,1,5ebf3541fa0189324a7cf56b,Mężczyzna,24,2021-07-13_22h00.39.133,rantool2,2021.1.4,Win32,61.05006105,5ebf3541fa0189324a7cf56b,60d9d14f4a8a35a482e0d9bf,60edf0a8df004ddbc9297f78,,,,,,,,,,,,
"[""period""]",0,[0.7950000000000017],11,0,11,0,1,5ebf3541fa0189324a7cf56b,Mężczyzna,24,2021-07-13_22h00.39.133,rantool2,2021.1.4,Win32,61.05006105,5ebf3541fa0189324a7cf56b,60d9d14f4a8a35a482e0d9bf,60edf0a8df004ddbc9297f78,,,,,,,,,,,,
"[""comma""]",0,[0.679000000000002],12,0,12,0,1,5ebf3541fa0189324a7cf56b,Mężczyzna,24,2021-07-13_22h00.39.133,rantool2,2021.1.4,Win32,61.05006105,5ebf3541fa0189324a7cf56b,60d9d14f4a8a35a482e0d9bf,60edf0a8df004ddbc9297f78,,,,,,,,,,,,
"[""comma""]",0,[0.7120000000000033],13,0,13,0,1,5ebf3541fa0189324a7cf56b,Mężczyzna,24,2021-07-13_22h00.39.133,rantool2,2021.1.4,Win32,61.05006105,5ebf3541fa0189324a7cf56b,60d9d14f4a8a35a482e0d9bf,60edf0a8df004ddbc9297f78,,,,,,,,,,,,
"[""period""]",0,[0.6970000000000027],14,0,14,0,1,5ebf3541fa0189324a7cf56b,Mężczyzna,24,2021-07-13_22h00.39.133,rantool2,2021.1.4,Win32,61.05006105,5ebf3541fa0189324a7cf56b,60d9d14f4a8a35a482e0d9bf,60edf0a8df004ddbc9297f78,,,,,,,,,,,,
"[""comma""]",0,[0.730000000000004],15,0,15,0,1,5ebf3541fa0189324a7cf56b,Mężczyzna,24,2021-07-13_22h00.39.133,rantool2,2021.1.4,Win32,61.05006105,5ebf3541fa0189324a7cf56b,60d9d14f4a8a35a482e0d9bf,60edf0a8df004ddbc9297f78,,,,,,,,,,,,
"[""period""]",0,[0.8089999999999975],16,0,16,0,1,5ebf3541fa0189324a7cf56b,Mężczyzna,24,2021-07-13_22h00.39.133,rantool2,2021.1.4,Win32,61.05006105,5ebf3541fa0189324a7cf56b,60d9d14f4a8a35a482e0d9bf,60edf0a8df004ddbc9297f78,,,,,,,,,,,,
"[""period""]",0,[0.8430000000000177],17,0,17,0,1,5ebf3541fa0189324a7cf56b,Mężczyzna,24,2021-07-13_22h00.39.133,rantool2,2021.1.4,Win32,61.05006105,5ebf3541fa0189324a7cf56b,60d9d14f4a8a35a482e0d9bf,60edf0a8df004ddbc9297f78,,,,,,,,,,,,
"[""period""]",0,[0.39699999999999136],18,0,18,0,1,5ebf3541fa0189324a7cf56b,Mężczyzna,24,2021-07-13_22h00.39.133,rantool2,2021.1.4,Win32,61.05006105,5ebf3541fa0189324a7cf56b,60d9d14f4a8a35a482e0d9bf,60edf0a8df004ddbc9297f78,,,,,,,,,,,,
"[""period""]",0,[0.33099999999998886],19,0,19,0,1,5ebf3541fa0189324a7cf56b,Mężczyzna,24,2021-07-13_22h00.39.133,rantool2,2021.1.4,Win32,61.05006105,5ebf3541fa0189324a7cf56b,60d9d14f4a8a35a482e0d9bf,60edf0a8df004ddbc9297f78,,,,,,,,,,,,
"[""comma""]",0,[0.3359999999999843],20,0,20,0,1,5ebf3541fa0189324a7cf56b,Mężczyzna,24,2021-07-13_22h00.39.133,rantool2,2021.1.4,Win32,61.05006105,5ebf3541fa0189324a7cf56b,60d9d14f4a8a35a482e0d9bf,60edf0a8df004ddbc9297f78,,,,,,,,,,,,
"[""period""]",0,[0.7280000000000086],21,0,21,0,1,5ebf3541fa0189324a7cf56b,Mężczyzna,24,2021-07-13_22h00.39.133,rantool2,2021.1.4,Win32,61.05006105,5ebf3541fa0189324a7cf56b,60d9d14f4a8a35a482e0d9bf,60edf0a8df004ddbc9297f78,,,,,,,,,,,,
"[""comma""]",0,[0.5959999999999752],22,0,22,0,1,5ebf3541fa0189324a7cf56b,Mężczyzna,24,2021-07-13_22h00.39.133,rantool2,2021.1.4,Win32,61.05006105,5ebf3541fa0189324a7cf56b,60d9d14f4a8a35a482e0d9bf,60edf0a8df004ddbc9297f78,,,,,,,,,,,,
"[""comma""]",0,[0.4660000000000082],23,0,23,0,1,5ebf3541fa0189324a7cf56b,Mężczyzna,24,2021-07-13_22h00.39.133,rantool2,2021.1.4,Win32,61.05006105,5ebf3541fa0189324a7cf56b,60d9d14f4a8a35a482e0d9bf,60edf0a8df004ddbc9297f78,,,,,,,,,,,,
"[""period""]",0,[0.43200000000001637],24,0,24,0,1,5ebf3541fa0189324a7cf56b,Mężczyzna,24,2021-07-13_22h00.39.133,rantool2,2021.1.4,Win32,61.05006105,5ebf3541fa0189324a7cf56b,60d9d14f4a8a35a482e0d9bf,60edf0a8df004ddbc9297f78,,,,,,,,,,,,
"[""comma""]",0,[0.5279999999999916],25,0,25,0,1,5ebf3541fa0189324a7cf56b,Mężczyzna,24,2021-07-13_22h00.39.133,rantool2,2021.1.4,Win32,61.05006105,5ebf3541fa0189324a7cf56b,60d9d14f4a8a35a482e0d9bf,60edf0a8df004ddbc9297f78,,,,,,,,,,,,
"[""period""]",0,[0.6770000000000209],26,0,26,0,1,5ebf3541fa0189324a7cf56b,Mężczyzna,24,2021-07-13_22h00.39.133,rantool2,2021.1.4,Win32,61.05006105,5ebf3541fa0189324a7cf56b,60d9d14f4a8a35a482e0d9bf,60edf0a8df004ddbc9297f78,,,,,,,,,,,,
"[""period""]",0,[0.6150000000000091],27,0,27,0,1,5ebf3541fa0189324a7cf56b,Mężczyzna,24,2021-07-13_22h00.39.133,rantool2,2021.1.4,Win32,61.05006105,5ebf3541fa0189324a7cf56b,60d9d14f4a8a35a482e0d9bf,60edf0a8df004ddbc9297f78,,,,,,,,,,,,
"[""period""]",0,[0.45000000000001705],28,0,28,0,1,5ebf3541fa0189324a7cf56b,Mężczyzna,24,2021-07-13_22h00.39.133,rantool2,2021.1.4,Win32,61.05006105,5ebf3541fa0189324a7cf56b,60d9d14f4a8a35a482e0d9bf,60edf0a8df004ddbc9297f78,,,,,,,,,,,,
"[""comma""]",0,[0.5310000000000059],29,0,29,0,1,5ebf3541fa0189324a7cf56b,Mężczyzna,24,2021-07-13_22h00.39.133,rantool2,2021.1.4,Win32,61.05006105,5ebf3541fa0189324a7cf56b,60d9d14f4a8a35a482e0d9bf,60edf0a8df004ddbc9297f78,,,,,,,,,,,,
"[""period""]",0,[0.5170000000000243],30,0,30,0,1,5ebf3541fa0189324a7cf56b,Mężczyzna,24,2021-07-13_22h00.39.133,rantool2,2021.1.4,Win32,61.05006105,5ebf3541fa0189324a7cf56b,60d9d14f4a8a35a482e0d9bf,60edf0a8df004ddbc9297f78,,,,,,,,,,,,
"[""comma""]",0,[0.3859999999999957],31,0,31,0,1,5ebf3541fa0189324a7cf56b,Mężczyzna,24,2021-07-13_22h00.39.133,rantool2,2021.1.4,Win32,61.05006105,5ebf3541fa0189324a7cf56b,60d9d14f4a8a35a482e0d9bf,60edf0a8df004ddbc9297f78,,,,,,,,,,,,
"[""comma""]",0,[0.6170000000000186],32,0,32,0,1,5ebf3541fa0189324a7cf56b,Mężczyzna,24,2021-07-13_22h00.39.133,rantool2,2021.1.4,Win32,61.05006105,5ebf3541fa0189324a7cf56b,60d9d14f4a8a35a482e0d9bf,60edf0a8df004ddbc9297f78,,,,,,,,,,,,
"[""period""]",0,[0.5149999999999864],33,0,33,0,1,5ebf3541fa0189324a7cf56b,Mężczyzna,24,2021-07-13_22h00.39.133,rantool2,2021.1.4,Win32,61.05006105,5ebf3541fa0189324a7cf56b,60d9d14f4a8a35a482e0d9bf,60edf0a8df004ddbc9297f78,,,,,,,,,,,,
"[""comma""]",0,[0.35000000000002274],34,0,34,0,1,5ebf3541fa0189324a7cf56b,Mężczyzna,24,2021-07-13_22h00.39.133,rantool2,2021.1.4,Win32,61.05006105,5ebf3541fa0189324a7cf56b,60d9d14f4a8a35a482e0d9bf,60edf0a8df004ddbc9297f78,,,,,,,,,,,,
"[""period""]",0,[0.46399999999999864],35,0,35,0,1,5ebf3541fa0189324a7cf56b,Mężczyzna,24,2021-07-13_22h00.39.133,rantool2,2021.1.4,Win32,61.05006105,5ebf3541fa0189324a7cf56b,60d9d14f4a8a35a482e0d9bf,60edf0a8df004ddbc9297f78,,,,,,,,,,,,
"[""period""]",0,[0.4000000000000057],36,0,36,0,1,5ebf3541fa0189324a7cf56b,Mężczyzna,24,2021-07-13_22h00.39.133,rantool2,2021.1.4,Win32,61.05006105,5ebf3541fa0189324a7cf56b,60d9d14f4a8a35a482e0d9bf,60edf0a8df004ddbc9297f78,,,,,,,,,,,,
"[""comma""]",0,[0.4989999999999952],37,0,37,0,1,5ebf3541fa0189324a7cf56b,Mężczyzna,24,2021-07-13_22h00.39.133,rantool2,2021.1.4,Win32,61.05006105,5ebf3541fa0189324a7cf56b,60d9d14f4a8a35a482e0d9bf,60edf0a8df004ddbc9297f78,,,,,,,,,,,,
"[""comma""]",0,[0.33200000000002206],38,0,38,0,1,5ebf3541fa0189324a7cf56b,Mężczyzna,24,2021-07-13_22h00.39.133,rantool2,2021.1.4,Win32,61.05006105,5ebf3541fa0189324a7cf56b,60d9d14f4a8a35a482e0d9bf,60edf0a8df004ddbc9297f78,,,,,,,,,,,,
"[""comma""]",0,[0.5799999999999841],39,0,39,0,1,5ebf3541fa0189324a7cf56b,Mężczyzna,24,2021-07-13_22h00.39.133,rantool2,2021.1.4,Win32,61.05006105,5ebf3541fa0189324a7cf56b,60d9d14f4a8a35a482e0d9bf,60edf0a8df004ddbc9297f78,,,,,,,,,,,,
"[""period""]",0,[0.6119999999999948],40,0,40,0,1,5ebf3541fa0189324a7cf56b,Mężczyzna,24,2021-07-13_22h00.39.133,rantool2,2021.1.4,Win32,61.05006105,5ebf3541fa0189324a7cf56b,60d9d14f4a8a35a482e0d9bf,60edf0a8df004ddbc9297f78,,,,,,,,,,,,
"[""comma""]",0,[0.5360000000000014],41,0,41,0,1,5ebf3541fa0189324a7cf56b,Mężczyzna,24,2021-07-13_22h00.39.133,rantool2,2021.1.4,Win32,61.05006105,5ebf3541fa0189324a7cf56b,60d9d14f4a8a35a482e0d9bf,60edf0a8df004ddbc9297f78,,,,,,,,,,,,
"[""comma""]",0,[0.5349999999999966],42,0,42,0,1,5ebf3541fa0189324a7cf56b,Mężczyzna,24,2021-07-13_22h00.39.133,rantool2,2021.1.4,Win32,61.05006105,5ebf3541fa0189324a7cf56b,60d9d14f4a8a35a482e0d9bf,60edf0a8df004ddbc9297f78,,,,,,,,,,,,
"[""comma""]",0,[0.59699999999998],43,0,43,0,1,5ebf3541fa0189324a7cf56b,Mężczyzna,24,2021-07-13_22h00.39.133,rantool2,2021.1.4,Win32,61.05006105,5ebf3541fa0189324a7cf56b,60d9d14f4a8a35a482e0d9bf,60edf0a8df004ddbc9297f78,,,,,,,,,,,,
"[""period""]",0,[0.6769999999999925],44,0,44,0,1,5ebf3541fa0189324a7cf56b,Mężczyzna,24,2021-07-13_22h00.39.133,rantool2,2021.1.4,Win32,61.05006105,5ebf3541fa0189324a7cf56b,60d9d14f4a8a35a482e0d9bf,60edf0a8df004ddbc9297f78,,,,,,,,,,,,
"[""period""]",0,[0.4479999999999791],45,0,45,0,1,5ebf3541fa0189324a7cf56b,Mężczyzna,24,2021-07-13_22h00.39.133,rantool2,2021.1.4,Win32,61.05006105,5ebf3541fa0189324a7cf56b,60d9d14f4a8a35a482e0d9bf,60edf0a8df004ddbc9297f78,,,,,,,,,,,,
"[""period""]",0,[0.5030000000000143],46,0,46,0,1,5ebf3541fa0189324a7cf56b,Mężczyzna,24,2021-07-13_22h00.39.133,rantool2,2021.1.4,Win32,61.05006105,5ebf3541fa0189324a7cf56b,60d9d14f4a8a35a482e0d9bf,60edf0a8df004ddbc9297f78,,,,,,,,,,,,
"[""comma""]",0,[0.4299999999999784],47,0,47,0,1,5ebf3541fa0189324a7cf56b,Mężczyzna,24,2021-07-13_22h00.39.133,rantool2,2021.1.4,Win32,61.05006105,5ebf3541fa0189324a7cf56b,60d9d14f4a8a35a482e0d9bf,60edf0a8df004ddbc9297f78,,,,,,,,,,,,
"[""period""]",0,[0.3640000000000043],48,0,48,0,1,5ebf3541fa0189324a7cf56b,Mężczyzna,24,2021-07-13_22h00.39.133,rantool2,2021.1.4,Win32,61.05006105,5ebf3541fa0189324a7cf56b,60d9d14f4a8a35a482e0d9bf,60edf0a8df004ddbc9297f78,,,,,,,,,,,,
"[""period""]",0,[0.4969999999999857],49,0,49,0,1,5ebf3541fa0189324a7cf56b,Mężczyzna,24,2021-07-13_22h00.39.133,rantool2,2021.1.4,Win32,61.05006105,5ebf3541fa0189324a7cf56b,60d9d14f4a8a35a482e0d9bf,60edf0a8df004ddbc9297f78,,,,,,,,,,,,
"[""comma""]",0,[0.48099999999999454],50,0,50,0,1,5ebf3541fa0189324a7cf56b,Mężczyzna,24,2021-07-13_22h00.39.133,rantool2,2021.1.4,Win32,61.05006105,5ebf3541fa0189324a7cf56b,60d9d14f4a8a35a482e0d9bf,60edf0a8df004ddbc9297f78,,,,,,,,,,,,
"[""period""]",0,[0.3699999999999761],51,0,51,0,1,5ebf3541fa0189324a7cf56b,Mężczyzna,24,2021-07-13_22h00.39.133,rantool2,2021.1.4,Win32,61.05006105,5ebf3541fa0189324a7cf56b,60d9d14f4a8a35a482e0d9bf,60edf0a8df004ddbc9297f78,,,,,,,,,,,,
"[""period""]",0,[0.44700000000000273],52,0,52,0,1,5ebf3541fa0189324a7cf56b,Mężczyzna,24,2021-07-13_22h00.39.133,rantool2,2021.1.4,Win32,61.05006105,5ebf3541fa0189324a7cf56b,60d9d14f4a8a35a482e0d9bf,60edf0a8df004ddbc9297f78,,,,,,,,,,,,
"[""comma""]",0,[0.3790000000000191],53,0,53,0,1,5ebf3541fa0189324a7cf56b,Mężczyzna,24,2021-07-13_22h00.39.133,rantool2,2021.1.4,Win32,61.05006105,5ebf3541fa0189324a7cf56b,60d9d14f4a8a35a482e0d9bf,60edf0a8df004ddbc9297f78,,,,,,,,,,,,
"[""period""]",0,[0.4309999999999832],54,0,54,0,1,5ebf3541fa0189324a7cf56b,Mężczyzna,24,2021-07-13_22h00.39.133,rantool2,2021.1.4,Win32,61.05006105,5ebf3541fa0189324a7cf56b,60d9d14f4a8a35a482e0d9bf,60edf0a8df004ddbc9297f78,,,,,,,,,,,,
"[""comma""]",0,[0.353999999999985],55,0,55,0,1,5ebf3541fa0189324a7cf56b,Mężczyzna,24,2021-07-13_22h00.39.133,rantool2,2021.1.4,Win32,61.05006105,5ebf3541fa0189324a7cf56b,60d9d14f4a8a35a482e0d9bf,60edf0a8df004ddbc9297f78,,,,,,,,,,,,
"[""period""]",0,[0.33199999999999363],56,0,56,0,1,5ebf3541fa0189324a7cf56b,Mężczyzna,24,2021-07-13_22h00.39.133,rantool2,2021.1.4,Win32,61.05006105,5ebf3541fa0189324a7cf56b,60d9d14f4a8a35a482e0d9bf,60edf0a8df004ddbc9297f78,,,,,,,,,,,,
"[""comma""]",0,[0.3859999999999957],57,0,57,0,1,5ebf3541fa0189324a7cf56b,Mężczyzna,24,2021-07-13_22h00.39.133,rantool2,2021.1.4,Win32,61.05006105,5ebf3541fa0189324a7cf56b,60d9d14f4a8a35a482e0d9bf,60edf0a8df004ddbc9297f78,,,,,,,,,,,,
"[""comma""]",0,[0.5619999999999834],58,0,58,0,1,5ebf3541fa0189324a7cf56b,Mężczyzna,24,2021-07-13_22h00.39.133,rantool2,2021.1.4,Win32,61.05006105,5ebf3541fa0189324a7cf56b,60d9d14f4a8a35a482e0d9bf,60edf0a8df004ddbc9297f78,,,,,,,,,,,,
"[""period""]",0,[0.8760000000000048],59,0,59,0,1,5ebf3541fa0189324a7cf56b,Mężczyzna,24,2021-07-13_22h00.39.133,rantool2,2021.1.4,Win32,61.05006105,5ebf3541fa0189324a7cf56b,60d9d14f4a8a35a482e0d9bf,60edf0a8df004ddbc9297f78,,,,,,,,,,,,
"[""comma""]",0,[0.39699999999999136],60,0,60,0,1,5ebf3541fa0189324a7cf56b,Mężczyzna,24,2021-07-13_22h00.39.133,rantool2,2021.1.4,Win32,61.05006105,5ebf3541fa0189324a7cf56b,60d9d14f4a8a35a482e0d9bf,60edf0a8df004ddbc9297f78,,,,,,,,,,,,
"[""period""]",0,[0.3190000000000168],61,0,61,0,1,5ebf3541fa0189324a7cf56b,Mężczyzna,24,2021-07-13_22h00.39.133,rantool2,2021.1.4,Win32,61.05006105,5ebf3541fa0189324a7cf56b,60d9d14f4a8a35a482e0d9bf,60edf0a8df004ddbc9297f78,,,,,,,,,,,,
"[""comma""]",0,[0.44700000000000273],62,0,62,0,1,5ebf3541fa0189324a7cf56b,Mężczyzna,24,2021-07-13_22h00.39.133,rantool2,2021.1.4,Win32,61.05006105,5ebf3541fa0189324a7cf56b,60d9d14f4a8a35a482e0d9bf,60edf0a8df004ddbc9297f78,,,,,,,,,,,,
"[""comma""]",0,[0.6299999999999955],63,0,63,0,1,5ebf3541fa0189324a7cf56b,Mężczyzna,24,2021-07-13_22h00.39.133,rantool2,2021.1.4,Win32,61.05006105,5ebf3541fa0189324a7cf56b,60d9d14f4a8a35a482e0d9bf,60edf0a8df004ddbc9297f78,,,,,,,,,,,,
"[""period""]",0,[0.6129999999999995],64,0,64,0,1,5ebf3541fa0189324a7cf56b,Mężczyzna,24,2021-07-13_22h00.39.133,rantool2,2021.1.4,Win32,61.05006105,5ebf3541fa0189324a7cf56b,60d9d14f4a8a35a482e0d9bf,60edf0a8df004ddbc9297f78,,,,,,,,,,,,
"[""period""]",0,[0.4830000000000041],65,0,65,0,1,5ebf3541fa0189324a7cf56b,Mężczyzna,24,2021-07-13_22h00.39.133,rantool2,2021.1.4,Win32,61.05006105,5ebf3541fa0189324a7cf56b,60d9d14f4a8a35a482e0d9bf,60edf0a8df004ddbc9297f78,,,,,,,,,,,,
"[""comma""]",0,[0.4969999999999857],66,0,66,0,1,5ebf3541fa0189324a7cf56b,Mężczyzna,24,2021-07-13_22h00.39.133,rantool2,2021.1.4,Win32,61.05006105,5ebf3541fa0189324a7cf56b,60d9d14f4a8a35a482e0d9bf,60edf0a8df004ddbc9297f78,,,,,,,,,,,,
"[""comma""]",0,[0.4970000000000141],67,0,67,0,1,5ebf3541fa0189324a7cf56b,Mężczyzna,24,2021-07-13_22h00.39.133,rantool2,2021.1.4,Win32,61.05006105,5ebf3541fa0189324a7cf56b,60d9d14f4a8a35a482e0d9bf,60edf0a8df004ddbc9297f78,,,,,,,,,,,,
"[""comma""]",0,[0.46299999999999386],68,0,68,0,1,5ebf3541fa0189324a7cf56b,Mężczyzna,24,2021-07-13_22h00.39.133,rantool2,2021.1.4,Win32,61.05006105,5ebf3541fa0189324a7cf56b,60d9d14f4a8a35a482e0d9bf,60edf0a8df004ddbc9297f78,,,,,,,,,,,,
"[""period""]",0,[0.35300000000000864],69,0,69,0,1,5ebf3541fa0189324a7cf56b,Mężczyzna,24,2021-07-13_22h00.39.133,rantool2,2021.1.4,Win32,61.05006105,5ebf3541fa0189324a7cf56b,60d9d14f4a8a35a482e0d9bf,60edf0a8df004ddbc9297f78,,,,,,,,,,,,
"[""period""]",0,[0.5840000000000032],70,0,70,0,1,5ebf3541fa0189324a7cf56b,Mężczyzna,24,2021-07-13_22h00.39.133,rantool2,2021.1.4,Win32,61.05006105,5ebf3541fa0189324a7cf56b,60d9d14f4a8a35a482e0d9bf,60edf0a8df004ddbc9297f78,,,,,,,,,,,,
"[""comma""]",0,[0.4960000000000093],71,0,71,0,1,5ebf3541fa0189324a7cf56b,Mężczyzna,24,2021-07-13_22h00.39.133,rantool2,2021.1.4,Win32,61.05006105,5ebf3541fa0189324a7cf56b,60d9d14f4a8a35a482e0d9bf,60edf0a8df004ddbc9297f78,,,,,,,,,,,,
"[""comma""]",0,[0.6359999999999957],72,0,72,0,1,5ebf3541fa0189324a7cf56b,Mężczyzna,24,2021-07-13_22h00.39.133,rantool2,2021.1.4,Win32,61.05006105,5ebf3541fa0189324a7cf56b,60d9d14f4a8a35a482e0d9bf,60edf0a8df004ddbc9297f78,,,,,,,,,,,,
"[""period""]",0,[0.578000000000003],73,0,73,0,1,5ebf3541fa0189324a7cf56b,Mężczyzna,24,2021-07-13_22h00.39.133,rantool2,2021.1.4,Win32,61.05006105,5ebf3541fa0189324a7cf56b,60d9d14f4a8a35a482e0d9bf,60edf0a8df004ddbc9297f78,,,,,,,,,,,,
"[""comma""]",0,[0.3640000000000043],74,0,74,0,1,5ebf3541fa0189324a7cf56b,Mężczyzna,24,2021-07-13_22h00.39.133,rantool2,2021.1.4,Win32,61.05006105,5ebf3541fa0189324a7cf56b,60d9d14f4a8a35a482e0d9bf,60edf0a8df004ddbc9297f78,,,,,,,,,,,,
"[""period""]",0,[0.4000000000000057],75,0,75,0,1,5ebf3541fa0189324a7cf56b,Mężczyzna,24,2021-07-13_22h00.39.133,rantool2,2021.1.4,Win32,61.05006105,5ebf3541fa0189324a7cf56b,60d9d14f4a8a35a482e0d9bf,60edf0a8df004ddbc9297f78,,,,,,,,,,,,
"[""period""]",0,[0.3689999999999998],76,0,76,0,1,5ebf3541fa0189324a7cf56b,Mężczyzna,24,2021-07-13_22h00.39.133,rantool2,2021.1.4,Win32,61.05006105,5ebf3541fa0189324a7cf56b,60d9d14f4a8a35a482e0d9bf,60edf0a8df004ddbc9297f78,,,,,,,,,,,,
"[""comma""]",0,[0.39799999999999613],77,0,77,0,1,5ebf3541fa0189324a7cf56b,Mężczyzna,24,2021-07-13_22h00.39.133,rantool2,2021.1.4,Win32,61.05006105,5ebf3541fa0189324a7cf56b,60d9d14f4a8a35a482e0d9bf,60edf0a8df004ddbc9297f78,,,,,,,,,,,,
"[""period""]",0,[0.28299999999998704],78,0,78,0,1,5ebf3541fa0189324a7cf56b,Mężczyzna,24,2021-07-13_22h00.39.133,rantool2,2021.1.4,Win32,61.05006105,5ebf3541fa0189324a7cf56b,60d9d14f4a8a35a482e0d9bf,60edf0a8df004ddbc9297f78,,,,,,,,,,,,
"[""comma""]",0,[0.25499999999999545],79,0,79,0,1,5ebf3541fa0189324a7cf56b,Mężczyzna,24,2021-07-13_22h00.39.133,rantool2,2021.1.4,Win32,61.05006105,5ebf3541fa0189324a7cf56b,60d9d14f4a8a35a482e0d9bf,60edf0a8df004ddbc9297f78,,,,,,,,,,,,
"[""period""]",0,[0.2810000000000059],80,0,80,0,1,5ebf3541fa0189324a7cf56b,Mężczyzna,24,2021-07-13_22h00.39.133,rantool2,2021.1.4,Win32,61.05006105,5ebf3541fa0189324a7cf56b,60d9d14f4a8a35a482e0d9bf,60edf0a8df004ddbc9297f78,,,,,,,,,,,,
"[""comma""]",0,[0.2669999999999675],81,0,81,0,1,5ebf3541fa0189324a7cf56b,Mężczyzna,24,2021-07-13_22h00.39.133,rantool2,2021.1.4,Win32,61.05006105,5ebf3541fa0189324a7cf56b,60d9d14f4a8a35a482e0d9bf,60edf0a8df004ddbc9297f78,,,,,,,,,,,,
"[""period""]",0,[0.34699999999998],82,0,82,0,1,5ebf3541fa0189324a7cf56b,Mężczyzna,24,2021-07-13_22h00.39.133,rantool2,2021.1.4,Win32,61.05006105,5ebf3541fa0189324a7cf56b,60d9d14f4a8a35a482e0d9bf,60edf0a8df004ddbc9297f78,,,,,,,,,,,,
"[""comma""]",0,[0.26900000000000546],83,0,83,0,1,5ebf3541fa0189324a7cf56b,Mężczyzna,24,2021-07-13_22h00.39.133,rantool2,2021.1.4,Win32,61.05006105,5ebf3541fa0189324a7cf56b,60d9d14f4a8a35a482e0d9bf,60edf0a8df004ddbc9297f78,,,,,,,,,,,,
"[""period""]",0,[0.28199999999998226],84,0,84,0,1,5ebf3541fa0189324a7cf56b,Mężczyzna,24,2021-07-13_22h00.39.133,rantool2,2021.1.4,Win32,61.05006105,5ebf3541fa0189324a7cf56b,60d9d14f4a8a35a482e0d9bf,60edf0a8df004ddbc9297f78,,,,,,,,,,,,
"[""comma""]",0,[0.2969999999999686],85,0,85,0,1,5ebf3541fa0189324a7cf56b,Mężczyzna,24,2021-07-13_22h00.39.133,rantool2,2021.1.4,Win32,61.05006105,5ebf3541fa0189324a7cf56b,60d9d14f4a8a35a482e0d9bf,60edf0a8df004ddbc9297f78,,,,,,,,,,,,
"[""comma""]",0,[0.34600000000000364],86,0,86,0,1,5ebf3541fa0189324a7cf56b,Mężczyzna,24,2021-07-13_22h00.39.133,rantool2,2021.1.4,Win32,61.05006105,5ebf3541fa0189324a7cf56b,60d9d14f4a8a35a482e0d9bf,60edf0a8df004ddbc9297f78,,,,,,,,,,,,
"[""period""]",0,[0.33199999999999363],87,0,87,0,1,5ebf3541fa0189324a7cf56b,Mężczyzna,24,2021-07-13_22h00.39.133,rantool2,2021.1.4,Win32,61.05006105,5ebf3541fa0189324a7cf56b,60d9d14f4a8a35a482e0d9bf,60edf0a8df004ddbc9297f78,,,,,,,,,,,,
"[""comma""]",0,[0.26600000000001955],88,0,88,0,1,5ebf3541fa0189324a7cf56b,Mężczyzna,24,2021-07-13_22h00.39.133,rantool2,2021.1.4,Win32,61.05006105,5ebf3541fa0189324a7cf56b,60d9d14f4a8a35a482e0d9bf,60edf0a8df004ddbc9297f78,,,,,,,,,,,,
"[""period""]",0,[0.1349999999999909],89,0,89,0,1,5ebf3541fa0189324a7cf56b,Mężczyzna,24,2021-07-13_22h00.39.133,rantool2,2021.1.4,Win32,61.05006105,5ebf3541fa0189324a7cf56b,60d9d14f4a8a35a482e0d9bf,60edf0a8df004ddbc9297f78,,,,,,,,,,,,
"[""period""]",0,[0.2980000000000018],90,0,90,0,1,5ebf3541fa0189324a7cf56b,Mężczyzna,24,2021-07-13_22h00.39.133,rantool2,2021.1.4,Win32,61.05006105,5ebf3541fa0189324a7cf56b,60d9d14f4a8a35a482e0d9bf,60edf0a8df004ddbc9297f78,,,,,,,,,,,,
"[""comma""]",0,[0.2470000000000141],91,0,91,0,1,5ebf3541fa0189324a7cf56b,Mężczyzna,24,2021-07-13_22h00.39.133,rantool2,2021.1.4,Win32,61.05006105,5ebf3541fa0189324a7cf56b,60d9d14f4a8a35a482e0d9bf,60edf0a8df004ddbc9297f78,,,,,,,,,,,,
"[""period""]",0,[0.3140000000000214],92,0,92,0,1,5ebf3541fa0189324a7cf56b,Mężczyzna,24,2021-07-13_22h00.39.133,rantool2,2021.1.4,Win32,61.05006105,5ebf3541fa0189324a7cf56b,60d9d14f4a8a35a482e0d9bf,60edf0a8df004ddbc9297f78,,,,,,,,,,,,
"[""period""]",0,[0.3509999999999991],93,0,93,0,1,5ebf3541fa0189324a7cf56b,Mężczyzna,24,2021-07-13_22h00.39.133,rantool2,2021.1.4,Win32,61.05006105,5ebf3541fa0189324a7cf56b,60d9d14f4a8a35a482e0d9bf,60edf0a8df004ddbc9297f78,,,,,,,,,,,,
"[""comma""]",0,[0.34400000000005093],94,0,94,0,1,5ebf3541fa0189324a7cf56b,Mężczyzna,24,2021-07-13_22h00.39.133,rantool2,2021.1.4,Win32,61.05006105,5ebf3541fa0189324a7cf56b,60d9d14f4a8a35a482e0d9bf,60edf0a8df004ddbc9297f78,,,,,,,,,,,,
"[""comma""]",0,[0.2839999999999918],95,0,95,0,1,5ebf3541fa0189324a7cf56b,Mężczyzna,24,2021-07-13_22h00.39.133,rantool2,2021.1.4,Win32,61.05006105,5ebf3541fa0189324a7cf56b,60d9d14f4a8a35a482e0d9bf,60edf0a8df004ddbc9297f78,,,,,,,,,,,,
"[""period""]",0,[0.3140000000000214],96,0,96,0,1,5ebf3541fa0189324a7cf56b,Mężczyzna,24,2021-07-13_22h00.39.133,rantool2,2021.1.4,Win32,61.05006105,5ebf3541fa0189324a7cf56b,60d9d14f4a8a35a482e0d9bf,60edf0a8df004ddbc9297f78,,,,,,,,,,,,
"[""period""]",0,[0.28199999999998226],97,0,97,0,1,5ebf3541fa0189324a7cf56b,Mężczyzna,24,2021-07-13_22h00.39.133,rantool2,2021.1.4,Win32,61.05006105,5ebf3541fa0189324a7cf56b,60d9d14f4a8a35a482e0d9bf,60edf0a8df004ddbc9297f78,,,,,,,,,,,,
"[""comma""]",0,[0.3170000000000073],98,0,98,0,1,5ebf3541fa0189324a7cf56b,Mężczyzna,24,2021-07-13_22h00.39.133,rantool2,2021.1.4,Win32,61.05006105,5ebf3541fa0189324a7cf56b,60d9d14f4a8a35a482e0d9bf,60edf0a8df004ddbc9297f78,,,,,,,,,,,,
"[""period""]",0,[0.3480000000000132],99,0,99,0,1,5ebf3541fa0189324a7cf56b,Mężczyzna,24,2021-07-13_22h00.39.133,rantool2,2021.1.4,Win32,61.05006105,5ebf3541fa0189324a7cf56b,60d9d14f4a8a35a482e0d9bf,60edf0a8df004ddbc9297f78,,,,,,,,,,,,
"[""period""]",0,[0.5109999999999673],100,0,100,0,1,5ebf3541fa0189324a7cf56b,Mężczyzna,24,2021-07-13_22h00.39.133,rantool2,2021.1.4,Win32,61.05006105,5ebf3541fa0189324a7cf56b,60d9d14f4a8a35a482e0d9bf,60edf0a8df004ddbc9297f78,,,,,,,,,,,,
"[""comma""]",0,[0.396000000000015],101,0,101,0,1,5ebf3541fa0189324a7cf56b,Mężczyzna,24,2021-07-13_22h00.39.133,rantool2,2021.1.4,Win32,61.05006105,5ebf3541fa0189324a7cf56b,60d9d14f4a8a35a482e0d9bf,60edf0a8df004ddbc9297f78,,,,,,,,,,,,
"[""comma""]",0,[0.31399999999996453],102,0,102,0,1,5ebf3541fa0189324a7cf56b,Mężczyzna,24,2021-07-13_22h00.39.133,rantool2,2021.1.4,Win32,61.05006105,5ebf3541fa0189324a7cf56b,60d9d14f4a8a35a482e0d9bf,60edf0a8df004ddbc9297f78,,,,,,,,,,,,
"[""comma""]",0,[0.3639999999999759],103,0,103,0,1,5ebf3541fa0189324a7cf56b,Mężczyzna,24,2021-07-13_22h00.39.133,rantool2,2021.1.4,Win32,61.05006105,5ebf3541fa0189324a7cf56b,60d9d14f4a8a35a482e0d9bf,60edf0a8df004ddbc9297f78,,,,,,,,,,,,
"[""period""]",0,[0.26900000000000546],104,0,104,0,1,5ebf3541fa0189324a7cf56b,Mężczyzna,24,2021-07-13_22h00.39.133,rantool2,2021.1.4,Win32,61.05006105,5ebf3541fa0189324a7cf56b,60d9d14f4a8a35a482e0d9bf,60edf0a8df004ddbc9297f78,,,,,,,,,,,,
"[""comma""]",0,[0.18500000000000227],105,0,105,0,1,5ebf3541fa0189324a7cf56b,Mężczyzna,24,2021-07-13_22h00.39.133,rantool2,2021.1.4,Win32,61.05006105,5ebf3541fa0189324a7cf56b,60d9d14f4a8a35a482e0d9bf,60edf0a8df004ddbc9297f78,,,,,,,,,,,,
"[""period""]",0,[0.2799999999999727],106,0,106,0,1,5ebf3541fa0189324a7cf56b,Mężczyzna,24,2021-07-13_22h00.39.133,rantool2,2021.1.4,Win32,61.05006105,5ebf3541fa0189324a7cf56b,60d9d14f4a8a35a482e0d9bf,60edf0a8df004ddbc9297f78,,,,,,,,,,,,
"[""period""]",0,[0.3299999999999841],107,0,107,0,1,5ebf3541fa0189324a7cf56b,Mężczyzna,24,2021-07-13_22h00.39.133,rantool2,2021.1.4,Win32,61.05006105,5ebf3541fa0189324a7cf56b,60d9d14f4a8a35a482e0d9bf,60edf0a8df004ddbc9297f78,,,,,,,,,,,,
"[""comma""]",0,[0.3140000000000214],108,0,108,0,1,5ebf3541fa0189324a7cf56b,Mężczyzna,24,2021-07-13_22h00.39.133,rantool2,2021.1.4,Win32,61.05006105,5ebf3541fa0189324a7cf56b,60d9d14f4a8a35a482e0d9bf,60edf0a8df004ddbc9297f78,,,,,,,,,,,,
"[""period""]",0,[0.24799999999999045],109,0,109,0,1,5ebf3541fa0189324a7cf56b,Mężczyzna,24,2021-07-13_22h00.39.133,rantool2,2021.1.4,Win32,61.05006105,5ebf3541fa0189324a7cf56b,60d9d14f4a8a35a482e0d9bf,60edf0a8df004ddbc9297f78,,,,,,,,,,,,
"[""period""]",0,[0.2650000000000432],110,0,110,0,1,5ebf3541fa0189324a7cf56b,Mężczyzna,24,2021-07-13_22h00.39.133,rantool2,2021.1.4,Win32,61.05006105,5ebf3541fa0189324a7cf56b,60d9d14f4a8a35a482e0d9bf,60edf0a8df004ddbc9297f78,,,,,,,,,,,,
"[""comma""]",0,[0.2699999999999818],111,0,111,0,1,5ebf3541fa0189324a7cf56b,Mężczyzna,24,2021-07-13_22h00.39.133,rantool2,2021.1.4,Win32,61.05006105,5ebf3541fa0189324a7cf56b,60d9d14f4a8a35a482e0d9bf,60edf0a8df004ddbc9297f78,,,,,,,,,,,,
"[""period""]",0,[0.30100000000004457],112,0,112,0,1,5ebf3541fa0189324a7cf56b,Mężczyzna,24,2021-07-13_22h00.39.133,rantool2,2021.1.4,Win32,61.05006105,5ebf3541fa0189324a7cf56b,60d9d14f4a8a35a482e0d9bf,60edf0a8df004ddbc9297f78,,,,,,,,,,,,
"[""period""]",0,[0.31699999999995043],113,0,113,0,1,5ebf3541fa0189324a7cf56b,Mężczyzna,24,2021-07-13_22h00.39.133,rantool2,2021.1.4,Win32,61.05006105,5ebf3541fa0189324a7cf56b,60d9d14f4a8a35a482e0d9bf,60edf0a8df004ddbc9297f78,,,,,,,,,,,,
"[""comma""]",0,[0.23200000000002774],114,0,114,0,1,5ebf3541fa0189324a7cf56b,Mężczyzna,24,2021-07-13_22h00.39.133,rantool2,2021.1.4,Win32,61.05006105,5ebf3541fa0189324a7cf56b,60d9d14f4a8a35a482e0d9bf,60edf0a8df004ddbc9297f78,,,,,,,,,,,,
"[""comma""]",0,[0.285000000000025],115,0,115,0,1,5ebf3541fa0189324a7cf56b,Mężczyzna,24,2021-07-13_22h00.39.133,rantool2,2021.1.4,Win32,61.05006105,5ebf3541fa0189324a7cf56b,60d9d14f4a8a35a482e0d9bf,60edf0a8df004ddbc9297f78,,,,,,,,,,,,
"[""period""]",0,[0.2659999999999627],116,0,116,0,1,5ebf3541fa0189324a7cf56b,Mężczyzna,24,2021-07-13_22h00.39.133,rantool2,2021.1.4,Win32,61.05006105,5ebf3541fa0189324a7cf56b,60d9d14f4a8a35a482e0d9bf,60edf0a8df004ddbc9297f78,,,,,,,,,,,,
"[""period""]",0,[0.2480000000000473],117,0,117,0,1,5ebf3541fa0189324a7cf56b,Mężczyzna,24,2021-07-13_22h00.39.133,rantool2,2021.1.4,Win32,61.05006105,5ebf3541fa0189324a7cf56b,60d9d14f4a8a35a482e0d9bf,60edf0a8df004ddbc9297f78,,,,,,,,,,,,
"[""comma""]",0,[0.25300000000004275],118,0,118,0,1,5ebf3541fa0189324a7cf56b,Mężczyzna,24,2021-07-13_22h00.39.133,rantool2,2021.1.4,Win32,61.05006105,5ebf3541fa0189324a7cf56b,60d9d14f4a8a35a482e0d9bf,60edf0a8df004ddbc9297f78,,,,,,,,,,,,
"[""period""]",0,[0.3299999999999841],119,0,119,0,1,5ebf3541fa0189324a7cf56b,Mężczyzna,24,2021-07-13_22h00.39.133,rantool2,2021.1.4,Win32,61.05006105,5ebf3541fa0189324a7cf56b,60d9d14f4a8a35a482e0d9bf,60edf0a8df004ddbc9297f78,,,,,,,,,,,,
,,,,,,,,5ebf3541fa0189324a7cf56b,Mężczyzna,24,2021-07-13_22h00.39.133,rantool2,2021.1.4,Win32,61.05006105,5ebf3541fa0189324a7cf56b,60d9d14f4a8a35a482e0d9bf,60edf0a8df004ddbc9297f78,j,1.126,0,0,0,52,1,RROROOO,RROROOR,22.18365867,22.11097995,series_0
,,,,,,,,5ebf3541fa0189324a7cf56b,Mężczyzna,24,2021-07-13_22h00.39.133,rantool2,2021.1.4,Win32,61.05006105,5ebf3541fa0189324a7cf56b,60d9d14f4a8a35a482e0d9bf,60edf0a8df004ddbc9297f78,j,1.364,0,1,1,2,1,OOOOROO,OOOOROR,20.43051175,21.02936224,series_1
,,,,,,,,5ebf3541fa0189324a7cf56b,Mężczyzna,24,2021-07-13_22h00.39.133,rantool2,2021.1.4,Win32,61.05006105,5ebf3541fa0189324a7cf56b,60d9d14f4a8a35a482e0d9bf,60edf0a8df004ddbc9297f78,j,1.417,0,2,2,12,1,OORROOO,OORROOR,21.30250474,22.02786418,series_1
,,,,,,,,5ebf3541fa0189324a7cf56b,Mężczyzna,24,2021-07-13_22h00.39.133,rantool2,2021.1.4,Win32,61.05006105,5ebf3541fa0189324a7cf56b,60d9d14f4a8a35a482e0d9bf,60edf0a8df004ddbc9297f78,f,1.353,0,3,3,3,1,OOOORRO,OOOORRR,20.90986523,21.74922619,series_1
,,,,,,,,5ebf3541fa0189324a7cf56b,Mężczyzna,24,2021-07-13_22h00.39.133,rantool2,2021.1.4,Win32,61.05006105,5ebf3541fa0189324a7cf56b,60d9d14f4a8a35a482e0d9bf,60edf0a8df004ddbc9297f78,f,1.302,0,4,4,23,1,ORORRRO,ORORRRR,22.1285618,21.9921709,series_0
,,,,,,,,5ebf3541fa0189324a7cf56b,Mężczyzna,24,2021-07-13_22h00.39.133,rantool2,2021.1.4,Win32,61.05006105,5ebf3541fa0189324a7cf56b,60d9d14f4a8a35a482e0d9bf,60edf0a8df004ddbc9297f78,f,1.202,0,5,5,53,1,RRORORO,RRORORR,20.71309134,21.90565814,series_1
,,,,,,,,5ebf3541fa0189324a7cf56b,Mężczyzna,24,2021-07-13_22h00.39.133,rantool2,2021.1.4,Win32,61.05006105,5ebf3541fa0189324a7cf56b,60d9d14f4a8a35a482e0d9bf,60edf0a8df004ddbc9297f78,j,1.055,0,6,6,57,1,RRROORO,RRROORR,21.82425538,22.07102821,series_1
,,,,,,,,5ebf3541fa0189324a7cf56b,Mężczyzna,24,2021-07-13_22h00.39.133,rantool2,2021.1.4,Win32,61.05006105,5ebf3541fa0189324a7cf56b,60d9d14f4a8a35a482e0d9bf,60edf0a8df004ddbc9297f78,j,1.059,0,7,7,30,1,ORRRROO,ORRRROR,22.46748491,22.03072203,series_0
,,,,,,,,5ebf3541fa0189324a7cf56b,Mężczyzna,24,2021-07-13_22h00.39.133,rantool2,2021.1.4,Win32,61.05006105,5ebf3541fa0189324a7cf56b,60d9d14f4a8a35a482e0d9bf,60edf0a8df004ddbc9297f78,f,1.12,0,8,8,6,1,OOORROO,OOORROR,21.12383932,21.38562617,series_1
,,,,,,,,5ebf3541fa0189324a7cf56b,Mężczyzna,24,2021-07-13_22h00.39.133,rantool2,2021.1.4,Win32,61.05006105,5ebf3541fa0189324a7cf56b,60d9d14f4a8a35a482e0d9bf,60edf0a8df004ddbc9297f78,f,1.087,0,9,9,37,1,ROORORO,ROORORR,20.42602454,21.57657071,series_1
,,,,,,,,5ebf3541fa0189324a7cf56b,Mężczyzna,24,2021-07-13_22h00.39.133,rantool2,2021.1.4,Win32,61.05006105,5ebf3541fa0189324a7cf56b,60d9d14f4a8a35a482e0d9bf,60edf0a8df004ddbc9297f78,j,1.289,0,10,10,56,1,RRROOOO,RRROOOR,21.6194508,22.31681875,series_1
,,,,,,,,5ebf3541fa0189324a7cf56b,Mężczyzna,24,2021-07-13_22h00.39.133,rantool2,2021.1.4,Win32,61.05006105,5ebf3541fa0189324a7cf56b,60d9d14f4a8a35a482e0d9bf,60edf0a8df004ddbc9297f78,f,1.219,0,11,11,31,1,ORRRRRO,ORRRRRR,22.16413392,20.74050628,series_0
,,,,,,,,5ebf3541fa0189324a7cf56b,Mężczyzna,24,2021-07-13_22h00.39.133,rantool2,2021.1.4,Win32,61.05006105,5ebf3541fa0189324a7cf56b,60d9d14f4a8a35a482e0d9bf,60edf0a8df004ddbc9297f78,j,1.204,0,12,12,63,1,RRRRRRO,RRRRRRR,21.35278725,19.62521613,series_0
,,,,,,,,5ebf3541fa0189324a7cf56b,Mężczyzna,24,2021-07-13_22h00.39.133,rantool2,2021.1.4,Win32,61.05006105,5ebf3541fa0189324a7cf56b,60d9d14f4a8a35a482e0d9bf,60edf0a8df004ddbc9297f78,f,1.679,0,13,13,4,1,OOOROOO,OOOROOR,19.91402015,21.21223021,series_1
,,,,,,,,5ebf3541fa0189324a7cf56b,Mężczyzna,24,2021-07-13_22h00.39.133,rantool2,2021.1.4,Win32,61.05006105,5ebf3541fa0189324a7cf56b,60d9d14f4a8a35a482e0d9bf,60edf0a8df004ddbc9297f78,j,1.318,0,14,14,10,1,OOROROO,OOROROR,21.31236711,21.07490964,series_0
,,,,,,,,5ebf3541fa0189324a7cf56b,Mężczyzna,24,2021-07-13_22h00.39.133,rantool2,2021.1.4,Win32,61.05006105,5ebf3541fa0189324a7cf56b,60d9d14f4a8a35a482e0d9bf,60edf0a8df004ddbc9297f78,f,1.551,0,15,15,7,1,OOORRRO,OOORRRR,21.6194508,21.899017,series_1
,,,,,,,,5ebf3541fa0189324a7cf56b,Mężczyzna,24,2021-07-13_22h00.39.133,rantool2,2021.1.4,Win32,61.05006105,5ebf3541fa0189324a7cf56b,60d9d14f4a8a35a482e0d9bf,60edf0a8df004ddbc9297f78,j,1.285,0,16,16,5,1,OOORORO,OOORORR,20.87963819,21.9921709,series_1
,,,,,,,,5ebf3541fa0189324a7cf56b,Mężczyzna,24,2021-07-13_22h00.39.133,rantool2,2021.1.4,Win32,61.05006105,5ebf3541fa0189324a7cf56b,60d9d14f4a8a35a482e0d9bf,60edf0a8df004ddbc9297f78,f,1.581,0,17,17,50,1,RROOROO,RROOROR,21.73568164,22.02566557,series_1
,,,,,,,,5ebf3541fa0189324a7cf56b,Mężczyzna,24,2021-07-13_22h00.39.133,rantool2,2021.1.4,Win32,61.05006105,5ebf3541fa0189324a7cf56b,60d9d14f4a8a35a482e0d9bf,60edf0a8df004ddbc9297f78,j,1.204,0,18,18,17,1,OROOORO,OROOORR,21.03750787,22.12173012,series_1
,,,,,,,,5ebf3541fa0189324a7cf56b,Mężczyzna,24,2021-07-13_22h00.39.133,rantool2,2021.1.4,Win32,61.05006105,5ebf3541fa0189324a7cf56b,60d9d14f4a8a35a482e0d9bf,60edf0a8df004ddbc9297f78,f,1.45,0,19,19,45,1,RORRORO,RORRORR,20.78182524,21.22513037,series_1
,,,,,,,,5ebf3541fa0189324a7cf56b,Mężczyzna,24,2021-07-13_22h00.39.133,rantool2,2021.1.4,Win32,61.05006105,5ebf3541fa0189324a7cf56b,60d9d14f4a8a35a482e0d9bf,60edf0a8df004ddbc9297f78,j,1.52,0,20,20,38,1,ROORROO,ROORROR,21.79500819,21.36812781,series_0
,,,,,,,,5ebf3541fa0189324a7cf56b,Mężczyzna,24,2021-07-13_22h00.39.133,rantool2,2021.1.4,Win32,61.05006105,5ebf3541fa0189324a7cf56b,60d9d14f4a8a35a482e0d9bf,60edf0a8df004ddbc9297f78,j,1.255,0,21,21,40,1,ROROOOO,ROROOOR,20.87963819,21.37121559,series_1
,,,,,,,,5ebf3541fa0189324a7cf56b,Mężczyzna,24,2021-07-13_22h00.39.133,rantool2,2021.1.4,Win32,61.05006105,5ebf3541fa0189324a7cf56b,60d9d14f4a8a35a482e0d9bf,60edf0a8df004ddbc9297f78,f,1.219,0,22,22,39,1,ROORRRO,ROORRRR,21.82425538,21.38562617,series_0
,,,,,,,,5ebf3541fa0189324a7cf56b,Mężczyzna,24,2021-07-13_22h00.39.133,rantool2,2021.1.4,Win32,61.05006105,5ebf3541fa0189324a7cf56b,60d9d14f4a8a35a482e0d9bf,60edf0a8df004ddbc9297f78,f,1.269,0,23,23,13,1,OORRORO,OORRORR,21.66733484,22.11181017,series_1
,,,,,,,,5ebf3541fa0189324a7cf56b,Mężczyzna,24,2021-07-13_22h00.39.133,rantool2,2021.1.4,Win32,61.05006105,5ebf3541fa0189324a7cf56b,60d9d14f4a8a35a482e0d9bf,60edf0a8df004ddbc9297f78,f,1.17,0,24,24,55,1,RRORRRO,RRORRRR,21.56657303,21.21223021,series_0
,,,,,,,,5ebf3541fa0189324a7cf56b,Mężczyzna,24,2021-07-13_22h00.39.133,rantool2,2021.1.4,Win32,61.05006105,5ebf3541fa0189324a7cf56b,60d9d14f4a8a35a482e0d9bf,60edf0a8df004ddbc9297f78,f,1.75,0,25,25,43,1,RORORRO,RORORRR,20.71309134,21.07490964,series_1
,,,,,,,,5ebf3541fa0189324a7cf56b,Mężczyzna,24,2021-07-13_22h00.39.133,rantool2,2021.1.4,Win32,61.05006105,5ebf3541fa0189324a7cf56b,60d9d14f4a8a35a482e0d9bf,60edf0a8df004ddbc9297f78,j,1.225,0,26,26,24,1,ORROOOO,ORROOOR,21.12383932,22.07102821,series_1
,,,,,,,,5ebf3541fa0189324a7cf56b,Mężczyzna,24,2021-07-13_22h00.39.133,rantool2,2021.1.4,Win32,61.05006105,5ebf3541fa0189324a7cf56b,60d9d14f4a8a35a482e0d9bf,60edf0a8df004ddbc9297f78,f,1.6,0,27,27,54,1,RRORROO,RRORROR,21.55250791,20.9984461,series_0
,,,,,,,,5ebf3541fa0189324a7cf56b,Mężczyzna,24,2021-07-13_22h00.39.133,rantool2,2021.1.4,Win32,61.05006105,5ebf3541fa0189324a7cf56b,60d9d14f4a8a35a482e0d9bf,60edf0a8df004ddbc9297f78,j,1.202,0,28,28,48,1,RROOOOO,RROOOOR,20.90986523,22.15934078,series_1
,,,,,,,,5ebf3541fa0189324a7cf56b,Mężczyzna,24,2021-07-13_22h00.39.133,rantool2,2021.1.4,Win32,61.05006105,5ebf3541fa0189324a7cf56b,60d9d14f4a8a35a482e0d9bf,60edf0a8df004ddbc9297f78,f,1.282,0,29,29,33,1,ROOOORO,ROOOORR,20.83779602,22.03072203,series_1
,,,,,,,,5ebf3541fa0189324a7cf56b,Mężczyzna,24,2021-07-13_22h00.39.133,rantool2,2021.1.4,Win32,61.05006105,5ebf3541fa0189324a7cf56b,60d9d14f4a8a35a482e0d9bf,60edf0a8df004ddbc9297f78,j,1.483,0,30,30,15,1,OORRRRO,OORRRRR,22.10108823,21.74922619,series_0
,,,,,,,,5ebf3541fa0189324a7cf56b,Mężczyzna,24,2021-07-13_22h00.39.133,rantool2,2021.1.4,Win32,61.05006105,5ebf3541fa0189324a7cf56b,60d9d14f4a8a35a482e0d9bf,60edf0a8df004ddbc9297f78,f,1.123,0,31,31,35,1,ROOORRO,ROOORRR,21.76276513,22.16977179,series_1
,,,,,,,,5ebf3541fa0189324a7cf56b,Mężczyzna,24,2021-07-13_22h00.39.133,rantool2,2021.1.4,Win32,61.05006105,5ebf3541fa0189324a7cf56b,60d9d14f4a8a35a482e0d9bf,60edf0a8df004ddbc9297f78,j,1.317,0,32,32,41,1,ROROORO,ROROORR,20.42602454,21.71443381,series_1
,,,,,,,,5ebf3541fa0189324a7cf56b,Mężczyzna,24,2021-07-13_22h00.39.133,rantool2,2021.1.4,Win32,61.05006105,5ebf3541fa0189324a7cf56b,60d9d14f4a8a35a482e0d9bf,60edf0a8df004ddbc9297f78,f,1.154,0,33,33,59,1,RRRORRO,RRRORRR,21.56657303,20.89823192,series_0
,,,,,,,,5ebf3541fa0189324a7cf56b,Mężczyzna,24,2021-07-13_22h00.39.133,rantool2,2021.1.4,Win32,61.05006105,5ebf3541fa0189324a7cf56b,60d9d14f4a8a35a482e0d9bf,60edf0a8df004ddbc9297f78,j,1.588,0,34,34,19,1,OROORRO,OROORRR,21.73568164,22.11181017,series_1
,,,,,,,,5ebf3541fa0189324a7cf56b,Mężczyzna,24,2021-07-13_22h00.39.133,rantool2,2021.1.4,Win32,61.05006105,5ebf3541fa0189324a7cf56b,60d9d14f4a8a35a482e0d9bf,60edf0a8df004ddbc9297f78,f,1.071,0,35,35,14,1,OORRROO,OORRROR,22.24142883,22.16977179,series_0
,,,,,,,,5ebf3541fa0189324a7cf56b,Mężczyzna,24,2021-07-13_22h00.39.133,rantool2,2021.1.4,Win32,61.05006105,5ebf3541fa0189324a7cf56b,60d9d14f4a8a35a482e0d9bf,60edf0a8df004ddbc9297f78,j,1.449,0,36,36,16,1,OROOOOO,OROOOOR,20.43051175,21.17347734,series_1
,,,,,,,,5ebf3541fa0189324a7cf56b,Mężczyzna,24,2021-07-13_22h00.39.133,rantool2,2021.1.4,Win32,61.05006105,5ebf3541fa0189324a7cf56b,60d9d14f4a8a35a482e0d9bf,60edf0a8df004ddbc9297f78,j,1.664,0,37,37,47,1,RORRRRO,RORRRRR,21.81333602,21.02936224,series_0
,,,,,,,,5ebf3541fa0189324a7cf56b,Mężczyzna,24,2021-07-13_22h00.39.133,rantool2,2021.1.4,Win32,61.05006105,5ebf3541fa0189324a7cf56b,60d9d14f4a8a35a482e0d9bf,60edf0a8df004ddbc9297f78,f,1.455,0,38,38,60,1,RRRROOO,RRRROOR,22.10108823,22.15934078,series_1
,,,,,,,,5ebf3541fa0189324a7cf56b,Mężczyzna,24,2021-07-13_22h00.39.133,rantool2,2021.1.4,Win32,61.05006105,5ebf3541fa0189324a7cf56b,60d9d14f4a8a35a482e0d9bf,60edf0a8df004ddbc9297f78,j,1.336,0,39,39,1,1,OOOOORO,OOOOORR,19.92253567,20.74050628,series_1
,,,,,,,,5ebf3541fa0189324a7cf56b,Mężczyzna,24,2021-07-13_22h00.39.133,rantool2,2021.1.4,Win32,61.05006105,5ebf3541fa0189324a7cf56b,60d9d14f4a8a35a482e0d9bf,60edf0a8df004ddbc9297f78,f,0.826,0,40,40,46,1,RORRROO,RORRROR,22.00300695,21.24781509,series_0
,,,,,,,,5ebf3541fa0189324a7cf56b,Mężczyzna,24,2021-07-13_22h00.39.133,rantool2,2021.1.4,Win32,61.05006105,5ebf3541fa0189324a7cf56b,60d9d14f4a8a35a482e0d9bf,60edf0a8df004ddbc9297f78,f,1.236,0,41,41,21,1,ORORORO,ORORORR,20.39515459,22.06781359,series_1
,,,,,,,,5ebf3541fa0189324a7cf56b,Mężczyzna,24,2021-07-13_22h00.39.133,rantool2,2021.1.4,Win32,61.05006105,5ebf3541fa0189324a7cf56b,60d9d14f4a8a35a482e0d9bf,60edf0a8df004ddbc9297f78,j,0.977,0,42,42,18,1,OROOROO,OROOROR,20.84860893,21.22513037,series_1
,,,,,,,,5ebf3541fa0189324a7cf56b,Mężczyzna,24,2021-07-13_22h00.39.133,rantool2,2021.1.4,Win32,61.05006105,5ebf3541fa0189324a7cf56b,60d9d14f4a8a35a482e0d9bf,60edf0a8df004ddbc9297f78,j,1.022,0,43,43,11,1,OORORRO,OORORRR,22.18365867,22.6797523,series_1
,,,,,,,,5ebf3541fa0189324a7cf56b,Mężczyzna,24,2021-07-13_22h00.39.133,rantool2,2021.1.4,Win32,61.05006105,5ebf3541fa0189324a7cf56b,60d9d14f4a8a35a482e0d9bf,60edf0a8df004ddbc9297f78,f,1.415,0,44,44,29,1,ORRRORO,ORRRORR,22.00300695,22.12173012,series_1
,,,,,,,,5ebf3541fa0189324a7cf56b,Mężczyzna,24,2021-07-13_22h00.39.133,rantool2,2021.1.4,Win32,61.05006105,5ebf3541fa0189324a7cf56b,60d9d14f4a8a35a482e0d9bf,60edf0a8df004ddbc9297f78,f,0.89,0,45,45,26,1,ORROROO,ORROROR,22.02732763,21.71443381,series_0
,,,,,,,,5ebf3541fa0189324a7cf56b,Mężczyzna,24,2021-07-13_22h00.39.133,rantool2,2021.1.4,Win32,61.05006105,5ebf3541fa0189324a7cf56b,60d9d14f4a8a35a482e0d9bf,60edf0a8df004ddbc9297f78,j,1.325,0,46,46,28,1,ORRROOO,ORRROOR,22.24142883,22.53364006,series_1
,,,,,,,,5ebf3541fa0189324a7cf56b,Mężczyzna,24,2021-07-13_22h00.39.133,rantool2,2021.1.4,Win32,61.05006105,5ebf3541fa0189324a7cf56b,60d9d14f4a8a35a482e0d9bf,60edf0a8df004ddbc9297f78,j,1.185,0,47,47,32,1,ROOOOOO,ROOOOOR,19.92253567,21.27974287,series_1
,,,,,,,,5ebf3541fa0189324a7cf56b,Mężczyzna,24,2021-07-13_22h00.39.133,rantool2,2021.1.4,Win32,61.05006105,5ebf3541fa0189324a7cf56b,60d9d14f4a8a35a482e0d9bf,60edf0a8df004ddbc9297f78,f,1.357,0,48,48,25,1,ORROORO,ORROORR,21.79500819,22.61624387,series_1
,,,,,,,,5ebf3541fa0189324a7cf56b,Mężczyzna,24,2021-07-13_22h00.39.133,rantool2,2021.1.4,Win32,61.05006105,5ebf3541fa0189324a7cf56b,60d9d14f4a8a35a482e0d9bf,60edf0a8df004ddbc9297f78,f,1.914,0,49,49,0,1,OOOOOOO,OOOOOOR,18.52739004,19.62521613,series_1
,,,,,,,,5ebf3541fa0189324a7cf56b,Mężczyzna,24,2021-07-13_22h00.39.133,rantool2,2021.1.4,Win32,61.05006105,5ebf3541fa0189324a7cf56b,60d9d14f4a8a35a482e0d9bf,60edf0a8df004ddbc9297f78,j,1.519,0,50,50,58,1,RRROROO,RRROROR,22.1285618,21.37121559,series_0
,,,,,,,,5ebf3541fa0189324a7cf56b,Mężczyzna,24,2021-07-13_22h00.39.133,rantool2,2021.1.4,Win32,61.05006105,5ebf3541fa0189324a7cf56b,60d9d14f4a8a35a482e0d9bf,60edf0a8df004ddbc9297f78,j,1.546,0,51,51,62,1,RRRRROO,RRRRROR,22.16413392,21.27974287,series_0
,,,,,,,,5ebf3541fa0189324a7cf56b,Mężczyzna,24,2021-07-13_22h00.39.133,rantool2,2021.1.4,Win32,61.05006105,5ebf3541fa0189324a7cf56b,60d9d14f4a8a35a482e0d9bf,60edf0a8df004ddbc9297f78,j,1.779,0,52,52,44,1,RORROOO,RORROOR,21.66733484,22.02566557,series_1
,,,,,,,,5ebf3541fa0189324a7cf56b,Mężczyzna,24,2021-07-13_22h00.39.133,rantool2,2021.1.4,Win32,61.05006105,5ebf3541fa0189324a7cf56b,60d9d14f4a8a35a482e0d9bf,60edf0a8df004ddbc9297f78,f,1.649,0,53,53,8,1,OOROOOO,OOROOOR,19.91402015,20.89823192,series_1
,,,,,,,,5ebf3541fa0189324a7cf56b,Mężczyzna,24,2021-07-13_22h00.39.133,rantool2,2021.1.4,Win32,61.05006105,5ebf3541fa0189324a7cf56b,60d9d14f4a8a35a482e0d9bf,60edf0a8df004ddbc9297f78,j,1.351,0,54,54,22,1,ORORROO,ORORROR,22.02732763,21.57657071,series_0
,,,,,,,,5ebf3541fa0189324a7cf56b,Mężczyzna,24,2021-07-13_22h00.39.133,rantool2,2021.1.4,Win32,61.05006105,5ebf3541fa0189324a7cf56b,60d9d14f4a8a35a482e0d9bf,60edf0a8df004ddbc9297f78,f,1.451,0,55,55,61,1,RRRRORO,RRRRORR,21.81333602,21.17347734,series_0
,,,,,,,,5ebf3541fa0189324a7cf56b,Mężczyzna,24,2021-07-13_22h00.39.133,rantool2,2021.1.4,Win32,61.05006105,5ebf3541fa0189324a7cf56b,60d9d14f4a8a35a482e0d9bf,60edf0a8df004ddbc9297f78,j,1.618,0,56,56,9,1,OOROORO,OOROORR,21.07991943,22.2428857,series_1
,,,,,,,,5ebf3541fa0189324a7cf56b,Mężczyzna,24,2021-07-13_22h00.39.133,rantool2,2021.1.4,Win32,61.05006105,5ebf3541fa0189324a7cf56b,60d9d14f4a8a35a482e0d9bf,60edf0a8df004ddbc9297f78,f,0.97,0,57,57,42,1,ROROROO,ROROROR,20.39515459,19.8361834,series_0
,,,,,,,,5ebf3541fa0189324a7cf56b,Mężczyzna,24,2021-07-13_22h00.39.133,rantool2,2021.1.4,Win32,61.05006105,5ebf3541fa0189324a7cf56b,60d9d14f4a8a35a482e0d9bf,60edf0a8df004ddbc9297f78,j,1.203,0,58,58,49,1,RROOORO,RROOORR,21.76276513,22.53364006,series_1
,,,,,,,,5ebf3541fa0189324a7cf56b,Mężczyzna,24,2021-07-13_22h00.39.133,rantool2,2021.1.4,Win32,61.05006105,5ebf3541fa0189324a7cf56b,60d9d14f4a8a35a482e0d9bf,60edf0a8df004ddbc9297f78,f,0.808,0,59,59,51,1,RROORRO,RROORRR,21.89852628,22.02786418,series_1
,,,,,,,,5ebf3541fa0189324a7cf56b,Mężczyzna,24,2021-07-13_22h00.39.133,rantool2,2021.1.4,Win32,61.05006105,5ebf3541fa0189324a7cf56b,60d9d14f4a8a35a482e0d9bf,60edf0a8df004ddbc9297f78,f,1.499,0,60,60,27,1,ORRORRO,ORRORRR,21.55250791,22.2428857,series_1
,,,,,,,,5ebf3541fa0189324a7cf56b,Mężczyzna,24,2021-07-13_22h00.39.133,rantool2,2021.1.4,Win32,61.05006105,5ebf3541fa0189324a7cf56b,60d9d14f4a8a35a482e0d9bf,60edf0a8df004ddbc9297f78,f,1.63,0,61,61,20,1,OROROOO,OROROOR,21.31236711,21.90565814,series_1
,,,,,,,,5ebf3541fa0189324a7cf56b,Mężczyzna,24,2021-07-13_22h00.39.133,rantool2,2021.1.4,Win32,61.05006105,5ebf3541fa0189324a7cf56b,60d9d14f4a8a35a482e0d9bf,60edf0a8df004ddbc9297f78,j,0.971,0,62,62,36,1,ROOROOO,ROOROOR,21.07991943,20.9984461,series_0
,,,,,,,,5ebf3541fa0189324a7cf56b,Mężczyzna,24,2021-07-13_22h00.39.133,rantool2,2021.1.4,Win32,61.05006105,5ebf3541fa0189324a7cf56b,60d9d14f4a8a35a482e0d9bf,60edf0a8df004ddbc9297f78,j,1.268,0,63,63,34,1,ROOOROO,ROOOROR,21.03750787,21.24781509,series_1
