key_resp_7.keys,key_resp_7.rt,trials_2.thisRepN,trials_2.thisTrialN,trials_2.thisN,trials_2.thisIndex,trials_2.ran,id,series_0,series_1,acss_0,acss_1,comparison,id*,Płeć*,Wiek*,date,expName,psychopyVersion,OS,frameRate,STUDY_ID,SESSION_ID,key_resp_5.keys,key_resp_5.corr,key_resp_5.rt,trials.thisRepN,trials.thisTrialN,trials.thisN,trials.thisIndex,trials.ran
f,1.5525,0,0,0,16,1,613229bba721180fd40080bc,OROOOOO,OROOOOR,20.43051175,21.17347734,series_1,613229bba721180fd40080bc,Kobieta,19,2021-09-06_19h11.48.158,rantool2,2021.1.4,MacIntel,60.0024001,6135e006383e6ea6c3d06a28,61364bae1e7492055d541781,,,,,,,,
j,0.4856,0,1,1,35,1,613229bba721180fd40080bc,ROOORRO,ROOORRR,21.76276513,22.16977179,series_1,613229bba721180fd40080bc,Kobieta,19,2021-09-06_19h11.48.158,rantool2,2021.1.4,MacIntel,60.0024001,6135e006383e6ea6c3d06a28,61364bae1e7492055d541781,,,,,,,,
f,0.3893,0,2,2,27,1,613229bba721180fd40080bc,ORRORRO,ORRORRR,21.55250791,22.2428857,series_1,613229bba721180fd40080bc,Kobieta,19,2021-09-06_19h11.48.158,rantool2,2021.1.4,MacIntel,60.0024001,6135e006383e6ea6c3d06a28,61364bae1e7492055d541781,,,,,,,,
j,0.3646,0,3,3,59,1,613229bba721180fd40080bc,RRRORRO,RRRORRR,21.56657303,20.89823192,series_0,613229bba721180fd40080bc,Kobieta,19,2021-09-06_19h11.48.158,rantool2,2021.1.4,MacIntel,60.0024001,6135e006383e6ea6c3d06a28,61364bae1e7492055d541781,,,,,,,,
f,0.2606,0,4,4,10,1,613229bba721180fd40080bc,OOROROO,OOROROR,21.31236711,21.07490964,series_0,613229bba721180fd40080bc,Kobieta,19,2021-09-06_19h11.48.158,rantool2,2021.1.4,MacIntel,60.0024001,6135e006383e6ea6c3d06a28,61364bae1e7492055d541781,,,,,,,,
j,0.1475,0,5,5,62,1,613229bba721180fd40080bc,RRRRROO,RRRRROR,22.16413392,21.27974287,series_0,613229bba721180fd40080bc,Kobieta,19,2021-09-06_19h11.48.158,rantool2,2021.1.4,MacIntel,60.0024001,6135e006383e6ea6c3d06a28,61364bae1e7492055d541781,,,,,,,,
f,0.193,0,6,6,32,1,613229bba721180fd40080bc,ROOOOOO,ROOOOOR,19.92253567,21.27974287,series_1,613229bba721180fd40080bc,Kobieta,19,2021-09-06_19h11.48.158,rantool2,2021.1.4,MacIntel,60.0024001,6135e006383e6ea6c3d06a28,61364bae1e7492055d541781,,,,,,,,
j,0.1792,0,7,7,7,1,613229bba721180fd40080bc,OOORRRO,OOORRRR,21.6194508,21.899017,series_1,613229bba721180fd40080bc,Kobieta,19,2021-09-06_19h11.48.158,rantool2,2021.1.4,MacIntel,60.0024001,6135e006383e6ea6c3d06a28,61364bae1e7492055d541781,,,,,,,,
f,0.1348,0,8,8,40,1,613229bba721180fd40080bc,ROROOOO,ROROOOR,20.87963819,21.37121559,series_1,613229bba721180fd40080bc,Kobieta,19,2021-09-06_19h11.48.158,rantool2,2021.1.4,MacIntel,60.0024001,6135e006383e6ea6c3d06a28,61364bae1e7492055d541781,,,,,,,,
j,0.1869,0,9,9,39,1,613229bba721180fd40080bc,ROORRRO,ROORRRR,21.82425538,21.38562617,series_0,613229bba721180fd40080bc,Kobieta,19,2021-09-06_19h11.48.158,rantool2,2021.1.4,MacIntel,60.0024001,6135e006383e6ea6c3d06a28,61364bae1e7492055d541781,,,,,,,,
j,0.1886,0,10,10,24,1,613229bba721180fd40080bc,ORROOOO,ORROOOR,21.12383932,22.07102821,series_1,613229bba721180fd40080bc,Kobieta,19,2021-09-06_19h11.48.158,rantool2,2021.1.4,MacIntel,60.0024001,6135e006383e6ea6c3d06a28,61364bae1e7492055d541781,,,,,,,,
j,0.1459,0,11,11,56,1,613229bba721180fd40080bc,RRROOOO,RRROOOR,21.6194508,22.31681875,series_1,613229bba721180fd40080bc,Kobieta,19,2021-09-06_19h11.48.158,rantool2,2021.1.4,MacIntel,60.0024001,6135e006383e6ea6c3d06a28,61364bae1e7492055d541781,,,,,,,,
j,0.1783,0,12,12,38,1,613229bba721180fd40080bc,ROORROO,ROORROR,21.79500819,21.36812781,series_0,613229bba721180fd40080bc,Kobieta,19,2021-09-06_19h11.48.158,rantool2,2021.1.4,MacIntel,60.0024001,6135e006383e6ea6c3d06a28,61364bae1e7492055d541781,,,,,,,,
j,0.1207,0,13,13,53,1,613229bba721180fd40080bc,RRORORO,RRORORR,20.71309134,21.90565814,series_1,613229bba721180fd40080bc,Kobieta,19,2021-09-06_19h11.48.158,rantool2,2021.1.4,MacIntel,60.0024001,6135e006383e6ea6c3d06a28,61364bae1e7492055d541781,,,,,,,,
j,0.1787,0,14,14,0,1,613229bba721180fd40080bc,OOOOOOO,OOOOOOR,18.52739004,19.62521613,series_1,613229bba721180fd40080bc,Kobieta,19,2021-09-06_19h11.48.158,rantool2,2021.1.4,MacIntel,60.0024001,6135e006383e6ea6c3d06a28,61364bae1e7492055d541781,,,,,,,,
j,0.1868,0,15,15,12,1,613229bba721180fd40080bc,OORROOO,OORROOR,21.30250474,22.02786418,series_1,613229bba721180fd40080bc,Kobieta,19,2021-09-06_19h11.48.158,rantool2,2021.1.4,MacIntel,60.0024001,6135e006383e6ea6c3d06a28,61364bae1e7492055d541781,,,,,,,,
f,0.1787,0,16,16,33,1,613229bba721180fd40080bc,ROOOORO,ROOOORR,20.83779602,22.03072203,series_1,613229bba721180fd40080bc,Kobieta,19,2021-09-06_19h11.48.158,rantool2,2021.1.4,MacIntel,60.0024001,6135e006383e6ea6c3d06a28,61364bae1e7492055d541781,,,,,,,,
j,0.286,0,17,17,20,1,613229bba721180fd40080bc,OROROOO,OROROOR,21.31236711,21.90565814,series_1,613229bba721180fd40080bc,Kobieta,19,2021-09-06_19h11.48.158,rantool2,2021.1.4,MacIntel,60.0024001,6135e006383e6ea6c3d06a28,61364bae1e7492055d541781,,,,,,,,
j,0.106,0,18,18,18,1,613229bba721180fd40080bc,OROOROO,OROOROR,20.84860893,21.22513037,series_1,613229bba721180fd40080bc,Kobieta,19,2021-09-06_19h11.48.158,rantool2,2021.1.4,MacIntel,60.0024001,6135e006383e6ea6c3d06a28,61364bae1e7492055d541781,,,,,,,,
f,0.1713,0,19,19,60,1,613229bba721180fd40080bc,RRRROOO,RRRROOR,22.10108823,22.15934078,series_1,613229bba721180fd40080bc,Kobieta,19,2021-09-06_19h11.48.158,rantool2,2021.1.4,MacIntel,60.0024001,6135e006383e6ea6c3d06a28,61364bae1e7492055d541781,,,,,,,,
j,0.2253,0,20,20,47,1,613229bba721180fd40080bc,RORRRRO,RORRRRR,21.81333602,21.02936224,series_0,613229bba721180fd40080bc,Kobieta,19,2021-09-06_19h11.48.158,rantool2,2021.1.4,MacIntel,60.0024001,6135e006383e6ea6c3d06a28,61364bae1e7492055d541781,,,,,,,,
j,0.1819,0,21,21,52,1,613229bba721180fd40080bc,RROROOO,RROROOR,22.18365867,22.11097995,series_0,613229bba721180fd40080bc,Kobieta,19,2021-09-06_19h11.48.158,rantool2,2021.1.4,MacIntel,60.0024001,6135e006383e6ea6c3d06a28,61364bae1e7492055d541781,,,,,,,,
j,0.146,0,22,22,43,1,613229bba721180fd40080bc,RORORRO,RORORRR,20.71309134,21.07490964,series_1,613229bba721180fd40080bc,Kobieta,19,2021-09-06_19h11.48.158,rantool2,2021.1.4,MacIntel,60.0024001,6135e006383e6ea6c3d06a28,61364bae1e7492055d541781,,,,,,,,
f,0.1995,0,23,23,25,1,613229bba721180fd40080bc,ORROORO,ORROORR,21.79500819,22.61624387,series_1,613229bba721180fd40080bc,Kobieta,19,2021-09-06_19h11.48.158,rantool2,2021.1.4,MacIntel,60.0024001,6135e006383e6ea6c3d06a28,61364bae1e7492055d541781,,,,,,,,
f,0.2136,0,24,24,5,1,613229bba721180fd40080bc,OOORORO,OOORORR,20.87963819,21.9921709,series_1,613229bba721180fd40080bc,Kobieta,19,2021-09-06_19h11.48.158,rantool2,2021.1.4,MacIntel,60.0024001,6135e006383e6ea6c3d06a28,61364bae1e7492055d541781,,,,,,,,
f,0.1378,0,25,25,48,1,613229bba721180fd40080bc,RROOOOO,RROOOOR,20.90986523,22.15934078,series_1,613229bba721180fd40080bc,Kobieta,19,2021-09-06_19h11.48.158,rantool2,2021.1.4,MacIntel,60.0024001,6135e006383e6ea6c3d06a28,61364bae1e7492055d541781,,,,,,,,
j,0.1338,0,26,26,29,1,613229bba721180fd40080bc,ORRRORO,ORRRORR,22.00300695,22.12173012,series_1,613229bba721180fd40080bc,Kobieta,19,2021-09-06_19h11.48.158,rantool2,2021.1.4,MacIntel,60.0024001,6135e006383e6ea6c3d06a28,61364bae1e7492055d541781,,,,,,,,
j,0.2111,0,27,27,8,1,613229bba721180fd40080bc,OOROOOO,OOROOOR,19.91402015,20.89823192,series_1,613229bba721180fd40080bc,Kobieta,19,2021-09-06_19h11.48.158,rantool2,2021.1.4,MacIntel,60.0024001,6135e006383e6ea6c3d06a28,61364bae1e7492055d541781,,,,,,,,
j,0.1423,0,28,28,22,1,613229bba721180fd40080bc,ORORROO,ORORROR,22.02732763,21.57657071,series_0,613229bba721180fd40080bc,Kobieta,19,2021-09-06_19h11.48.158,rantool2,2021.1.4,MacIntel,60.0024001,6135e006383e6ea6c3d06a28,61364bae1e7492055d541781,,,,,,,,
f,0.1448,0,29,29,37,1,613229bba721180fd40080bc,ROORORO,ROORORR,20.42602454,21.57657071,series_1,613229bba721180fd40080bc,Kobieta,19,2021-09-06_19h11.48.158,rantool2,2021.1.4,MacIntel,60.0024001,6135e006383e6ea6c3d06a28,61364bae1e7492055d541781,,,,,,,,
f,0.2095,0,30,30,13,1,613229bba721180fd40080bc,OORRORO,OORRORR,21.66733484,22.11181017,series_1,613229bba721180fd40080bc,Kobieta,19,2021-09-06_19h11.48.158,rantool2,2021.1.4,MacIntel,60.0024001,6135e006383e6ea6c3d06a28,61364bae1e7492055d541781,,,,,,,,
f,0.1327,0,31,31,15,1,613229bba721180fd40080bc,OORRRRO,OORRRRR,22.10108823,21.74922619,series_0,613229bba721180fd40080bc,Kobieta,19,2021-09-06_19h11.48.158,rantool2,2021.1.4,MacIntel,60.0024001,6135e006383e6ea6c3d06a28,61364bae1e7492055d541781,,,,,,,,
f,0.1131,0,32,32,21,1,613229bba721180fd40080bc,ORORORO,ORORORR,20.39515459,22.06781359,series_1,613229bba721180fd40080bc,Kobieta,19,2021-09-06_19h11.48.158,rantool2,2021.1.4,MacIntel,60.0024001,6135e006383e6ea6c3d06a28,61364bae1e7492055d541781,,,,,,,,
f,0.1508,0,33,33,57,1,613229bba721180fd40080bc,RRROORO,RRROORR,21.82425538,22.07102821,series_1,613229bba721180fd40080bc,Kobieta,19,2021-09-06_19h11.48.158,rantool2,2021.1.4,MacIntel,60.0024001,6135e006383e6ea6c3d06a28,61364bae1e7492055d541781,,,,,,,,
j,0.156,0,34,34,63,1,613229bba721180fd40080bc,RRRRRRO,RRRRRRR,21.35278725,19.62521613,series_0,613229bba721180fd40080bc,Kobieta,19,2021-09-06_19h11.48.158,rantool2,2021.1.4,MacIntel,60.0024001,6135e006383e6ea6c3d06a28,61364bae1e7492055d541781,,,,,,,,
j,0.1778,0,35,35,49,1,613229bba721180fd40080bc,RROOORO,RROOORR,21.76276513,22.53364006,series_1,613229bba721180fd40080bc,Kobieta,19,2021-09-06_19h11.48.158,rantool2,2021.1.4,MacIntel,60.0024001,6135e006383e6ea6c3d06a28,61364bae1e7492055d541781,,,,,,,,
j,0.1345,0,36,36,42,1,613229bba721180fd40080bc,ROROROO,ROROROR,20.39515459,19.8361834,series_0,613229bba721180fd40080bc,Kobieta,19,2021-09-06_19h11.48.158,rantool2,2021.1.4,MacIntel,60.0024001,6135e006383e6ea6c3d06a28,61364bae1e7492055d541781,,,,,,,,
j,0.1106,0,37,37,23,1,613229bba721180fd40080bc,ORORRRO,ORORRRR,22.1285618,21.9921709,series_0,613229bba721180fd40080bc,Kobieta,19,2021-09-06_19h11.48.158,rantool2,2021.1.4,MacIntel,60.0024001,6135e006383e6ea6c3d06a28,61364bae1e7492055d541781,,,,,,,,
j,0.1417,0,38,38,26,1,613229bba721180fd40080bc,ORROROO,ORROROR,22.02732763,21.71443381,series_0,613229bba721180fd40080bc,Kobieta,19,2021-09-06_19h11.48.158,rantool2,2021.1.4,MacIntel,60.0024001,6135e006383e6ea6c3d06a28,61364bae1e7492055d541781,,,,,,,,
f,0.2077,0,39,39,3,1,613229bba721180fd40080bc,OOOORRO,OOOORRR,20.90986523,21.74922619,series_1,613229bba721180fd40080bc,Kobieta,19,2021-09-06_19h11.48.158,rantool2,2021.1.4,MacIntel,60.0024001,6135e006383e6ea6c3d06a28,61364bae1e7492055d541781,,,,,,,,
f,0.1742,0,40,40,17,1,613229bba721180fd40080bc,OROOORO,OROOORR,21.03750787,22.12173012,series_1,613229bba721180fd40080bc,Kobieta,19,2021-09-06_19h11.48.158,rantool2,2021.1.4,MacIntel,60.0024001,6135e006383e6ea6c3d06a28,61364bae1e7492055d541781,,,,,,,,
f,0.1719,0,41,41,2,1,613229bba721180fd40080bc,OOOOROO,OOOOROR,20.43051175,21.02936224,series_1,613229bba721180fd40080bc,Kobieta,19,2021-09-06_19h11.48.158,rantool2,2021.1.4,MacIntel,60.0024001,6135e006383e6ea6c3d06a28,61364bae1e7492055d541781,,,,,,,,
f,0.1866,0,42,42,45,1,613229bba721180fd40080bc,RORRORO,RORRORR,20.78182524,21.22513037,series_1,613229bba721180fd40080bc,Kobieta,19,2021-09-06_19h11.48.158,rantool2,2021.1.4,MacIntel,60.0024001,6135e006383e6ea6c3d06a28,61364bae1e7492055d541781,,,,,,,,
f,0.1403,0,43,43,30,1,613229bba721180fd40080bc,ORRRROO,ORRRROR,22.46748491,22.03072203,series_0,613229bba721180fd40080bc,Kobieta,19,2021-09-06_19h11.48.158,rantool2,2021.1.4,MacIntel,60.0024001,6135e006383e6ea6c3d06a28,61364bae1e7492055d541781,,,,,,,,
f,0.1459,0,44,44,54,1,613229bba721180fd40080bc,RRORROO,RRORROR,21.55250791,20.9984461,series_0,613229bba721180fd40080bc,Kobieta,19,2021-09-06_19h11.48.158,rantool2,2021.1.4,MacIntel,60.0024001,6135e006383e6ea6c3d06a28,61364bae1e7492055d541781,,,,,,,,
j,0.3453,0,45,45,50,1,613229bba721180fd40080bc,RROOROO,RROOROR,21.73568164,22.02566557,series_1,613229bba721180fd40080bc,Kobieta,19,2021-09-06_19h11.48.158,rantool2,2021.1.4,MacIntel,60.0024001,6135e006383e6ea6c3d06a28,61364bae1e7492055d541781,,,,,,,,
j,0.1878,0,46,46,46,1,613229bba721180fd40080bc,RORRROO,RORRROR,22.00300695,21.24781509,series_0,613229bba721180fd40080bc,Kobieta,19,2021-09-06_19h11.48.158,rantool2,2021.1.4,MacIntel,60.0024001,6135e006383e6ea6c3d06a28,61364bae1e7492055d541781,,,,,,,,
j,0.1112,0,47,47,44,1,613229bba721180fd40080bc,RORROOO,RORROOR,21.66733484,22.02566557,series_1,613229bba721180fd40080bc,Kobieta,19,2021-09-06_19h11.48.158,rantool2,2021.1.4,MacIntel,60.0024001,6135e006383e6ea6c3d06a28,61364bae1e7492055d541781,,,,,,,,
j,0.1173,0,48,48,34,1,613229bba721180fd40080bc,ROOOROO,ROOOROR,21.03750787,21.24781509,series_1,613229bba721180fd40080bc,Kobieta,19,2021-09-06_19h11.48.158,rantool2,2021.1.4,MacIntel,60.0024001,6135e006383e6ea6c3d06a28,61364bae1e7492055d541781,,,,,,,,
j,0.1218,0,49,49,41,1,613229bba721180fd40080bc,ROROORO,ROROORR,20.42602454,21.71443381,series_1,613229bba721180fd40080bc,Kobieta,19,2021-09-06_19h11.48.158,rantool2,2021.1.4,MacIntel,60.0024001,6135e006383e6ea6c3d06a28,61364bae1e7492055d541781,,,,,,,,
f,0.2125,0,50,50,9,1,613229bba721180fd40080bc,OOROORO,OOROORR,21.07991943,22.2428857,series_1,613229bba721180fd40080bc,Kobieta,19,2021-09-06_19h11.48.158,rantool2,2021.1.4,MacIntel,60.0024001,6135e006383e6ea6c3d06a28,61364bae1e7492055d541781,,,,,,,,
f,0.2253,0,51,51,11,1,613229bba721180fd40080bc,OORORRO,OORORRR,22.18365867,22.6797523,series_1,613229bba721180fd40080bc,Kobieta,19,2021-09-06_19h11.48.158,rantool2,2021.1.4,MacIntel,60.0024001,6135e006383e6ea6c3d06a28,61364bae1e7492055d541781,,,,,,,,
f,0.1202,0,52,52,31,1,613229bba721180fd40080bc,ORRRRRO,ORRRRRR,22.16413392,20.74050628,series_0,613229bba721180fd40080bc,Kobieta,19,2021-09-06_19h11.48.158,rantool2,2021.1.4,MacIntel,60.0024001,6135e006383e6ea6c3d06a28,61364bae1e7492055d541781,,,,,,,,
f,0.1494,0,53,53,36,1,613229bba721180fd40080bc,ROOROOO,ROOROOR,21.07991943,20.9984461,series_0,613229bba721180fd40080bc,Kobieta,19,2021-09-06_19h11.48.158,rantool2,2021.1.4,MacIntel,60.0024001,6135e006383e6ea6c3d06a28,61364bae1e7492055d541781,,,,,,,,
f,0.1869,0,54,54,1,1,613229bba721180fd40080bc,OOOOORO,OOOOORR,19.92253567,20.74050628,series_1,613229bba721180fd40080bc,Kobieta,19,2021-09-06_19h11.48.158,rantool2,2021.1.4,MacIntel,60.0024001,6135e006383e6ea6c3d06a28,61364bae1e7492055d541781,,,,,,,,
j,0.3549,0,55,55,6,1,613229bba721180fd40080bc,OOORROO,OOORROR,21.12383932,21.38562617,series_1,613229bba721180fd40080bc,Kobieta,19,2021-09-06_19h11.48.158,rantool2,2021.1.4,MacIntel,60.0024001,6135e006383e6ea6c3d06a28,61364bae1e7492055d541781,,,,,,,,
j,0.1694,0,56,56,58,1,613229bba721180fd40080bc,RRROROO,RRROROR,22.1285618,21.37121559,series_0,613229bba721180fd40080bc,Kobieta,19,2021-09-06_19h11.48.158,rantool2,2021.1.4,MacIntel,60.0024001,6135e006383e6ea6c3d06a28,61364bae1e7492055d541781,,,,,,,,
j,0.127,0,57,57,4,1,613229bba721180fd40080bc,OOOROOO,OOOROOR,19.91402015,21.21223021,series_1,613229bba721180fd40080bc,Kobieta,19,2021-09-06_19h11.48.158,rantool2,2021.1.4,MacIntel,60.0024001,6135e006383e6ea6c3d06a28,61364bae1e7492055d541781,,,,,,,,
j,0.1189,0,58,58,61,1,613229bba721180fd40080bc,RRRRORO,RRRRORR,21.81333602,21.17347734,series_0,613229bba721180fd40080bc,Kobieta,19,2021-09-06_19h11.48.158,rantool2,2021.1.4,MacIntel,60.0024001,6135e006383e6ea6c3d06a28,61364bae1e7492055d541781,,,,,,,,
j,0.1879,0,59,59,14,1,613229bba721180fd40080bc,OORRROO,OORRROR,22.24142883,22.16977179,series_0,613229bba721180fd40080bc,Kobieta,19,2021-09-06_19h11.48.158,rantool2,2021.1.4,MacIntel,60.0024001,6135e006383e6ea6c3d06a28,61364bae1e7492055d541781,,,,,,,,
j,0.1234,0,60,60,51,1,613229bba721180fd40080bc,RROORRO,RROORRR,21.89852628,22.02786418,series_1,613229bba721180fd40080bc,Kobieta,19,2021-09-06_19h11.48.158,rantool2,2021.1.4,MacIntel,60.0024001,6135e006383e6ea6c3d06a28,61364bae1e7492055d541781,,,,,,,,
f,0.1691,0,61,61,19,1,613229bba721180fd40080bc,OROORRO,OROORRR,21.73568164,22.11181017,series_1,613229bba721180fd40080bc,Kobieta,19,2021-09-06_19h11.48.158,rantool2,2021.1.4,MacIntel,60.0024001,6135e006383e6ea6c3d06a28,61364bae1e7492055d541781,,,,,,,,
f,0.1596,0,62,62,55,1,613229bba721180fd40080bc,RRORRRO,RRORRRR,21.56657303,21.21223021,series_0,613229bba721180fd40080bc,Kobieta,19,2021-09-06_19h11.48.158,rantool2,2021.1.4,MacIntel,60.0024001,6135e006383e6ea6c3d06a28,61364bae1e7492055d541781,,,,,,,,
f,0.117,0,63,63,28,1,613229bba721180fd40080bc,ORRROOO,ORRROOR,22.24142883,22.53364006,series_1,613229bba721180fd40080bc,Kobieta,19,2021-09-06_19h11.48.158,rantool2,2021.1.4,MacIntel,60.0024001,6135e006383e6ea6c3d06a28,61364bae1e7492055d541781,,,,,,,,
,,,,,,,613229bba721180fd40080bc,,,,,,613229bba721180fd40080bc,Kobieta,19,2021-09-06_19h11.48.158,rantool2,2021.1.4,MacIntel,60.0024001,6135e006383e6ea6c3d06a28,61364bae1e7492055d541781,0,,,0,0,0,0,1
,,,,,,,613229bba721180fd40080bc,,,,,,613229bba721180fd40080bc,Kobieta,19,2021-09-06_19h11.48.158,rantool2,2021.1.4,MacIntel,60.0024001,6135e006383e6ea6c3d06a28,61364bae1e7492055d541781,"[""comma"",""period"",""period""]",0,"[0.377300000011914,0.6100999999940342,1.1555000000000035]",1,0,1,0,1
,,,,,,,613229bba721180fd40080bc,,,,,,613229bba721180fd40080bc,Kobieta,19,2021-09-06_19h11.48.158,rantool2,2021.1.4,MacIntel,60.0024001,6135e006383e6ea6c3d06a28,61364bae1e7492055d541781,"[""comma"",""period""]",0,"[0.41549999999999443,0.8995000000000033]",2,0,2,0,1
,,,,,,,613229bba721180fd40080bc,,,,,,613229bba721180fd40080bc,Kobieta,19,2021-09-06_19h11.48.158,rantool2,2021.1.4,MacIntel,60.0024001,6135e006383e6ea6c3d06a28,61364bae1e7492055d541781,"[""period"",""period"",""comma""]",0,"[0.26590000000595637,1.0945999999940312,1.8994000000059543]",3,0,3,0,1
,,,,,,,613229bba721180fd40080bc,,,,,,613229bba721180fd40080bc,Kobieta,19,2021-09-06_19h11.48.158,rantool2,2021.1.4,MacIntel,60.0024001,6135e006383e6ea6c3d06a28,61364bae1e7492055d541781,"[""period"",""comma"",""period"",""comma"",""period"",""comma"",""period"",""period""]",0,"[0.12909999999403965,0.31619999998808623,0.47469999998808987,0.613399999976167,0.7995999999940437,0.9735000000000014,1.1830999999940417,1.5448999999761668]",4,0,4,0,1
,,,,,,,613229bba721180fd40080bc,,,,,,613229bba721180fd40080bc,Kobieta,19,2021-09-06_19h11.48.158,rantool2,2021.1.4,MacIntel,60.0024001,6135e006383e6ea6c3d06a28,61364bae1e7492055d541781,"[""comma"",""period"",""comma"",""period""]",0,"[-0.05369999998808339,0.1338000000119166,0.8169000000059583,0.8622000000178787]",5,0,5,0,1
,,,,,,,613229bba721180fd40080bc,,,,,,613229bba721180fd40080bc,Kobieta,19,2021-09-06_19h11.48.158,rantool2,2021.1.4,MacIntel,60.0024001,6135e006383e6ea6c3d06a28,61364bae1e7492055d541781,0,0,,6,0,6,0,1
,,,,,,,613229bba721180fd40080bc,,,,,,613229bba721180fd40080bc,Kobieta,19,2021-09-06_19h11.48.158,rantool2,2021.1.4,MacIntel,60.0024001,6135e006383e6ea6c3d06a28,61364bae1e7492055d541781,"[""period""]",0,[1.7371999999880785],7,0,7,0,1
,,,,,,,613229bba721180fd40080bc,,,,,,613229bba721180fd40080bc,Kobieta,19,2021-09-06_19h11.48.158,rantool2,2021.1.4,MacIntel,60.0024001,6135e006383e6ea6c3d06a28,61364bae1e7492055d541781,"[""period"",""comma""]",0,"[0.3666999999880858,0.7044000000059611]",8,0,8,0,1
,,,,,,,613229bba721180fd40080bc,,,,,,613229bba721180fd40080bc,Kobieta,19,2021-09-06_19h11.48.158,rantool2,2021.1.4,MacIntel,60.0024001,6135e006383e6ea6c3d06a28,61364bae1e7492055d541781,"[""period"",""comma""]",0,"[0.9375999999940348,1.719300000011927]",9,0,9,0,1
,,,,,,,613229bba721180fd40080bc,,,,,,613229bba721180fd40080bc,Kobieta,19,2021-09-06_19h11.48.158,rantool2,2021.1.4,MacIntel,60.0024001,6135e006383e6ea6c3d06a28,61364bae1e7492055d541781,"[""comma"",""period""]",0,"[0.892800000011917,1.4815999999940317]",10,0,10,0,1
,,,,,,,613229bba721180fd40080bc,,,,,,613229bba721180fd40080bc,Kobieta,19,2021-09-06_19h11.48.158,rantool2,2021.1.4,MacIntel,60.0024001,6135e006383e6ea6c3d06a28,61364bae1e7492055d541781,"[""comma"",""period""]",0,"[0.459900000005959,1.060200000017872]",11,0,11,0,1
,,,,,,,613229bba721180fd40080bc,,,,,,613229bba721180fd40080bc,Kobieta,19,2021-09-06_19h11.48.158,rantool2,2021.1.4,MacIntel,60.0024001,6135e006383e6ea6c3d06a28,61364bae1e7492055d541781,"[""comma"",""period""]",0,"[0.962200000017873,1.4669000000059498]",12,0,12,0,1
,,,,,,,613229bba721180fd40080bc,,,,,,613229bba721180fd40080bc,Kobieta,19,2021-09-06_19h11.48.158,rantool2,2021.1.4,MacIntel,60.0024001,6135e006383e6ea6c3d06a28,61364bae1e7492055d541781,"[""comma""]",0,[0.0007999999821208803],13,0,13,0,1
,,,,,,,613229bba721180fd40080bc,,,,,,613229bba721180fd40080bc,Kobieta,19,2021-09-06_19h11.48.158,rantool2,2021.1.4,MacIntel,60.0024001,6135e006383e6ea6c3d06a28,61364bae1e7492055d541781,0,0,,14,0,14,0,1
,,,,,,,613229bba721180fd40080bc,,,,,,613229bba721180fd40080bc,Kobieta,19,2021-09-06_19h11.48.158,rantool2,2021.1.4,MacIntel,60.0024001,6135e006383e6ea6c3d06a28,61364bae1e7492055d541781,0,0,,15,0,15,0,1
,,,,,,,613229bba721180fd40080bc,,,,,,613229bba721180fd40080bc,Kobieta,19,2021-09-06_19h11.48.158,rantool2,2021.1.4,MacIntel,60.0024001,6135e006383e6ea6c3d06a28,61364bae1e7492055d541781,"[""period""]",0,[0.5114000000059491],16,0,16,0,1
,,,,,,,613229bba721180fd40080bc,,,,,,613229bba721180fd40080bc,Kobieta,19,2021-09-06_19h11.48.158,rantool2,2021.1.4,MacIntel,60.0024001,6135e006383e6ea6c3d06a28,61364bae1e7492055d541781,"[""comma""]",0,[0.44490000000597263],17,0,17,0,1
,,,,,,,613229bba721180fd40080bc,,,,,,613229bba721180fd40080bc,Kobieta,19,2021-09-06_19h11.48.158,rantool2,2021.1.4,MacIntel,60.0024001,6135e006383e6ea6c3d06a28,61364bae1e7492055d541781,"[""period""]",0,[0.4109000000059666],18,0,18,0,1
,,,,,,,613229bba721180fd40080bc,,,,,,613229bba721180fd40080bc,Kobieta,19,2021-09-06_19h11.48.158,rantool2,2021.1.4,MacIntel,60.0024001,6135e006383e6ea6c3d06a28,61364bae1e7492055d541781,0,0,,19,0,19,0,1
,,,,,,,613229bba721180fd40080bc,,,,,,613229bba721180fd40080bc,Kobieta,19,2021-09-06_19h11.48.158,rantool2,2021.1.4,MacIntel,60.0024001,6135e006383e6ea6c3d06a28,61364bae1e7492055d541781,0,0,,20,0,20,0,1
,,,,,,,613229bba721180fd40080bc,,,,,,613229bba721180fd40080bc,Kobieta,19,2021-09-06_19h11.48.158,rantool2,2021.1.4,MacIntel,60.0024001,6135e006383e6ea6c3d06a28,61364bae1e7492055d541781,0,0,,21,0,21,0,1
,,,,,,,613229bba721180fd40080bc,,,,,,613229bba721180fd40080bc,Kobieta,19,2021-09-06_19h11.48.158,rantool2,2021.1.4,MacIntel,60.0024001,6135e006383e6ea6c3d06a28,61364bae1e7492055d541781,"[""comma""]",0,[1.00920000001787],22,0,22,0,1
,,,,,,,613229bba721180fd40080bc,,,,,,613229bba721180fd40080bc,Kobieta,19,2021-09-06_19h11.48.158,rantool2,2021.1.4,MacIntel,60.0024001,6135e006383e6ea6c3d06a28,61364bae1e7492055d541781,"[""comma"",""period""]",0,"[0.19480000001192366,0.4060999999940549]",23,0,23,0,1
,,,,,,,613229bba721180fd40080bc,,,,,,613229bba721180fd40080bc,Kobieta,19,2021-09-06_19h11.48.158,rantool2,2021.1.4,MacIntel,60.0024001,6135e006383e6ea6c3d06a28,61364bae1e7492055d541781,0,0,,24,0,24,0,1
,,,,,,,613229bba721180fd40080bc,,,,,,613229bba721180fd40080bc,Kobieta,19,2021-09-06_19h11.48.158,rantool2,2021.1.4,MacIntel,60.0024001,6135e006383e6ea6c3d06a28,61364bae1e7492055d541781,0,0,,25,0,25,0,1
,,,,,,,613229bba721180fd40080bc,,,,,,613229bba721180fd40080bc,Kobieta,19,2021-09-06_19h11.48.158,rantool2,2021.1.4,MacIntel,60.0024001,6135e006383e6ea6c3d06a28,61364bae1e7492055d541781,0,0,,26,0,26,0,1
,,,,,,,613229bba721180fd40080bc,,,,,,613229bba721180fd40080bc,Kobieta,19,2021-09-06_19h11.48.158,rantool2,2021.1.4,MacIntel,60.0024001,6135e006383e6ea6c3d06a28,61364bae1e7492055d541781,0,0,,27,0,27,0,1
,,,,,,,613229bba721180fd40080bc,,,,,,613229bba721180fd40080bc,Kobieta,19,2021-09-06_19h11.48.158,rantool2,2021.1.4,MacIntel,60.0024001,6135e006383e6ea6c3d06a28,61364bae1e7492055d541781,0,0,,28,0,28,0,1
,,,,,,,613229bba721180fd40080bc,,,,,,613229bba721180fd40080bc,Kobieta,19,2021-09-06_19h11.48.158,rantool2,2021.1.4,MacIntel,60.0024001,6135e006383e6ea6c3d06a28,61364bae1e7492055d541781,0,0,,29,0,29,0,1
,,,,,,,613229bba721180fd40080bc,,,,,,613229bba721180fd40080bc,Kobieta,19,2021-09-06_19h11.48.158,rantool2,2021.1.4,MacIntel,60.0024001,6135e006383e6ea6c3d06a28,61364bae1e7492055d541781,0,0,,30,0,30,0,1
,,,,,,,613229bba721180fd40080bc,,,,,,613229bba721180fd40080bc,Kobieta,19,2021-09-06_19h11.48.158,rantool2,2021.1.4,MacIntel,60.0024001,6135e006383e6ea6c3d06a28,61364bae1e7492055d541781,0,0,,31,0,31,0,1
,,,,,,,613229bba721180fd40080bc,,,,,,613229bba721180fd40080bc,Kobieta,19,2021-09-06_19h11.48.158,rantool2,2021.1.4,MacIntel,60.0024001,6135e006383e6ea6c3d06a28,61364bae1e7492055d541781,0,0,,32,0,32,0,1
,,,,,,,613229bba721180fd40080bc,,,,,,613229bba721180fd40080bc,Kobieta,19,2021-09-06_19h11.48.158,rantool2,2021.1.4,MacIntel,60.0024001,6135e006383e6ea6c3d06a28,61364bae1e7492055d541781,0,0,,33,0,33,0,1
,,,,,,,613229bba721180fd40080bc,,,,,,613229bba721180fd40080bc,Kobieta,19,2021-09-06_19h11.48.158,rantool2,2021.1.4,MacIntel,60.0024001,6135e006383e6ea6c3d06a28,61364bae1e7492055d541781,0,0,,34,0,34,0,1
,,,,,,,613229bba721180fd40080bc,,,,,,613229bba721180fd40080bc,Kobieta,19,2021-09-06_19h11.48.158,rantool2,2021.1.4,MacIntel,60.0024001,6135e006383e6ea6c3d06a28,61364bae1e7492055d541781,0,0,,35,0,35,0,1
,,,,,,,613229bba721180fd40080bc,,,,,,613229bba721180fd40080bc,Kobieta,19,2021-09-06_19h11.48.158,rantool2,2021.1.4,MacIntel,60.0024001,6135e006383e6ea6c3d06a28,61364bae1e7492055d541781,0,0,,36,0,36,0,1
,,,,,,,613229bba721180fd40080bc,,,,,,613229bba721180fd40080bc,Kobieta,19,2021-09-06_19h11.48.158,rantool2,2021.1.4,MacIntel,60.0024001,6135e006383e6ea6c3d06a28,61364bae1e7492055d541781,0,0,,37,0,37,0,1
,,,,,,,613229bba721180fd40080bc,,,,,,613229bba721180fd40080bc,Kobieta,19,2021-09-06_19h11.48.158,rantool2,2021.1.4,MacIntel,60.0024001,6135e006383e6ea6c3d06a28,61364bae1e7492055d541781,0,0,,38,0,38,0,1
,,,,,,,613229bba721180fd40080bc,,,,,,613229bba721180fd40080bc,Kobieta,19,2021-09-06_19h11.48.158,rantool2,2021.1.4,MacIntel,60.0024001,6135e006383e6ea6c3d06a28,61364bae1e7492055d541781,0,0,,39,0,39,0,1
,,,,,,,613229bba721180fd40080bc,,,,,,613229bba721180fd40080bc,Kobieta,19,2021-09-06_19h11.48.158,rantool2,2021.1.4,MacIntel,60.0024001,6135e006383e6ea6c3d06a28,61364bae1e7492055d541781,0,0,,40,0,40,0,1
,,,,,,,613229bba721180fd40080bc,,,,,,613229bba721180fd40080bc,Kobieta,19,2021-09-06_19h11.48.158,rantool2,2021.1.4,MacIntel,60.0024001,6135e006383e6ea6c3d06a28,61364bae1e7492055d541781,0,0,,41,0,41,0,1
,,,,,,,613229bba721180fd40080bc,,,,,,613229bba721180fd40080bc,Kobieta,19,2021-09-06_19h11.48.158,rantool2,2021.1.4,MacIntel,60.0024001,6135e006383e6ea6c3d06a28,61364bae1e7492055d541781,0,0,,42,0,42,0,1
,,,,,,,613229bba721180fd40080bc,,,,,,613229bba721180fd40080bc,Kobieta,19,2021-09-06_19h11.48.158,rantool2,2021.1.4,MacIntel,60.0024001,6135e006383e6ea6c3d06a28,61364bae1e7492055d541781,0,0,,43,0,43,0,1
,,,,,,,613229bba721180fd40080bc,,,,,,613229bba721180fd40080bc,Kobieta,19,2021-09-06_19h11.48.158,rantool2,2021.1.4,MacIntel,60.0024001,6135e006383e6ea6c3d06a28,61364bae1e7492055d541781,0,0,,44,0,44,0,1
,,,,,,,613229bba721180fd40080bc,,,,,,613229bba721180fd40080bc,Kobieta,19,2021-09-06_19h11.48.158,rantool2,2021.1.4,MacIntel,60.0024001,6135e006383e6ea6c3d06a28,61364bae1e7492055d541781,"[""comma"",""period"",""comma""]",0,"[1.595699999988085,1.7300000000000182,1.9298000000119373]",45,0,45,0,1
,,,,,,,613229bba721180fd40080bc,,,,,,613229bba721180fd40080bc,Kobieta,19,2021-09-06_19h11.48.158,rantool2,2021.1.4,MacIntel,60.0024001,6135e006383e6ea6c3d06a28,61364bae1e7492055d541781,"[""period"",""comma"",""period"",""comma"",""period"",""comma"",""period"",""comma"",""period"",""comma"",""period"",""comma"",""period"",""comma"",""period"",""comma""]",0,"[0.11050000000000182,0.2773999999761543,0.41269999998809226,0.6108999999761693,0.6984999999999957,0.8098999999761531,0.9426999999880934,0.9972999999821184,1.1438999999761563,1.2316999999880807,1.3100000000000023,1.4097999999821127,1.5092999999821188,1.5761999999880913,1.7104999999999961,1.8098999999761531]",46,0,46,0,1
,,,,,,,613229bba721180fd40080bc,,,,,,613229bba721180fd40080bc,Kobieta,19,2021-09-06_19h11.48.158,rantool2,2021.1.4,MacIntel,60.0024001,6135e006383e6ea6c3d06a28,61364bae1e7492055d541781,"[""period"",""comma"",""period"",""comma"",""period"",""comma"",""period"",""comma"",""period"",""comma"",""period"",""comma"",""period"",""comma"",""period"",""comma"",""period"",""comma"",""period"",""comma""]",0,"[-0.01440000000596342,0.03130000001192457,0.13349999999999795,0.26640000000594455,0.33220000001787753,0.46699999999998454,0.5540999999940368,0.6362000000178796,0.7657000000178869,0.8657000000178812,0.9662000000178637,1.0992000000178734,1.1992000000178678,1.2864000000059548,1.4214000000059457,1.5,1.5987000000178853,1.721400000005957,1.7999000000059482,1.9540999999940425]",47,0,47,0,1
,,,,,,,613229bba721180fd40080bc,,,,,,613229bba721180fd40080bc,Kobieta,19,2021-09-06_19h11.48.158,rantool2,2021.1.4,MacIntel,60.0024001,6135e006383e6ea6c3d06a28,61364bae1e7492055d541781,"[""period"",""comma"",""period"",""comma"",""period"",""comma"",""period"",""period"",""period"",""period"",""comma"",""period"",""comma"",""period"",""comma"",""period""]",0,"[0.030400000005954553,0.13399999999998613,0.23280000001190615,0.36660000002382276,0.4671000000238337,0.6004000000059477,0.6875,0.8656000000238464,1.0209999999999866,1.165200000017876,1.366500000000002,1.4548000000119146,1.5664999999999907,1.6653000000119107,1.8331000000238475,1.9325000000000045]",48,0,48,0,1
,,,,,,,613229bba721180fd40080bc,,,,,,613229bba721180fd40080bc,Kobieta,19,2021-09-06_19h11.48.158,rantool2,2021.1.4,MacIntel,60.0024001,6135e006383e6ea6c3d06a28,61364bae1e7492055d541781,"[""comma"",""period"",""comma"",""comma"",""comma"",""comma"",""period"",""period"",""period"",""period"",""period"",""comma"",""period""]",0,"[0.04950000000002319,0.20720000001790595,0.3216000000238637,0.5214000000059684,0.7037000000179034,0.8933000000119478,1.0049000000059607,1.1669000000059668,1.3209000000059632,1.4658000000119387,1.6373000000119475,1.6708000000119227,1.837400000005971]",49,0,49,0,1
,,,,,,,613229bba721180fd40080bc,,,,,,613229bba721180fd40080bc,Kobieta,19,2021-09-06_19h11.48.158,rantool2,2021.1.4,MacIntel,60.0024001,6135e006383e6ea6c3d06a28,61364bae1e7492055d541781,"[""comma"",""period"",""period"",""period"",""period"",""period"",""period"",""comma"",""comma"",""comma""]",0,"[0.03270000001788276,0.17120000001787616,0.4997000000178957,0.89910000002385,1.0322000000178946,1.1990000000000123,1.3662000000178693,1.5211000000238357,1.7328000000119346,1.8994000000059543]",50,0,50,0,1
,,,,,,,613229bba721180fd40080bc,,,,,,613229bba721180fd40080bc,Kobieta,19,2021-09-06_19h11.48.158,rantool2,2021.1.4,MacIntel,60.0024001,6135e006383e6ea6c3d06a28,61364bae1e7492055d541781,"[""comma"",""comma"",""comma"",""period"",""period"",""period"",""period"",""comma"",""period"",""period"",""comma"",""period"",""comma"",""period""]",0,"[0.07999999999998408,0.27019999998807975,0.4149000000059573,0.5465999999940436,0.6985999999940304,0.8472999999821127,1.0147999999821025,1.1350999999940257,1.1461999999880845,1.3809000000059655,1.5481999999880713,1.7021999999880677,1.769900000005947,1.9037999999821125]",51,0,51,0,1
,,,,,,,613229bba721180fd40080bc,,,,,,613229bba721180fd40080bc,Kobieta,19,2021-09-06_19h11.48.158,rantool2,2021.1.4,MacIntel,60.0024001,6135e006383e6ea6c3d06a28,61364bae1e7492055d541781,"[""comma"",""period"",""comma"",""period"",""comma"",""period"",""comma"",""period"",""comma"",""period"",""comma"",""period"",""comma"",""period"",""comma"",""period""]",0,"[-0.033900000005957054,0.08130000001190751,0.24959999999401816,0.4699000000059357,0.5852000000178634,0.8165999999940254,0.9184000000059598,1.0058000000119023,1.139700000017882,1.2165999999940311,1.3498000000118964,1.4514999999999816,1.600099999994029,1.6677000000178737,1.804599999994025,1.8047000000178741]",52,0,52,0,1
,,,,,,,613229bba721180fd40080bc,,,,,,613229bba721180fd40080bc,Kobieta,19,2021-09-06_19h11.48.158,rantool2,2021.1.4,MacIntel,60.0024001,6135e006383e6ea6c3d06a28,61364bae1e7492055d541781,"[""period"",""comma"",""period"",""comma"",""period"",""comma"",""comma"",""comma"",""comma"",""comma"",""comma"",""period"",""period""]",0,"[0.030500000000017735,0.03060000002386687,0.21590000000597342,0.28230000001192934,0.4358000000119375,0.5872000000179014,0.7650000000000148,0.9205000000000041,1.0983000000119318,1.3201000000238423,1.519700000017906,1.6310000000000002,1.853400000005962]",53,0,53,0,1
,,,,,,,613229bba721180fd40080bc,,,,,,613229bba721180fd40080bc,Kobieta,19,2021-09-06_19h11.48.158,rantool2,2021.1.4,MacIntel,60.0024001,6135e006383e6ea6c3d06a28,61364bae1e7492055d541781,"[""period"",""period"",""period"",""period"",""comma"",""comma"",""comma"",""period"",""period"",""period"",""period"",""period""]",0,"[-0.033900000005985476,0.14999999999997726,0.28319999998805656,0.42529999998211565,0.5466999999880784,0.7464999999999975,0.9329999999999927,1.165599999994015,1.3330999999940332,1.4876999999880525,1.6659000000059336,1.8211999999880675]",54,0,54,0,1
,,,,,,,613229bba721180fd40080bc,,,,,,613229bba721180fd40080bc,Kobieta,19,2021-09-06_19h11.48.158,rantool2,2021.1.4,MacIntel,60.0024001,6135e006383e6ea6c3d06a28,61364bae1e7492055d541781,"[""period"",""period"",""comma"",""comma"",""comma"",""comma"",""comma"",""comma"",""period"",""period""]",0,"[-0.033900000005957054,0.12959999999404204,0.29349999999999454,0.5296999999880825,0.7132999999821266,0.8631999999880691,1.0657999999821186,1.2279000000059455,1.381799999982121,1.6492999999821052]",55,0,55,0,1
,,,,,,,613229bba721180fd40080bc,,,,,,613229bba721180fd40080bc,Kobieta,19,2021-09-06_19h11.48.158,rantool2,2021.1.4,MacIntel,60.0024001,6135e006383e6ea6c3d06a28,61364bae1e7492055d541781,"[""period"",""comma"",""period"",""comma"",""period"",""comma"",""comma""]",0,"[-0.03480000001192707,0.44249999999999545,0.747599999994037,1.0485999999940248,1.3128000000119187,1.580900000005954,1.8140999999940277]",56,0,56,0,1
,,,,,,,613229bba721180fd40080bc,,,,,,613229bba721180fd40080bc,Kobieta,19,2021-09-06_19h11.48.158,rantool2,2021.1.4,MacIntel,60.0024001,6135e006383e6ea6c3d06a28,61364bae1e7492055d541781,"[""comma"",""comma"",""comma"",""comma"",""comma"",""period"",""period"",""period""]",0,"[-0.03369999998807316,0.1299000000059607,0.2794000000059782,0.47959999999403635,0.5945999999940454,0.7934000000059598,1.0159999999999911,1.1479000000059614]",57,0,57,0,1
,,,,,,,613229bba721180fd40080bc,,,,,,613229bba721180fd40080bc,Kobieta,19,2021-09-06_19h11.48.158,rantool2,2021.1.4,MacIntel,60.0024001,6135e006383e6ea6c3d06a28,61364bae1e7492055d541781,0,0,,58,0,58,0,1
