key_resp_5.keys,key_resp_5.corr,key_resp_5.rt,trials.thisRepN,trials.thisTrialN,trials.thisN,trials.thisIndex,trials.ran,id*,Płeć*,Wiek*,date,expName,psychopyVersion,OS,frameRate,id,STUDY_ID,SESSION_ID,key_resp_7.keys,key_resp_7.rt,trials_2.thisRepN,trials_2.thisTrialN,trials_2.thisN,trials_2.thisIndex,trials_2.ran,series_0,series_1,acss_0,acss_1,comparison
0,,,0,0,0,0,1,5f096f8e95f9771fe09fe2d3,Kobieta,50,2021-07-13_21h43.13.547,rantool2,2021.1.4,MacIntel,59.99880002,5f096f8e95f9771fe09fe2d3,60d9d14f4a8a35a482e0d9bf,60edec909a710449d29fe226,,,,,,,,,,,,
"[""comma""]",0,[0.9520999999642328],1,0,1,0,1,5f096f8e95f9771fe09fe2d3,Kobieta,50,2021-07-13_21h43.13.547,rantool2,2021.1.4,MacIntel,59.99880002,5f096f8e95f9771fe09fe2d3,60d9d14f4a8a35a482e0d9bf,60edec909a710449d29fe226,,,,,,,,,,,,
0,0,,2,0,2,0,1,5f096f8e95f9771fe09fe2d3,Kobieta,50,2021-07-13_21h43.13.547,rantool2,2021.1.4,MacIntel,59.99880002,5f096f8e95f9771fe09fe2d3,60d9d14f4a8a35a482e0d9bf,60edec909a710449d29fe226,,,,,,,,,,,,
"[""period""]",0,[0.13819999998807475],3,0,3,0,1,5f096f8e95f9771fe09fe2d3,Kobieta,50,2021-07-13_21h43.13.547,rantool2,2021.1.4,MacIntel,59.99880002,5f096f8e95f9771fe09fe2d3,60d9d14f4a8a35a482e0d9bf,60edec909a710449d29fe226,,,,,,,,,,,,
"[""period""]",0,[0.6046000000238365],4,0,4,0,1,5f096f8e95f9771fe09fe2d3,Kobieta,50,2021-07-13_21h43.13.547,rantool2,2021.1.4,MacIntel,59.99880002,5f096f8e95f9771fe09fe2d3,60d9d14f4a8a35a482e0d9bf,60edec909a710449d29fe226,,,,,,,,,,,,
"[""comma""]",0,[0.9037000000476922],5,0,5,0,1,5f096f8e95f9771fe09fe2d3,Kobieta,50,2021-07-13_21h43.13.547,rantool2,2021.1.4,MacIntel,59.99880002,5f096f8e95f9771fe09fe2d3,60d9d14f4a8a35a482e0d9bf,60edec909a710449d29fe226,,,,,,,,,,,,
"[""period""]",0,[0.45299999999998875],6,0,6,0,1,5f096f8e95f9771fe09fe2d3,Kobieta,50,2021-07-13_21h43.13.547,rantool2,2021.1.4,MacIntel,59.99880002,5f096f8e95f9771fe09fe2d3,60d9d14f4a8a35a482e0d9bf,60edec909a710449d29fe226,,,,,,,,,,,,
"[""period""]",0,[0.43389999997614837],7,0,7,0,1,5f096f8e95f9771fe09fe2d3,Kobieta,50,2021-07-13_21h43.13.547,rantool2,2021.1.4,MacIntel,59.99880002,5f096f8e95f9771fe09fe2d3,60d9d14f4a8a35a482e0d9bf,60edec909a710449d29fe226,,,,,,,,,,,,
"[""period""]",0,[0.7197999999523148],8,0,8,0,1,5f096f8e95f9771fe09fe2d3,Kobieta,50,2021-07-13_21h43.13.547,rantool2,2021.1.4,MacIntel,59.99880002,5f096f8e95f9771fe09fe2d3,60d9d14f4a8a35a482e0d9bf,60edec909a710449d29fe226,,,,,,,,,,,,
"[""comma""]",0,[0.30049999999999955],9,0,9,0,1,5f096f8e95f9771fe09fe2d3,Kobieta,50,2021-07-13_21h43.13.547,rantool2,2021.1.4,MacIntel,59.99880002,5f096f8e95f9771fe09fe2d3,60d9d14f4a8a35a482e0d9bf,60edec909a710449d29fe226,,,,,,,,,,,,
"[""comma"",""period""]",0,"[0.38930000001191445,1.9120000000000061]",10,0,10,0,1,5f096f8e95f9771fe09fe2d3,Kobieta,50,2021-07-13_21h43.13.547,rantool2,2021.1.4,MacIntel,59.99880002,5f096f8e95f9771fe09fe2d3,60d9d14f4a8a35a482e0d9bf,60edec909a710449d29fe226,,,,,,,,,,,,
0,0,,11,0,11,0,1,5f096f8e95f9771fe09fe2d3,Kobieta,50,2021-07-13_21h43.13.547,rantool2,2021.1.4,MacIntel,59.99880002,5f096f8e95f9771fe09fe2d3,60d9d14f4a8a35a482e0d9bf,60edec909a710449d29fe226,,,,,,,,,,,,
"[""comma""]",0,[0.7591000000238353],12,0,12,0,1,5f096f8e95f9771fe09fe2d3,Kobieta,50,2021-07-13_21h43.13.547,rantool2,2021.1.4,MacIntel,59.99880002,5f096f8e95f9771fe09fe2d3,60d9d14f4a8a35a482e0d9bf,60edec909a710449d29fe226,,,,,,,,,,,,
"[""period""]",0,[0.45129999995234016],13,0,13,0,1,5f096f8e95f9771fe09fe2d3,Kobieta,50,2021-07-13_21h43.13.547,rantool2,2021.1.4,MacIntel,59.99880002,5f096f8e95f9771fe09fe2d3,60d9d14f4a8a35a482e0d9bf,60edec909a710449d29fe226,,,,,,,,,,,,
"[""period"",""comma""]",0,"[0.36830000001191365,1.752199999988079]",14,0,14,0,1,5f096f8e95f9771fe09fe2d3,Kobieta,50,2021-07-13_21h43.13.547,rantool2,2021.1.4,MacIntel,59.99880002,5f096f8e95f9771fe09fe2d3,60d9d14f4a8a35a482e0d9bf,60edec909a710449d29fe226,,,,,,,,,,,,
0,0,,15,0,15,0,1,5f096f8e95f9771fe09fe2d3,Kobieta,50,2021-07-13_21h43.13.547,rantool2,2021.1.4,MacIntel,59.99880002,5f096f8e95f9771fe09fe2d3,60d9d14f4a8a35a482e0d9bf,60edec909a710449d29fe226,,,,,,,,,,,,
"[""comma""]",0,[0.27019999998807975],16,0,16,0,1,5f096f8e95f9771fe09fe2d3,Kobieta,50,2021-07-13_21h43.13.547,rantool2,2021.1.4,MacIntel,59.99880002,5f096f8e95f9771fe09fe2d3,60d9d14f4a8a35a482e0d9bf,60edec909a710449d29fe226,,,,,,,,,,,,
"[""comma"",""period""]",0,"[0.3185000000000002,1.8703000000119232]",17,0,17,0,1,5f096f8e95f9771fe09fe2d3,Kobieta,50,2021-07-13_21h43.13.547,rantool2,2021.1.4,MacIntel,59.99880002,5f096f8e95f9771fe09fe2d3,60d9d14f4a8a35a482e0d9bf,60edec909a710449d29fe226,,,,,,,,,,,,
0,0,,18,0,18,0,1,5f096f8e95f9771fe09fe2d3,Kobieta,50,2021-07-13_21h43.13.547,rantool2,2021.1.4,MacIntel,59.99880002,5f096f8e95f9771fe09fe2d3,60d9d14f4a8a35a482e0d9bf,60edec909a710449d29fe226,,,,,,,,,,,,
"[""comma""]",0,[0.27599999999998204],19,0,19,0,1,5f096f8e95f9771fe09fe2d3,Kobieta,50,2021-07-13_21h43.13.547,rantool2,2021.1.4,MacIntel,59.99880002,5f096f8e95f9771fe09fe2d3,60d9d14f4a8a35a482e0d9bf,60edec909a710449d29fe226,,,,,,,,,,,,
"[""period""]",0,[0.29180000001190365],20,0,20,0,1,5f096f8e95f9771fe09fe2d3,Kobieta,50,2021-07-13_21h43.13.547,rantool2,2021.1.4,MacIntel,59.99880002,5f096f8e95f9771fe09fe2d3,60d9d14f4a8a35a482e0d9bf,60edec909a710449d29fe226,,,,,,,,,,,,
"[""comma"",""comma""]",0,"[0.057399999976183835,1.9026999999881014]",21,0,21,0,1,5f096f8e95f9771fe09fe2d3,Kobieta,50,2021-07-13_21h43.13.547,rantool2,2021.1.4,MacIntel,59.99880002,5f096f8e95f9771fe09fe2d3,60d9d14f4a8a35a482e0d9bf,60edec909a710449d29fe226,,,,,,,,,,,,
"[""comma""]",0,[1.8171999999880768],22,0,22,0,1,5f096f8e95f9771fe09fe2d3,Kobieta,50,2021-07-13_21h43.13.547,rantool2,2021.1.4,MacIntel,59.99880002,5f096f8e95f9771fe09fe2d3,60d9d14f4a8a35a482e0d9bf,60edec909a710449d29fe226,,,,,,,,,,,,
"[""comma""]",0,[1.7388000000119064],23,0,23,0,1,5f096f8e95f9771fe09fe2d3,Kobieta,50,2021-07-13_21h43.13.547,rantool2,2021.1.4,MacIntel,59.99880002,5f096f8e95f9771fe09fe2d3,60d9d14f4a8a35a482e0d9bf,60edec909a710449d29fe226,,,,,,,,,,,,
"[""period""]",0,[1.7596000000238234],24,0,24,0,1,5f096f8e95f9771fe09fe2d3,Kobieta,50,2021-07-13_21h43.13.547,rantool2,2021.1.4,MacIntel,59.99880002,5f096f8e95f9771fe09fe2d3,60d9d14f4a8a35a482e0d9bf,60edec909a710449d29fe226,,,,,,,,,,,,
"[""comma""]",0,[1.669900000035767],25,0,25,0,1,5f096f8e95f9771fe09fe2d3,Kobieta,50,2021-07-13_21h43.13.547,rantool2,2021.1.4,MacIntel,59.99880002,5f096f8e95f9771fe09fe2d3,60d9d14f4a8a35a482e0d9bf,60edec909a710449d29fe226,,,,,,,,,,,,
"[""period""]",0,[1.622600000023823],26,0,26,0,1,5f096f8e95f9771fe09fe2d3,Kobieta,50,2021-07-13_21h43.13.547,rantool2,2021.1.4,MacIntel,59.99880002,5f096f8e95f9771fe09fe2d3,60d9d14f4a8a35a482e0d9bf,60edec909a710449d29fe226,,,,,,,,,,,,
0,0,,27,0,27,0,1,5f096f8e95f9771fe09fe2d3,Kobieta,50,2021-07-13_21h43.13.547,rantool2,2021.1.4,MacIntel,59.99880002,5f096f8e95f9771fe09fe2d3,60d9d14f4a8a35a482e0d9bf,60edec909a710449d29fe226,,,,,,,,,,,,
"[""period""]",0,[0.21280000001189592],28,0,28,0,1,5f096f8e95f9771fe09fe2d3,Kobieta,50,2021-07-13_21h43.13.547,rantool2,2021.1.4,MacIntel,59.99880002,5f096f8e95f9771fe09fe2d3,60d9d14f4a8a35a482e0d9bf,60edec909a710449d29fe226,,,,,,,,,,,,
"[""comma""]",0,[0.15399999999999636],29,0,29,0,1,5f096f8e95f9771fe09fe2d3,Kobieta,50,2021-07-13_21h43.13.547,rantool2,2021.1.4,MacIntel,59.99880002,5f096f8e95f9771fe09fe2d3,60d9d14f4a8a35a482e0d9bf,60edec909a710449d29fe226,,,,,,,,,,,,
"[""period""]",0,[0.3188999999761677],30,0,30,0,1,5f096f8e95f9771fe09fe2d3,Kobieta,50,2021-07-13_21h43.13.547,rantool2,2021.1.4,MacIntel,59.99880002,5f096f8e95f9771fe09fe2d3,60d9d14f4a8a35a482e0d9bf,60edec909a710449d29fe226,,,,,,,,,,,,
"[""period"",""period""]",0,"[0.10410000002383413,1.9743000000119082]",31,0,31,0,1,5f096f8e95f9771fe09fe2d3,Kobieta,50,2021-07-13_21h43.13.547,rantool2,2021.1.4,MacIntel,59.99880002,5f096f8e95f9771fe09fe2d3,60d9d14f4a8a35a482e0d9bf,60edec909a710449d29fe226,,,,,,,,,,,,
"[""comma""]",0,[1.8106000000238396],32,0,32,0,1,5f096f8e95f9771fe09fe2d3,Kobieta,50,2021-07-13_21h43.13.547,rantool2,2021.1.4,MacIntel,59.99880002,5f096f8e95f9771fe09fe2d3,60d9d14f4a8a35a482e0d9bf,60edec909a710449d29fe226,,,,,,,,,,,,
"[""period""]",0,[1.6873999999761509],33,0,33,0,1,5f096f8e95f9771fe09fe2d3,Kobieta,50,2021-07-13_21h43.13.547,rantool2,2021.1.4,MacIntel,59.99880002,5f096f8e95f9771fe09fe2d3,60d9d14f4a8a35a482e0d9bf,60edec909a710449d29fe226,,,,,,,,,,,,
"[""comma""]",0,[1.5856000000238453],34,0,34,0,1,5f096f8e95f9771fe09fe2d3,Kobieta,50,2021-07-13_21h43.13.547,rantool2,2021.1.4,MacIntel,59.99880002,5f096f8e95f9771fe09fe2d3,60d9d14f4a8a35a482e0d9bf,60edec909a710449d29fe226,,,,,,,,,,,,
0,0,,35,0,35,0,1,5f096f8e95f9771fe09fe2d3,Kobieta,50,2021-07-13_21h43.13.547,rantool2,2021.1.4,MacIntel,59.99880002,5f096f8e95f9771fe09fe2d3,60d9d14f4a8a35a482e0d9bf,60edec909a710449d29fe226,,,,,,,,,,,,
"[""comma""]",0,[0.07150000000001455],36,0,36,0,1,5f096f8e95f9771fe09fe2d3,Kobieta,50,2021-07-13_21h43.13.547,rantool2,2021.1.4,MacIntel,59.99880002,5f096f8e95f9771fe09fe2d3,60d9d14f4a8a35a482e0d9bf,60edec909a710449d29fe226,,,,,,,,,,,,
"[""comma""]",0,[0.3550999999642386],37,0,37,0,1,5f096f8e95f9771fe09fe2d3,Kobieta,50,2021-07-13_21h43.13.547,rantool2,2021.1.4,MacIntel,59.99880002,5f096f8e95f9771fe09fe2d3,60d9d14f4a8a35a482e0d9bf,60edec909a710449d29fe226,,,,,,,,,,,,
"[""period""]",0,[0.13530000001193798],38,0,38,0,1,5f096f8e95f9771fe09fe2d3,Kobieta,50,2021-07-13_21h43.13.547,rantool2,2021.1.4,MacIntel,59.99880002,5f096f8e95f9771fe09fe2d3,60d9d14f4a8a35a482e0d9bf,60edec909a710449d29fe226,,,,,,,,,,,,
"[""comma""]",0,[0.15219999998805633],39,0,39,0,1,5f096f8e95f9771fe09fe2d3,Kobieta,50,2021-07-13_21h43.13.547,rantool2,2021.1.4,MacIntel,59.99880002,5f096f8e95f9771fe09fe2d3,60d9d14f4a8a35a482e0d9bf,60edec909a710449d29fe226,,,,,,,,,,,,
"[""period""]",0,[0.23430000001192752],40,0,40,0,1,5f096f8e95f9771fe09fe2d3,Kobieta,50,2021-07-13_21h43.13.547,rantool2,2021.1.4,MacIntel,59.99880002,5f096f8e95f9771fe09fe2d3,60d9d14f4a8a35a482e0d9bf,60edec909a710449d29fe226,,,,,,,,,,,,
"[""comma""]",0,[0.3002999999523013],41,0,41,0,1,5f096f8e95f9771fe09fe2d3,Kobieta,50,2021-07-13_21h43.13.547,rantool2,2021.1.4,MacIntel,59.99880002,5f096f8e95f9771fe09fe2d3,60d9d14f4a8a35a482e0d9bf,60edec909a710449d29fe226,,,,,,,,,,,,
"[""comma"",""period""]",0,"[0.037499999999994316,1.8650999999642295]",42,0,42,0,1,5f096f8e95f9771fe09fe2d3,Kobieta,50,2021-07-13_21h43.13.547,rantool2,2021.1.4,MacIntel,59.99880002,5f096f8e95f9771fe09fe2d3,60d9d14f4a8a35a482e0d9bf,60edec909a710449d29fe226,,,,,,,,,,,,
"[""period""]",0,[1.7364999999999782],43,0,43,0,1,5f096f8e95f9771fe09fe2d3,Kobieta,50,2021-07-13_21h43.13.547,rantool2,2021.1.4,MacIntel,59.99880002,5f096f8e95f9771fe09fe2d3,60d9d14f4a8a35a482e0d9bf,60edec909a710449d29fe226,,,,,,,,,,,,
"[""comma""]",0,[1.670599999964253],44,0,44,0,1,5f096f8e95f9771fe09fe2d3,Kobieta,50,2021-07-13_21h43.13.547,rantool2,2021.1.4,MacIntel,59.99880002,5f096f8e95f9771fe09fe2d3,60d9d14f4a8a35a482e0d9bf,60edec909a710449d29fe226,,,,,,,,,,,,
0,0,,45,0,45,0,1,5f096f8e95f9771fe09fe2d3,Kobieta,50,2021-07-13_21h43.13.547,rantool2,2021.1.4,MacIntel,59.99880002,5f096f8e95f9771fe09fe2d3,60d9d14f4a8a35a482e0d9bf,60edec909a710449d29fe226,,,,,,,,,,,,
"[""period"",""comma""]",0,"[0.1349999999999909,1.9373999999761509]",46,0,46,0,1,5f096f8e95f9771fe09fe2d3,Kobieta,50,2021-07-13_21h43.13.547,rantool2,2021.1.4,MacIntel,59.99880002,5f096f8e95f9771fe09fe2d3,60d9d14f4a8a35a482e0d9bf,60edec909a710449d29fe226,,,,,,,,,,,,
"[""period""]",0,[1.8521999999881018],47,0,47,0,1,5f096f8e95f9771fe09fe2d3,Kobieta,50,2021-07-13_21h43.13.547,rantool2,2021.1.4,MacIntel,59.99880002,5f096f8e95f9771fe09fe2d3,60d9d14f4a8a35a482e0d9bf,60edec909a710449d29fe226,,,,,,,,,,,,
"[""comma""]",0,[1.7341999999880784],48,0,48,0,1,5f096f8e95f9771fe09fe2d3,Kobieta,50,2021-07-13_21h43.13.547,rantool2,2021.1.4,MacIntel,59.99880002,5f096f8e95f9771fe09fe2d3,60d9d14f4a8a35a482e0d9bf,60edec909a710449d29fe226,,,,,,,,,,,,
"[""comma""]",0,[1.8884999999999934],49,0,49,0,1,5f096f8e95f9771fe09fe2d3,Kobieta,50,2021-07-13_21h43.13.547,rantool2,2021.1.4,MacIntel,59.99880002,5f096f8e95f9771fe09fe2d3,60d9d14f4a8a35a482e0d9bf,60edec909a710449d29fe226,,,,,,,,,,,,
"[""period""]",0,[1.7718000000119218],50,0,50,0,1,5f096f8e95f9771fe09fe2d3,Kobieta,50,2021-07-13_21h43.13.547,rantool2,2021.1.4,MacIntel,59.99880002,5f096f8e95f9771fe09fe2d3,60d9d14f4a8a35a482e0d9bf,60edec909a710449d29fe226,,,,,,,,,,,,
"[""period""]",0,[1.8231000000238282],51,0,51,0,1,5f096f8e95f9771fe09fe2d3,Kobieta,50,2021-07-13_21h43.13.547,rantool2,2021.1.4,MacIntel,59.99880002,5f096f8e95f9771fe09fe2d3,60d9d14f4a8a35a482e0d9bf,60edec909a710449d29fe226,,,,,,,,,,,,
"[""comma""]",0,[1.7027000000476846],52,0,52,0,1,5f096f8e95f9771fe09fe2d3,Kobieta,50,2021-07-13_21h43.13.547,rantool2,2021.1.4,MacIntel,59.99880002,5f096f8e95f9771fe09fe2d3,60d9d14f4a8a35a482e0d9bf,60edec909a710449d29fe226,,,,,,,,,,,,
"[""period""]",0,[1.702100000023819],53,0,53,0,1,5f096f8e95f9771fe09fe2d3,Kobieta,50,2021-07-13_21h43.13.547,rantool2,2021.1.4,MacIntel,59.99880002,5f096f8e95f9771fe09fe2d3,60d9d14f4a8a35a482e0d9bf,60edec909a710449d29fe226,,,,,,,,,,,,
"[""comma""]",0,[1.4055000000000177],54,0,54,0,1,5f096f8e95f9771fe09fe2d3,Kobieta,50,2021-07-13_21h43.13.547,rantool2,2021.1.4,MacIntel,59.99880002,5f096f8e95f9771fe09fe2d3,60d9d14f4a8a35a482e0d9bf,60edec909a710449d29fe226,,,,,,,,,,,,
"[""period""]",0,[1.1531000000238407],55,0,55,0,1,5f096f8e95f9771fe09fe2d3,Kobieta,50,2021-07-13_21h43.13.547,rantool2,2021.1.4,MacIntel,59.99880002,5f096f8e95f9771fe09fe2d3,60d9d14f4a8a35a482e0d9bf,60edec909a710449d29fe226,,,,,,,,,,,,
0,0,,56,0,56,0,1,5f096f8e95f9771fe09fe2d3,Kobieta,50,2021-07-13_21h43.13.547,rantool2,2021.1.4,MacIntel,59.99880002,5f096f8e95f9771fe09fe2d3,60d9d14f4a8a35a482e0d9bf,60edec909a710449d29fe226,,,,,,,,,,,,
"[""period""]",0,[0.2564999999999884],57,0,57,0,1,5f096f8e95f9771fe09fe2d3,Kobieta,50,2021-07-13_21h43.13.547,rantool2,2021.1.4,MacIntel,59.99880002,5f096f8e95f9771fe09fe2d3,60d9d14f4a8a35a482e0d9bf,60edec909a710449d29fe226,,,,,,,,,,,,
"[""comma""]",0,[0.2709000000357662],58,0,58,0,1,5f096f8e95f9771fe09fe2d3,Kobieta,50,2021-07-13_21h43.13.547,rantool2,2021.1.4,MacIntel,59.99880002,5f096f8e95f9771fe09fe2d3,60d9d14f4a8a35a482e0d9bf,60edec909a710449d29fe226,,,,,,,,,,,,
"[""period"",""comma""]",0,"[0.23720000004766462,1.7951000000238366]",59,0,59,0,1,5f096f8e95f9771fe09fe2d3,Kobieta,50,2021-07-13_21h43.13.547,rantool2,2021.1.4,MacIntel,59.99880002,5f096f8e95f9771fe09fe2d3,60d9d14f4a8a35a482e0d9bf,60edec909a710449d29fe226,,,,,,,,,,,,
"[""period""]",0,[1.5723999999761418],60,0,60,0,1,5f096f8e95f9771fe09fe2d3,Kobieta,50,2021-07-13_21h43.13.547,rantool2,2021.1.4,MacIntel,59.99880002,5f096f8e95f9771fe09fe2d3,60d9d14f4a8a35a482e0d9bf,60edec909a710449d29fe226,,,,,,,,,,,,
"[""period""]",0,[1.968999999999994],61,0,61,0,1,5f096f8e95f9771fe09fe2d3,Kobieta,50,2021-07-13_21h43.13.547,rantool2,2021.1.4,MacIntel,59.99880002,5f096f8e95f9771fe09fe2d3,60d9d14f4a8a35a482e0d9bf,60edec909a710449d29fe226,,,,,,,,,,,,
"[""comma""]",0,[1.6905999999642347],62,0,62,0,1,5f096f8e95f9771fe09fe2d3,Kobieta,50,2021-07-13_21h43.13.547,rantool2,2021.1.4,MacIntel,59.99880002,5f096f8e95f9771fe09fe2d3,60d9d14f4a8a35a482e0d9bf,60edec909a710449d29fe226,,,,,,,,,,,,
"[""comma""]",0,[1.7205000000000155],63,0,63,0,1,5f096f8e95f9771fe09fe2d3,Kobieta,50,2021-07-13_21h43.13.547,rantool2,2021.1.4,MacIntel,59.99880002,5f096f8e95f9771fe09fe2d3,60d9d14f4a8a35a482e0d9bf,60edec909a710449d29fe226,,,,,,,,,,,,
"[""period""]",0,[1.5554000000357746],64,0,64,0,1,5f096f8e95f9771fe09fe2d3,Kobieta,50,2021-07-13_21h43.13.547,rantool2,2021.1.4,MacIntel,59.99880002,5f096f8e95f9771fe09fe2d3,60d9d14f4a8a35a482e0d9bf,60edec909a710449d29fe226,,,,,,,,,,,,
"[""comma""]",0,[1.3468999999761593],65,0,65,0,1,5f096f8e95f9771fe09fe2d3,Kobieta,50,2021-07-13_21h43.13.547,rantool2,2021.1.4,MacIntel,59.99880002,5f096f8e95f9771fe09fe2d3,60d9d14f4a8a35a482e0d9bf,60edec909a710449d29fe226,,,,,,,,,,,,
"[""period""]",0,[1.3556999999880759],66,0,66,0,1,5f096f8e95f9771fe09fe2d3,Kobieta,50,2021-07-13_21h43.13.547,rantool2,2021.1.4,MacIntel,59.99880002,5f096f8e95f9771fe09fe2d3,60d9d14f4a8a35a482e0d9bf,60edec909a710449d29fe226,,,,,,,,,,,,
"[""period""]",0,[1.388699999988063],67,0,67,0,1,5f096f8e95f9771fe09fe2d3,Kobieta,50,2021-07-13_21h43.13.547,rantool2,2021.1.4,MacIntel,59.99880002,5f096f8e95f9771fe09fe2d3,60d9d14f4a8a35a482e0d9bf,60edec909a710449d29fe226,,,,,,,,,,,,
"[""comma""]",0,[1.6066999999880807],68,0,68,0,1,5f096f8e95f9771fe09fe2d3,Kobieta,50,2021-07-13_21h43.13.547,rantool2,2021.1.4,MacIntel,59.99880002,5f096f8e95f9771fe09fe2d3,60d9d14f4a8a35a482e0d9bf,60edec909a710449d29fe226,,,,,,,,,,,,
"[""period""]",0,[1.6339999999999861],69,0,69,0,1,5f096f8e95f9771fe09fe2d3,Kobieta,50,2021-07-13_21h43.13.547,rantool2,2021.1.4,MacIntel,59.99880002,5f096f8e95f9771fe09fe2d3,60d9d14f4a8a35a482e0d9bf,60edec909a710449d29fe226,,,,,,,,,,,,
"[""comma""]",0,[1.5516000000238535],70,0,70,0,1,5f096f8e95f9771fe09fe2d3,Kobieta,50,2021-07-13_21h43.13.547,rantool2,2021.1.4,MacIntel,59.99880002,5f096f8e95f9771fe09fe2d3,60d9d14f4a8a35a482e0d9bf,60edec909a710449d29fe226,,,,,,,,,,,,
"[""period""]",0,[1.3998999999761566],71,0,71,0,1,5f096f8e95f9771fe09fe2d3,Kobieta,50,2021-07-13_21h43.13.547,rantool2,2021.1.4,MacIntel,59.99880002,5f096f8e95f9771fe09fe2d3,60d9d14f4a8a35a482e0d9bf,60edec909a710449d29fe226,,,,,,,,,,,,
"[""comma""]",0,[1.5580999999642415],72,0,72,0,1,5f096f8e95f9771fe09fe2d3,Kobieta,50,2021-07-13_21h43.13.547,rantool2,2021.1.4,MacIntel,59.99880002,5f096f8e95f9771fe09fe2d3,60d9d14f4a8a35a482e0d9bf,60edec909a710449d29fe226,,,,,,,,,,,,
"[""period""]",0,[1.4005999999642427],73,0,73,0,1,5f096f8e95f9771fe09fe2d3,Kobieta,50,2021-07-13_21h43.13.547,rantool2,2021.1.4,MacIntel,59.99880002,5f096f8e95f9771fe09fe2d3,60d9d14f4a8a35a482e0d9bf,60edec909a710449d29fe226,,,,,,,,,,,,
"[""period""]",0,[1.4775999999642409],74,0,74,0,1,5f096f8e95f9771fe09fe2d3,Kobieta,50,2021-07-13_21h43.13.547,rantool2,2021.1.4,MacIntel,59.99880002,5f096f8e95f9771fe09fe2d3,60d9d14f4a8a35a482e0d9bf,60edec909a710449d29fe226,,,,,,,,,,,,
"[""period""]",0,[1.617600000023856],75,0,75,0,1,5f096f8e95f9771fe09fe2d3,Kobieta,50,2021-07-13_21h43.13.547,rantool2,2021.1.4,MacIntel,59.99880002,5f096f8e95f9771fe09fe2d3,60d9d14f4a8a35a482e0d9bf,60edec909a710449d29fe226,,,,,,,,,,,,
"[""period""]",0,[1.7679999999999438],76,0,76,0,1,5f096f8e95f9771fe09fe2d3,Kobieta,50,2021-07-13_21h43.13.547,rantool2,2021.1.4,MacIntel,59.99880002,5f096f8e95f9771fe09fe2d3,60d9d14f4a8a35a482e0d9bf,60edec909a710449d29fe226,,,,,,,,,,,,
"[""comma""]",0,[1.501400000035801],77,0,77,0,1,5f096f8e95f9771fe09fe2d3,Kobieta,50,2021-07-13_21h43.13.547,rantool2,2021.1.4,MacIntel,59.99880002,5f096f8e95f9771fe09fe2d3,60d9d14f4a8a35a482e0d9bf,60edec909a710449d29fe226,,,,,,,,,,,,
"[""comma""]",0,[1.7616999999880818],78,0,78,0,1,5f096f8e95f9771fe09fe2d3,Kobieta,50,2021-07-13_21h43.13.547,rantool2,2021.1.4,MacIntel,59.99880002,5f096f8e95f9771fe09fe2d3,60d9d14f4a8a35a482e0d9bf,60edec909a710449d29fe226,,,,,,,,,,,,
"[""period""]",0,[1.8536999999881232],79,0,79,0,1,5f096f8e95f9771fe09fe2d3,Kobieta,50,2021-07-13_21h43.13.547,rantool2,2021.1.4,MacIntel,59.99880002,5f096f8e95f9771fe09fe2d3,60d9d14f4a8a35a482e0d9bf,60edec909a710449d29fe226,,,,,,,,,,,,
"[""comma""]",0,[1.8700000000000045],80,0,80,0,1,5f096f8e95f9771fe09fe2d3,Kobieta,50,2021-07-13_21h43.13.547,rantool2,2021.1.4,MacIntel,59.99880002,5f096f8e95f9771fe09fe2d3,60d9d14f4a8a35a482e0d9bf,60edec909a710449d29fe226,,,,,,,,,,,,
"[""comma""]",0,[1.9450999999642136],81,0,81,0,1,5f096f8e95f9771fe09fe2d3,Kobieta,50,2021-07-13_21h43.13.547,rantool2,2021.1.4,MacIntel,59.99880002,5f096f8e95f9771fe09fe2d3,60d9d14f4a8a35a482e0d9bf,60edec909a710449d29fe226,,,,,,,,,,,,
"[""period""]",0,[1.853600000023846],82,0,82,0,1,5f096f8e95f9771fe09fe2d3,Kobieta,50,2021-07-13_21h43.13.547,rantool2,2021.1.4,MacIntel,59.99880002,5f096f8e95f9771fe09fe2d3,60d9d14f4a8a35a482e0d9bf,60edec909a710449d29fe226,,,,,,,,,,,,
"[""comma""]",0,[1.6011999999880686],83,0,83,0,1,5f096f8e95f9771fe09fe2d3,Kobieta,50,2021-07-13_21h43.13.547,rantool2,2021.1.4,MacIntel,59.99880002,5f096f8e95f9771fe09fe2d3,60d9d14f4a8a35a482e0d9bf,60edec909a710449d29fe226,,,,,,,,,,,,
"[""period""]",0,[1.55680000001189],84,0,84,0,1,5f096f8e95f9771fe09fe2d3,Kobieta,50,2021-07-13_21h43.13.547,rantool2,2021.1.4,MacIntel,59.99880002,5f096f8e95f9771fe09fe2d3,60d9d14f4a8a35a482e0d9bf,60edec909a710449d29fe226,,,,,,,,,,,,
"[""period""]",0,[1.5588999999761768],85,0,85,0,1,5f096f8e95f9771fe09fe2d3,Kobieta,50,2021-07-13_21h43.13.547,rantool2,2021.1.4,MacIntel,59.99880002,5f096f8e95f9771fe09fe2d3,60d9d14f4a8a35a482e0d9bf,60edec909a710449d29fe226,,,,,,,,,,,,
"[""period""]",0,[1.5699999999999932],86,0,86,0,1,5f096f8e95f9771fe09fe2d3,Kobieta,50,2021-07-13_21h43.13.547,rantool2,2021.1.4,MacIntel,59.99880002,5f096f8e95f9771fe09fe2d3,60d9d14f4a8a35a482e0d9bf,60edec909a710449d29fe226,,,,,,,,,,,,
"[""comma""]",0,[1.6543999999761922],87,0,87,0,1,5f096f8e95f9771fe09fe2d3,Kobieta,50,2021-07-13_21h43.13.547,rantool2,2021.1.4,MacIntel,59.99880002,5f096f8e95f9771fe09fe2d3,60d9d14f4a8a35a482e0d9bf,60edec909a710449d29fe226,,,,,,,,,,,,
"[""period""]",0,[1.5180999999642495],88,0,88,0,1,5f096f8e95f9771fe09fe2d3,Kobieta,50,2021-07-13_21h43.13.547,rantool2,2021.1.4,MacIntel,59.99880002,5f096f8e95f9771fe09fe2d3,60d9d14f4a8a35a482e0d9bf,60edec909a710449d29fe226,,,,,,,,,,,,
"[""comma""]",0,[1.43930000001194],89,0,89,0,1,5f096f8e95f9771fe09fe2d3,Kobieta,50,2021-07-13_21h43.13.547,rantool2,2021.1.4,MacIntel,59.99880002,5f096f8e95f9771fe09fe2d3,60d9d14f4a8a35a482e0d9bf,60edec909a710449d29fe226,,,,,,,,,,,,
0,0,,90,0,90,0,1,5f096f8e95f9771fe09fe2d3,Kobieta,50,2021-07-13_21h43.13.547,rantool2,2021.1.4,MacIntel,59.99880002,5f096f8e95f9771fe09fe2d3,60d9d14f4a8a35a482e0d9bf,60edec909a710449d29fe226,,,,,,,,,,,,
"[""comma""]",0,[0.08919999998806816],91,0,91,0,1,5f096f8e95f9771fe09fe2d3,Kobieta,50,2021-07-13_21h43.13.547,rantool2,2021.1.4,MacIntel,59.99880002,5f096f8e95f9771fe09fe2d3,60d9d14f4a8a35a482e0d9bf,60edec909a710449d29fe226,,,,,,,,,,,,
"[""period""]",0,[0.23260000002386505],92,0,92,0,1,5f096f8e95f9771fe09fe2d3,Kobieta,50,2021-07-13_21h43.13.547,rantool2,2021.1.4,MacIntel,59.99880002,5f096f8e95f9771fe09fe2d3,60d9d14f4a8a35a482e0d9bf,60edec909a710449d29fe226,,,,,,,,,,,,
"[""comma"",""period""]",0,"[0.18889999997617224,1.8358000000119432]",93,0,93,0,1,5f096f8e95f9771fe09fe2d3,Kobieta,50,2021-07-13_21h43.13.547,rantool2,2021.1.4,MacIntel,59.99880002,5f096f8e95f9771fe09fe2d3,60d9d14f4a8a35a482e0d9bf,60edec909a710449d29fe226,,,,,,,,,,,,
0,0,,94,0,94,0,1,5f096f8e95f9771fe09fe2d3,Kobieta,50,2021-07-13_21h43.13.547,rantool2,2021.1.4,MacIntel,59.99880002,5f096f8e95f9771fe09fe2d3,60d9d14f4a8a35a482e0d9bf,60edec909a710449d29fe226,,,,,,,,,,,,
"[""period"",""comma""]",0,"[0.0391000000238364,1.753499999999974]",95,0,95,0,1,5f096f8e95f9771fe09fe2d3,Kobieta,50,2021-07-13_21h43.13.547,rantool2,2021.1.4,MacIntel,59.99880002,5f096f8e95f9771fe09fe2d3,60d9d14f4a8a35a482e0d9bf,60edec909a710449d29fe226,,,,,,,,,,,,
"[""period""]",0,[1.6852999999522922],96,0,96,0,1,5f096f8e95f9771fe09fe2d3,Kobieta,50,2021-07-13_21h43.13.547,rantool2,2021.1.4,MacIntel,59.99880002,5f096f8e95f9771fe09fe2d3,60d9d14f4a8a35a482e0d9bf,60edec909a710449d29fe226,,,,,,,,,,,,
"[""comma""]",0,[1.5336000000238528],97,0,97,0,1,5f096f8e95f9771fe09fe2d3,Kobieta,50,2021-07-13_21h43.13.547,rantool2,2021.1.4,MacIntel,59.99880002,5f096f8e95f9771fe09fe2d3,60d9d14f4a8a35a482e0d9bf,60edec909a710449d29fe226,,,,,,,,,,,,
"[""comma""]",0,[1.7350000000000136],98,0,98,0,1,5f096f8e95f9771fe09fe2d3,Kobieta,50,2021-07-13_21h43.13.547,rantool2,2021.1.4,MacIntel,59.99880002,5f096f8e95f9771fe09fe2d3,60d9d14f4a8a35a482e0d9bf,60edec909a710449d29fe226,,,,,,,,,,,,
"[""period""]",0,[1.5518000000118946],99,0,99,0,1,5f096f8e95f9771fe09fe2d3,Kobieta,50,2021-07-13_21h43.13.547,rantool2,2021.1.4,MacIntel,59.99880002,5f096f8e95f9771fe09fe2d3,60d9d14f4a8a35a482e0d9bf,60edec909a710449d29fe226,,,,,,,,,,,,
"[""comma""]",0,[1.53449999999998],100,0,100,0,1,5f096f8e95f9771fe09fe2d3,Kobieta,50,2021-07-13_21h43.13.547,rantool2,2021.1.4,MacIntel,59.99880002,5f096f8e95f9771fe09fe2d3,60d9d14f4a8a35a482e0d9bf,60edec909a710449d29fe226,,,,,,,,,,,,
"[""period""]",0,[1.2861000000238505],101,0,101,0,1,5f096f8e95f9771fe09fe2d3,Kobieta,50,2021-07-13_21h43.13.547,rantool2,2021.1.4,MacIntel,59.99880002,5f096f8e95f9771fe09fe2d3,60d9d14f4a8a35a482e0d9bf,60edec909a710449d29fe226,,,,,,,,,,,,
"[""period""]",0,[0.8726999999880718],102,0,102,0,1,5f096f8e95f9771fe09fe2d3,Kobieta,50,2021-07-13_21h43.13.547,rantool2,2021.1.4,MacIntel,59.99880002,5f096f8e95f9771fe09fe2d3,60d9d14f4a8a35a482e0d9bf,60edec909a710449d29fe226,,,,,,,,,,,,
0,0,,103,0,103,0,1,5f096f8e95f9771fe09fe2d3,Kobieta,50,2021-07-13_21h43.13.547,rantool2,2021.1.4,MacIntel,59.99880002,5f096f8e95f9771fe09fe2d3,60d9d14f4a8a35a482e0d9bf,60edec909a710449d29fe226,,,,,,,,,,,,
"[""comma""]",0,[0.08559999996424494],104,0,104,0,1,5f096f8e95f9771fe09fe2d3,Kobieta,50,2021-07-13_21h43.13.547,rantool2,2021.1.4,MacIntel,59.99880002,5f096f8e95f9771fe09fe2d3,60d9d14f4a8a35a482e0d9bf,60edec909a710449d29fe226,,,,,,,,,,,,
"[""period""]",0,[0.03849999999999909],105,0,105,0,1,5f096f8e95f9771fe09fe2d3,Kobieta,50,2021-07-13_21h43.13.547,rantool2,2021.1.4,MacIntel,59.99880002,5f096f8e95f9771fe09fe2d3,60d9d14f4a8a35a482e0d9bf,60edec909a710449d29fe226,,,,,,,,,,,,
"[""comma""]",0,[0.28320000004771373],106,0,106,0,1,5f096f8e95f9771fe09fe2d3,Kobieta,50,2021-07-13_21h43.13.547,rantool2,2021.1.4,MacIntel,59.99880002,5f096f8e95f9771fe09fe2d3,60d9d14f4a8a35a482e0d9bf,60edec909a710449d29fe226,,,,,,,,,,,,
"[""period""]",0,[0.22390000003576915],107,0,107,0,1,5f096f8e95f9771fe09fe2d3,Kobieta,50,2021-07-13_21h43.13.547,rantool2,2021.1.4,MacIntel,59.99880002,5f096f8e95f9771fe09fe2d3,60d9d14f4a8a35a482e0d9bf,60edec909a710449d29fe226,,,,,,,,,,,,
"[""period"",""period""]",0,"[-0.005300000011914108,1.7730000000000246]",108,0,108,0,1,5f096f8e95f9771fe09fe2d3,Kobieta,50,2021-07-13_21h43.13.547,rantool2,2021.1.4,MacIntel,59.99880002,5f096f8e95f9771fe09fe2d3,60d9d14f4a8a35a482e0d9bf,60edec909a710449d29fe226,,,,,,,,,,,,
"[""comma""]",0,[1.5548000000119373],109,0,109,0,1,5f096f8e95f9771fe09fe2d3,Kobieta,50,2021-07-13_21h43.13.547,rantool2,2021.1.4,MacIntel,59.99880002,5f096f8e95f9771fe09fe2d3,60d9d14f4a8a35a482e0d9bf,60edec909a710449d29fe226,,,,,,,,,,,,
"[""comma""]",0,[1.90740000003575],110,0,110,0,1,5f096f8e95f9771fe09fe2d3,Kobieta,50,2021-07-13_21h43.13.547,rantool2,2021.1.4,MacIntel,59.99880002,5f096f8e95f9771fe09fe2d3,60d9d14f4a8a35a482e0d9bf,60edec909a710449d29fe226,,,,,,,,,,,,
"[""period""]",0,[1.8376999999880468],111,0,111,0,1,5f096f8e95f9771fe09fe2d3,Kobieta,50,2021-07-13_21h43.13.547,rantool2,2021.1.4,MacIntel,59.99880002,5f096f8e95f9771fe09fe2d3,60d9d14f4a8a35a482e0d9bf,60edec909a710449d29fe226,,,,,,,,,,,,
"[""comma""]",0,[1.8029000000357769],112,0,112,0,1,5f096f8e95f9771fe09fe2d3,Kobieta,50,2021-07-13_21h43.13.547,rantool2,2021.1.4,MacIntel,59.99880002,5f096f8e95f9771fe09fe2d3,60d9d14f4a8a35a482e0d9bf,60edec909a710449d29fe226,,,,,,,,,,,,
"[""period""]",0,[1.7227000000477233],113,0,113,0,1,5f096f8e95f9771fe09fe2d3,Kobieta,50,2021-07-13_21h43.13.547,rantool2,2021.1.4,MacIntel,59.99880002,5f096f8e95f9771fe09fe2d3,60d9d14f4a8a35a482e0d9bf,60edec909a710449d29fe226,,,,,,,,,,,,
"[""comma""]",0,[1.3875999999642659],114,0,114,0,1,5f096f8e95f9771fe09fe2d3,Kobieta,50,2021-07-13_21h43.13.547,rantool2,2021.1.4,MacIntel,59.99880002,5f096f8e95f9771fe09fe2d3,60d9d14f4a8a35a482e0d9bf,60edec909a710449d29fe226,,,,,,,,,,,,
"[""comma""]",0,[1.684500000000014],115,0,115,0,1,5f096f8e95f9771fe09fe2d3,Kobieta,50,2021-07-13_21h43.13.547,rantool2,2021.1.4,MacIntel,59.99880002,5f096f8e95f9771fe09fe2d3,60d9d14f4a8a35a482e0d9bf,60edec909a710449d29fe226,,,,,,,,,,,,
"[""period""]",0,[1.7191999999880636],116,0,116,0,1,5f096f8e95f9771fe09fe2d3,Kobieta,50,2021-07-13_21h43.13.547,rantool2,2021.1.4,MacIntel,59.99880002,5f096f8e95f9771fe09fe2d3,60d9d14f4a8a35a482e0d9bf,60edec909a710449d29fe226,,,,,,,,,,,,
"[""comma""]",0,[1.6569000000357619],117,0,117,0,1,5f096f8e95f9771fe09fe2d3,Kobieta,50,2021-07-13_21h43.13.547,rantool2,2021.1.4,MacIntel,59.99880002,5f096f8e95f9771fe09fe2d3,60d9d14f4a8a35a482e0d9bf,60edec909a710449d29fe226,,,,,,,,,,,,
"[""period""]",0,[1.7561000000238778],118,0,118,0,1,5f096f8e95f9771fe09fe2d3,Kobieta,50,2021-07-13_21h43.13.547,rantool2,2021.1.4,MacIntel,59.99880002,5f096f8e95f9771fe09fe2d3,60d9d14f4a8a35a482e0d9bf,60edec909a710449d29fe226,,,,,,,,,,,,
0,0,,119,0,119,0,1,5f096f8e95f9771fe09fe2d3,Kobieta,50,2021-07-13_21h43.13.547,rantool2,2021.1.4,MacIntel,59.99880002,5f096f8e95f9771fe09fe2d3,60d9d14f4a8a35a482e0d9bf,60edec909a710449d29fe226,,,,,,,,,,,,
,,,,,,,,5f096f8e95f9771fe09fe2d3,Kobieta,50,2021-07-13_21h43.13.547,rantool2,2021.1.4,MacIntel,59.99880002,5f096f8e95f9771fe09fe2d3,60d9d14f4a8a35a482e0d9bf,60edec909a710449d29fe226,j,3.0545,0,0,0,23,1,ORORRRO,ORORRRR,22.1285618,21.9921709,series_0
,,,,,,,,5f096f8e95f9771fe09fe2d3,Kobieta,50,2021-07-13_21h43.13.547,rantool2,2021.1.4,MacIntel,59.99880002,5f096f8e95f9771fe09fe2d3,60d9d14f4a8a35a482e0d9bf,60edec909a710449d29fe226,j,1.8551,0,1,1,33,1,ROOOORO,ROOOORR,20.83779602,22.03072203,series_1
,,,,,,,,5f096f8e95f9771fe09fe2d3,Kobieta,50,2021-07-13_21h43.13.547,rantool2,2021.1.4,MacIntel,59.99880002,5f096f8e95f9771fe09fe2d3,60d9d14f4a8a35a482e0d9bf,60edec909a710449d29fe226,f,2.1254,0,2,2,34,1,ROOOROO,ROOOROR,21.03750787,21.24781509,series_1
,,,,,,,,5f096f8e95f9771fe09fe2d3,Kobieta,50,2021-07-13_21h43.13.547,rantool2,2021.1.4,MacIntel,59.99880002,5f096f8e95f9771fe09fe2d3,60d9d14f4a8a35a482e0d9bf,60edec909a710449d29fe226,j,1.3071,0,3,3,10,1,OOROROO,OOROROR,21.31236711,21.07490964,series_0
,,,,,,,,5f096f8e95f9771fe09fe2d3,Kobieta,50,2021-07-13_21h43.13.547,rantool2,2021.1.4,MacIntel,59.99880002,5f096f8e95f9771fe09fe2d3,60d9d14f4a8a35a482e0d9bf,60edec909a710449d29fe226,j,1.7449,0,4,4,3,1,OOOORRO,OOOORRR,20.90986523,21.74922619,series_1
,,,,,,,,5f096f8e95f9771fe09fe2d3,Kobieta,50,2021-07-13_21h43.13.547,rantool2,2021.1.4,MacIntel,59.99880002,5f096f8e95f9771fe09fe2d3,60d9d14f4a8a35a482e0d9bf,60edec909a710449d29fe226,j,1.6823,0,5,5,27,1,ORRORRO,ORRORRR,21.55250791,22.2428857,series_1
,,,,,,,,5f096f8e95f9771fe09fe2d3,Kobieta,50,2021-07-13_21h43.13.547,rantool2,2021.1.4,MacIntel,59.99880002,5f096f8e95f9771fe09fe2d3,60d9d14f4a8a35a482e0d9bf,60edec909a710449d29fe226,f,1.59,0,6,6,47,1,RORRRRO,RORRRRR,21.81333602,21.02936224,series_0
,,,,,,,,5f096f8e95f9771fe09fe2d3,Kobieta,50,2021-07-13_21h43.13.547,rantool2,2021.1.4,MacIntel,59.99880002,5f096f8e95f9771fe09fe2d3,60d9d14f4a8a35a482e0d9bf,60edec909a710449d29fe226,j,1.1531,0,7,7,52,1,RROROOO,RROROOR,22.18365867,22.11097995,series_0
,,,,,,,,5f096f8e95f9771fe09fe2d3,Kobieta,50,2021-07-13_21h43.13.547,rantool2,2021.1.4,MacIntel,59.99880002,5f096f8e95f9771fe09fe2d3,60d9d14f4a8a35a482e0d9bf,60edec909a710449d29fe226,j,1.2598,0,8,8,58,1,RRROROO,RRROROR,22.1285618,21.37121559,series_0
,,,,,,,,5f096f8e95f9771fe09fe2d3,Kobieta,50,2021-07-13_21h43.13.547,rantool2,2021.1.4,MacIntel,59.99880002,5f096f8e95f9771fe09fe2d3,60d9d14f4a8a35a482e0d9bf,60edec909a710449d29fe226,j,1.3331,0,9,9,42,1,ROROROO,ROROROR,20.39515459,19.8361834,series_0
,,,,,,,,5f096f8e95f9771fe09fe2d3,Kobieta,50,2021-07-13_21h43.13.547,rantool2,2021.1.4,MacIntel,59.99880002,5f096f8e95f9771fe09fe2d3,60d9d14f4a8a35a482e0d9bf,60edec909a710449d29fe226,f,0.972,0,10,10,45,1,RORRORO,RORRORR,20.78182524,21.22513037,series_1
,,,,,,,,5f096f8e95f9771fe09fe2d3,Kobieta,50,2021-07-13_21h43.13.547,rantool2,2021.1.4,MacIntel,59.99880002,5f096f8e95f9771fe09fe2d3,60d9d14f4a8a35a482e0d9bf,60edec909a710449d29fe226,j,0.9663,0,11,11,57,1,RRROORO,RRROORR,21.82425538,22.07102821,series_1
,,,,,,,,5f096f8e95f9771fe09fe2d3,Kobieta,50,2021-07-13_21h43.13.547,rantool2,2021.1.4,MacIntel,59.99880002,5f096f8e95f9771fe09fe2d3,60d9d14f4a8a35a482e0d9bf,60edec909a710449d29fe226,f,1.0729,0,12,12,37,1,ROORORO,ROORORR,20.42602454,21.57657071,series_1
,,,,,,,,5f096f8e95f9771fe09fe2d3,Kobieta,50,2021-07-13_21h43.13.547,rantool2,2021.1.4,MacIntel,59.99880002,5f096f8e95f9771fe09fe2d3,60d9d14f4a8a35a482e0d9bf,60edec909a710449d29fe226,j,1.0214,0,13,13,14,1,OORRROO,OORRROR,22.24142883,22.16977179,series_0
,,,,,,,,5f096f8e95f9771fe09fe2d3,Kobieta,50,2021-07-13_21h43.13.547,rantool2,2021.1.4,MacIntel,59.99880002,5f096f8e95f9771fe09fe2d3,60d9d14f4a8a35a482e0d9bf,60edec909a710449d29fe226,f,1.0382,0,14,14,16,1,OROOOOO,OROOOOR,20.43051175,21.17347734,series_1
,,,,,,,,5f096f8e95f9771fe09fe2d3,Kobieta,50,2021-07-13_21h43.13.547,rantool2,2021.1.4,MacIntel,59.99880002,5f096f8e95f9771fe09fe2d3,60d9d14f4a8a35a482e0d9bf,60edec909a710449d29fe226,f,0.9468,0,15,15,60,1,RRRROOO,RRRROOR,22.10108823,22.15934078,series_1
,,,,,,,,5f096f8e95f9771fe09fe2d3,Kobieta,50,2021-07-13_21h43.13.547,rantool2,2021.1.4,MacIntel,59.99880002,5f096f8e95f9771fe09fe2d3,60d9d14f4a8a35a482e0d9bf,60edec909a710449d29fe226,j,1.0539,0,16,16,54,1,RRORROO,RRORROR,21.55250791,20.9984461,series_0
,,,,,,,,5f096f8e95f9771fe09fe2d3,Kobieta,50,2021-07-13_21h43.13.547,rantool2,2021.1.4,MacIntel,59.99880002,5f096f8e95f9771fe09fe2d3,60d9d14f4a8a35a482e0d9bf,60edec909a710449d29fe226,f,0.971,0,17,17,11,1,OORORRO,OORORRR,22.18365867,22.6797523,series_1
,,,,,,,,5f096f8e95f9771fe09fe2d3,Kobieta,50,2021-07-13_21h43.13.547,rantool2,2021.1.4,MacIntel,59.99880002,5f096f8e95f9771fe09fe2d3,60d9d14f4a8a35a482e0d9bf,60edec909a710449d29fe226,j,1.1093,0,18,18,9,1,OOROORO,OOROORR,21.07991943,22.2428857,series_1
,,,,,,,,5f096f8e95f9771fe09fe2d3,Kobieta,50,2021-07-13_21h43.13.547,rantool2,2021.1.4,MacIntel,59.99880002,5f096f8e95f9771fe09fe2d3,60d9d14f4a8a35a482e0d9bf,60edec909a710449d29fe226,f,1.6021,0,19,19,32,1,ROOOOOO,ROOOOOR,19.92253567,21.27974287,series_1
,,,,,,,,5f096f8e95f9771fe09fe2d3,Kobieta,50,2021-07-13_21h43.13.547,rantool2,2021.1.4,MacIntel,59.99880002,5f096f8e95f9771fe09fe2d3,60d9d14f4a8a35a482e0d9bf,60edec909a710449d29fe226,f,1.2056,0,20,20,38,1,ROORROO,ROORROR,21.79500819,21.36812781,series_0
,,,,,,,,5f096f8e95f9771fe09fe2d3,Kobieta,50,2021-07-13_21h43.13.547,rantool2,2021.1.4,MacIntel,59.99880002,5f096f8e95f9771fe09fe2d3,60d9d14f4a8a35a482e0d9bf,60edec909a710449d29fe226,j,1.0575,0,21,21,25,1,ORROORO,ORROORR,21.79500819,22.61624387,series_1
,,,,,,,,5f096f8e95f9771fe09fe2d3,Kobieta,50,2021-07-13_21h43.13.547,rantool2,2021.1.4,MacIntel,59.99880002,5f096f8e95f9771fe09fe2d3,60d9d14f4a8a35a482e0d9bf,60edec909a710449d29fe226,j,1.175,0,22,22,8,1,OOROOOO,OOROOOR,19.91402015,20.89823192,series_1
,,,,,,,,5f096f8e95f9771fe09fe2d3,Kobieta,50,2021-07-13_21h43.13.547,rantool2,2021.1.4,MacIntel,59.99880002,5f096f8e95f9771fe09fe2d3,60d9d14f4a8a35a482e0d9bf,60edec909a710449d29fe226,f,1.2633,0,23,23,5,1,OOORORO,OOORORR,20.87963819,21.9921709,series_1
,,,,,,,,5f096f8e95f9771fe09fe2d3,Kobieta,50,2021-07-13_21h43.13.547,rantool2,2021.1.4,MacIntel,59.99880002,5f096f8e95f9771fe09fe2d3,60d9d14f4a8a35a482e0d9bf,60edec909a710449d29fe226,j,0.9608,0,24,24,18,1,OROOROO,OROOROR,20.84860893,21.22513037,series_1
,,,,,,,,5f096f8e95f9771fe09fe2d3,Kobieta,50,2021-07-13_21h43.13.547,rantool2,2021.1.4,MacIntel,59.99880002,5f096f8e95f9771fe09fe2d3,60d9d14f4a8a35a482e0d9bf,60edec909a710449d29fe226,f,1.2025,0,25,25,0,1,OOOOOOO,OOOOOOR,18.52739004,19.62521613,series_1
,,,,,,,,5f096f8e95f9771fe09fe2d3,Kobieta,50,2021-07-13_21h43.13.547,rantool2,2021.1.4,MacIntel,59.99880002,5f096f8e95f9771fe09fe2d3,60d9d14f4a8a35a482e0d9bf,60edec909a710449d29fe226,j,1.5123,0,26,26,36,1,ROOROOO,ROOROOR,21.07991943,20.9984461,series_0
,,,,,,,,5f096f8e95f9771fe09fe2d3,Kobieta,50,2021-07-13_21h43.13.547,rantool2,2021.1.4,MacIntel,59.99880002,5f096f8e95f9771fe09fe2d3,60d9d14f4a8a35a482e0d9bf,60edec909a710449d29fe226,f,1.2597,0,27,27,31,1,ORRRRRO,ORRRRRR,22.16413392,20.74050628,series_0
,,,,,,,,5f096f8e95f9771fe09fe2d3,Kobieta,50,2021-07-13_21h43.13.547,rantool2,2021.1.4,MacIntel,59.99880002,5f096f8e95f9771fe09fe2d3,60d9d14f4a8a35a482e0d9bf,60edec909a710449d29fe226,j,1.1184,0,28,28,43,1,RORORRO,RORORRR,20.71309134,21.07490964,series_1
,,,,,,,,5f096f8e95f9771fe09fe2d3,Kobieta,50,2021-07-13_21h43.13.547,rantool2,2021.1.4,MacIntel,59.99880002,5f096f8e95f9771fe09fe2d3,60d9d14f4a8a35a482e0d9bf,60edec909a710449d29fe226,j,1.2843,0,29,29,6,1,OOORROO,OOORROR,21.12383932,21.38562617,series_1
,,,,,,,,5f096f8e95f9771fe09fe2d3,Kobieta,50,2021-07-13_21h43.13.547,rantool2,2021.1.4,MacIntel,59.99880002,5f096f8e95f9771fe09fe2d3,60d9d14f4a8a35a482e0d9bf,60edec909a710449d29fe226,j,1.7373,0,30,30,1,1,OOOOORO,OOOOORR,19.92253567,20.74050628,series_1
,,,,,,,,5f096f8e95f9771fe09fe2d3,Kobieta,50,2021-07-13_21h43.13.547,rantool2,2021.1.4,MacIntel,59.99880002,5f096f8e95f9771fe09fe2d3,60d9d14f4a8a35a482e0d9bf,60edec909a710449d29fe226,f,1.0717,0,31,31,21,1,ORORORO,ORORORR,20.39515459,22.06781359,series_1
,,,,,,,,5f096f8e95f9771fe09fe2d3,Kobieta,50,2021-07-13_21h43.13.547,rantool2,2021.1.4,MacIntel,59.99880002,5f096f8e95f9771fe09fe2d3,60d9d14f4a8a35a482e0d9bf,60edec909a710449d29fe226,j,1.3346,0,32,32,63,1,RRRRRRO,RRRRRRR,21.35278725,19.62521613,series_0
,,,,,,,,5f096f8e95f9771fe09fe2d3,Kobieta,50,2021-07-13_21h43.13.547,rantool2,2021.1.4,MacIntel,59.99880002,5f096f8e95f9771fe09fe2d3,60d9d14f4a8a35a482e0d9bf,60edec909a710449d29fe226,j,1.6769,0,33,33,15,1,OORRRRO,OORRRRR,22.10108823,21.74922619,series_0
,,,,,,,,5f096f8e95f9771fe09fe2d3,Kobieta,50,2021-07-13_21h43.13.547,rantool2,2021.1.4,MacIntel,59.99880002,5f096f8e95f9771fe09fe2d3,60d9d14f4a8a35a482e0d9bf,60edec909a710449d29fe226,f,1.7229,0,34,34,24,1,ORROOOO,ORROOOR,21.12383932,22.07102821,series_1
,,,,,,,,5f096f8e95f9771fe09fe2d3,Kobieta,50,2021-07-13_21h43.13.547,rantool2,2021.1.4,MacIntel,59.99880002,5f096f8e95f9771fe09fe2d3,60d9d14f4a8a35a482e0d9bf,60edec909a710449d29fe226,f,1.8553,0,35,35,41,1,ROROORO,ROROORR,20.42602454,21.71443381,series_1
,,,,,,,,5f096f8e95f9771fe09fe2d3,Kobieta,50,2021-07-13_21h43.13.547,rantool2,2021.1.4,MacIntel,59.99880002,5f096f8e95f9771fe09fe2d3,60d9d14f4a8a35a482e0d9bf,60edec909a710449d29fe226,j,1.3058,0,36,36,22,1,ORORROO,ORORROR,22.02732763,21.57657071,series_0
,,,,,,,,5f096f8e95f9771fe09fe2d3,Kobieta,50,2021-07-13_21h43.13.547,rantool2,2021.1.4,MacIntel,59.99880002,5f096f8e95f9771fe09fe2d3,60d9d14f4a8a35a482e0d9bf,60edec909a710449d29fe226,f,1.3418,0,37,37,56,1,RRROOOO,RRROOOR,21.6194508,22.31681875,series_1
,,,,,,,,5f096f8e95f9771fe09fe2d3,Kobieta,50,2021-07-13_21h43.13.547,rantool2,2021.1.4,MacIntel,59.99880002,5f096f8e95f9771fe09fe2d3,60d9d14f4a8a35a482e0d9bf,60edec909a710449d29fe226,f,1.3857,0,38,38,30,1,ORRRROO,ORRRROR,22.46748491,22.03072203,series_0
,,,,,,,,5f096f8e95f9771fe09fe2d3,Kobieta,50,2021-07-13_21h43.13.547,rantool2,2021.1.4,MacIntel,59.99880002,5f096f8e95f9771fe09fe2d3,60d9d14f4a8a35a482e0d9bf,60edec909a710449d29fe226,j,1.092,0,39,39,62,1,RRRRROO,RRRRROR,22.16413392,21.27974287,series_0
,,,,,,,,5f096f8e95f9771fe09fe2d3,Kobieta,50,2021-07-13_21h43.13.547,rantool2,2021.1.4,MacIntel,59.99880002,5f096f8e95f9771fe09fe2d3,60d9d14f4a8a35a482e0d9bf,60edec909a710449d29fe226,f,1.4034,0,40,40,35,1,ROOORRO,ROOORRR,21.76276513,22.16977179,series_1
,,,,,,,,5f096f8e95f9771fe09fe2d3,Kobieta,50,2021-07-13_21h43.13.547,rantool2,2021.1.4,MacIntel,59.99880002,5f096f8e95f9771fe09fe2d3,60d9d14f4a8a35a482e0d9bf,60edec909a710449d29fe226,j,1.0724,0,41,41,61,1,RRRRORO,RRRRORR,21.81333602,21.17347734,series_0
,,,,,,,,5f096f8e95f9771fe09fe2d3,Kobieta,50,2021-07-13_21h43.13.547,rantool2,2021.1.4,MacIntel,59.99880002,5f096f8e95f9771fe09fe2d3,60d9d14f4a8a35a482e0d9bf,60edec909a710449d29fe226,j,1.1385,0,42,42,7,1,OOORRRO,OOORRRR,21.6194508,21.899017,series_1
,,,,,,,,5f096f8e95f9771fe09fe2d3,Kobieta,50,2021-07-13_21h43.13.547,rantool2,2021.1.4,MacIntel,59.99880002,5f096f8e95f9771fe09fe2d3,60d9d14f4a8a35a482e0d9bf,60edec909a710449d29fe226,f,1.1248,0,43,43,40,1,ROROOOO,ROROOOR,20.87963819,21.37121559,series_1
,,,,,,,,5f096f8e95f9771fe09fe2d3,Kobieta,50,2021-07-13_21h43.13.547,rantool2,2021.1.4,MacIntel,59.99880002,5f096f8e95f9771fe09fe2d3,60d9d14f4a8a35a482e0d9bf,60edec909a710449d29fe226,j,1.1439,0,44,44,39,1,ROORRRO,ROORRRR,21.82425538,21.38562617,series_0
,,,,,,,,5f096f8e95f9771fe09fe2d3,Kobieta,50,2021-07-13_21h43.13.547,rantool2,2021.1.4,MacIntel,59.99880002,5f096f8e95f9771fe09fe2d3,60d9d14f4a8a35a482e0d9bf,60edec909a710449d29fe226,j,1.3682,0,45,45,17,1,OROOORO,OROOORR,21.03750787,22.12173012,series_1
,,,,,,,,5f096f8e95f9771fe09fe2d3,Kobieta,50,2021-07-13_21h43.13.547,rantool2,2021.1.4,MacIntel,59.99880002,5f096f8e95f9771fe09fe2d3,60d9d14f4a8a35a482e0d9bf,60edec909a710449d29fe226,j,1.3707,0,46,46,49,1,RROOORO,RROOORR,21.76276513,22.53364006,series_1
,,,,,,,,5f096f8e95f9771fe09fe2d3,Kobieta,50,2021-07-13_21h43.13.547,rantool2,2021.1.4,MacIntel,59.99880002,5f096f8e95f9771fe09fe2d3,60d9d14f4a8a35a482e0d9bf,60edec909a710449d29fe226,f,1.336,0,47,47,4,1,OOOROOO,OOOROOR,19.91402015,21.21223021,series_1
,,,,,,,,5f096f8e95f9771fe09fe2d3,Kobieta,50,2021-07-13_21h43.13.547,rantool2,2021.1.4,MacIntel,59.99880002,5f096f8e95f9771fe09fe2d3,60d9d14f4a8a35a482e0d9bf,60edec909a710449d29fe226,j,1.5015,0,48,48,44,1,RORROOO,RORROOR,21.66733484,22.02566557,series_1
,,,,,,,,5f096f8e95f9771fe09fe2d3,Kobieta,50,2021-07-13_21h43.13.547,rantool2,2021.1.4,MacIntel,59.99880002,5f096f8e95f9771fe09fe2d3,60d9d14f4a8a35a482e0d9bf,60edec909a710449d29fe226,f,1.1589,0,49,49,55,1,RRORRRO,RRORRRR,21.56657303,21.21223021,series_0
,,,,,,,,5f096f8e95f9771fe09fe2d3,Kobieta,50,2021-07-13_21h43.13.547,rantool2,2021.1.4,MacIntel,59.99880002,5f096f8e95f9771fe09fe2d3,60d9d14f4a8a35a482e0d9bf,60edec909a710449d29fe226,f,1.4758,0,50,50,50,1,RROOROO,RROOROR,21.73568164,22.02566557,series_1
,,,,,,,,5f096f8e95f9771fe09fe2d3,Kobieta,50,2021-07-13_21h43.13.547,rantool2,2021.1.4,MacIntel,59.99880002,5f096f8e95f9771fe09fe2d3,60d9d14f4a8a35a482e0d9bf,60edec909a710449d29fe226,j,1.3388,0,51,51,29,1,ORRRORO,ORRRORR,22.00300695,22.12173012,series_1
,,,,,,,,5f096f8e95f9771fe09fe2d3,Kobieta,50,2021-07-13_21h43.13.547,rantool2,2021.1.4,MacIntel,59.99880002,5f096f8e95f9771fe09fe2d3,60d9d14f4a8a35a482e0d9bf,60edec909a710449d29fe226,j,1.2703,0,52,52,2,1,OOOOROO,OOOOROR,20.43051175,21.02936224,series_1
,,,,,,,,5f096f8e95f9771fe09fe2d3,Kobieta,50,2021-07-13_21h43.13.547,rantool2,2021.1.4,MacIntel,59.99880002,5f096f8e95f9771fe09fe2d3,60d9d14f4a8a35a482e0d9bf,60edec909a710449d29fe226,f,1.2005,0,53,53,28,1,ORRROOO,ORRROOR,22.24142883,22.53364006,series_1
,,,,,,,,5f096f8e95f9771fe09fe2d3,Kobieta,50,2021-07-13_21h43.13.547,rantool2,2021.1.4,MacIntel,59.99880002,5f096f8e95f9771fe09fe2d3,60d9d14f4a8a35a482e0d9bf,60edec909a710449d29fe226,j,1.1216,0,54,54,59,1,RRRORRO,RRRORRR,21.56657303,20.89823192,series_0
,,,,,,,,5f096f8e95f9771fe09fe2d3,Kobieta,50,2021-07-13_21h43.13.547,rantool2,2021.1.4,MacIntel,59.99880002,5f096f8e95f9771fe09fe2d3,60d9d14f4a8a35a482e0d9bf,60edec909a710449d29fe226,f,1.421,0,55,55,48,1,RROOOOO,RROOOOR,20.90986523,22.15934078,series_1
,,,,,,,,5f096f8e95f9771fe09fe2d3,Kobieta,50,2021-07-13_21h43.13.547,rantool2,2021.1.4,MacIntel,59.99880002,5f096f8e95f9771fe09fe2d3,60d9d14f4a8a35a482e0d9bf,60edec909a710449d29fe226,f,1.2034,0,56,56,26,1,ORROROO,ORROROR,22.02732763,21.71443381,series_0
,,,,,,,,5f096f8e95f9771fe09fe2d3,Kobieta,50,2021-07-13_21h43.13.547,rantool2,2021.1.4,MacIntel,59.99880002,5f096f8e95f9771fe09fe2d3,60d9d14f4a8a35a482e0d9bf,60edec909a710449d29fe226,f,1.3674,0,57,57,19,1,OROORRO,OROORRR,21.73568164,22.11181017,series_1
,,,,,,,,5f096f8e95f9771fe09fe2d3,Kobieta,50,2021-07-13_21h43.13.547,rantool2,2021.1.4,MacIntel,59.99880002,5f096f8e95f9771fe09fe2d3,60d9d14f4a8a35a482e0d9bf,60edec909a710449d29fe226,j,1.3542,0,58,58,46,1,RORRROO,RORRROR,22.00300695,21.24781509,series_0
,,,,,,,,5f096f8e95f9771fe09fe2d3,Kobieta,50,2021-07-13_21h43.13.547,rantool2,2021.1.4,MacIntel,59.99880002,5f096f8e95f9771fe09fe2d3,60d9d14f4a8a35a482e0d9bf,60edec909a710449d29fe226,f,1.2047,0,59,59,13,1,OORRORO,OORRORR,21.66733484,22.11181017,series_1
,,,,,,,,5f096f8e95f9771fe09fe2d3,Kobieta,50,2021-07-13_21h43.13.547,rantool2,2021.1.4,MacIntel,59.99880002,5f096f8e95f9771fe09fe2d3,60d9d14f4a8a35a482e0d9bf,60edec909a710449d29fe226,j,1.4028,0,60,60,20,1,OROROOO,OROROOR,21.31236711,21.90565814,series_1
,,,,,,,,5f096f8e95f9771fe09fe2d3,Kobieta,50,2021-07-13_21h43.13.547,rantool2,2021.1.4,MacIntel,59.99880002,5f096f8e95f9771fe09fe2d3,60d9d14f4a8a35a482e0d9bf,60edec909a710449d29fe226,j,1.5051,0,61,61,51,1,RROORRO,RROORRR,21.89852628,22.02786418,series_1
,,,,,,,,5f096f8e95f9771fe09fe2d3,Kobieta,50,2021-07-13_21h43.13.547,rantool2,2021.1.4,MacIntel,59.99880002,5f096f8e95f9771fe09fe2d3,60d9d14f4a8a35a482e0d9bf,60edec909a710449d29fe226,f,1.2184,0,62,62,53,1,RRORORO,RRORORR,20.71309134,21.90565814,series_1
,,,,,,,,5f096f8e95f9771fe09fe2d3,Kobieta,50,2021-07-13_21h43.13.547,rantool2,2021.1.4,MacIntel,59.99880002,5f096f8e95f9771fe09fe2d3,60d9d14f4a8a35a482e0d9bf,60edec909a710449d29fe226,f,1.2745,0,63,63,12,1,OORROOO,OORROOR,21.30250474,22.02786418,series_1
