key_resp_5.keys,key_resp_5.corr,key_resp_5.rt,trials.thisRepN,trials.thisTrialN,trials.thisN,trials.thisIndex,trials.ran,id*,Płeć*,Wiek*,date,expName,psychopyVersion,OS,frameRate,id,STUDY_ID,SESSION_ID,key_resp_7.keys,key_resp_7.rt,trials_2.thisRepN,trials_2.thisTrialN,trials_2.thisN,trials_2.thisIndex,trials_2.ran,series_0,series_1,acss_0,acss_1,comparison
"[""comma""]",0,[1.597500000000025],0,0,0,0,1,603399f5ea514c052a6a2220,Mężczyzna,19,2021-07-13_21h32.23.686,rantool2,2021.1.4,Win32,143.8434983,603399f5ea514c052a6a2220,60d9d14f4a8a35a482e0d9bf,60edea32ed4bdc9ddfe24569,,,,,,,,,,,,
"[""period""]",0,[1.5476999999880832],1,0,1,0,1,603399f5ea514c052a6a2220,Mężczyzna,19,2021-07-13_21h32.23.686,rantool2,2021.1.4,Win32,143.8434983,603399f5ea514c052a6a2220,60d9d14f4a8a35a482e0d9bf,60edea32ed4bdc9ddfe24569,,,,,,,,,,,,
"[""period""]",0,[1.4446000000238541],2,0,2,0,1,603399f5ea514c052a6a2220,Mężczyzna,19,2021-07-13_21h32.23.686,rantool2,2021.1.4,Win32,143.8434983,603399f5ea514c052a6a2220,60d9d14f4a8a35a482e0d9bf,60edea32ed4bdc9ddfe24569,,,,,,,,,,,,
"[""comma""]",0,[1.3171999999880768],3,0,3,0,1,603399f5ea514c052a6a2220,Mężczyzna,19,2021-07-13_21h32.23.686,rantool2,2021.1.4,Win32,143.8434983,603399f5ea514c052a6a2220,60d9d14f4a8a35a482e0d9bf,60edea32ed4bdc9ddfe24569,,,,,,,,,,,,
"[""comma""]",0,[1.476200000017883],4,0,4,0,1,603399f5ea514c052a6a2220,Mężczyzna,19,2021-07-13_21h32.23.686,rantool2,2021.1.4,Win32,143.8434983,603399f5ea514c052a6a2220,60d9d14f4a8a35a482e0d9bf,60edea32ed4bdc9ddfe24569,,,,,,,,,,,,
"[""comma""]",0,[1.7222999999821127],5,0,5,0,1,603399f5ea514c052a6a2220,Mężczyzna,19,2021-07-13_21h32.23.686,rantool2,2021.1.4,Win32,143.8434983,603399f5ea514c052a6a2220,60d9d14f4a8a35a482e0d9bf,60edea32ed4bdc9ddfe24569,,,,,,,,,,,,
"[""period""]",0,[1.91220000001789],6,0,6,0,1,603399f5ea514c052a6a2220,Mężczyzna,19,2021-07-13_21h32.23.686,rantool2,2021.1.4,Win32,143.8434983,603399f5ea514c052a6a2220,60d9d14f4a8a35a482e0d9bf,60edea32ed4bdc9ddfe24569,,,,,,,,,,,,
0,0,,7,0,7,0,1,603399f5ea514c052a6a2220,Mężczyzna,19,2021-07-13_21h32.23.686,rantool2,2021.1.4,Win32,143.8434983,603399f5ea514c052a6a2220,60d9d14f4a8a35a482e0d9bf,60edea32ed4bdc9ddfe24569,,,,,,,,,,,,
"[""period""]",0,[0.14939999997616837],8,0,8,0,1,603399f5ea514c052a6a2220,Mężczyzna,19,2021-07-13_21h32.23.686,rantool2,2021.1.4,Win32,143.8434983,603399f5ea514c052a6a2220,60d9d14f4a8a35a482e0d9bf,60edea32ed4bdc9ddfe24569,,,,,,,,,,,,
"[""comma""]",0,[0.45979999998212406],9,0,9,0,1,603399f5ea514c052a6a2220,Mężczyzna,19,2021-07-13_21h32.23.686,rantool2,2021.1.4,Win32,143.8434983,603399f5ea514c052a6a2220,60d9d14f4a8a35a482e0d9bf,60edea32ed4bdc9ddfe24569,,,,,,,,,,,,
"[""period""]",0,[0.7019000000059634],10,0,10,0,1,603399f5ea514c052a6a2220,Mężczyzna,19,2021-07-13_21h32.23.686,rantool2,2021.1.4,Win32,143.8434983,603399f5ea514c052a6a2220,60d9d14f4a8a35a482e0d9bf,60edea32ed4bdc9ddfe24569,,,,,,,,,,,,
"[""period""]",0,[1.0695999999940398],11,0,11,0,1,603399f5ea514c052a6a2220,Mężczyzna,19,2021-07-13_21h32.23.686,rantool2,2021.1.4,Win32,143.8434983,603399f5ea514c052a6a2220,60d9d14f4a8a35a482e0d9bf,60edea32ed4bdc9ddfe24569,,,,,,,,,,,,
"[""comma""]",0,[0.3681999999880645],12,0,12,0,1,603399f5ea514c052a6a2220,Mężczyzna,19,2021-07-13_21h32.23.686,rantool2,2021.1.4,Win32,143.8434983,603399f5ea514c052a6a2220,60d9d14f4a8a35a482e0d9bf,60edea32ed4bdc9ddfe24569,,,,,,,,,,,,
"[""period"",""comma""]",0,"[0.25809999999404454,0.3694000000059816]",13,0,13,0,1,603399f5ea514c052a6a2220,Mężczyzna,19,2021-07-13_21h32.23.686,rantool2,2021.1.4,Win32,143.8434983,603399f5ea514c052a6a2220,60d9d14f4a8a35a482e0d9bf,60edea32ed4bdc9ddfe24569,,,,,,,,,,,,
"[""comma""]",0,[0.8404000000059568],14,0,14,0,1,603399f5ea514c052a6a2220,Mężczyzna,19,2021-07-13_21h32.23.686,rantool2,2021.1.4,Win32,143.8434983,603399f5ea514c052a6a2220,60d9d14f4a8a35a482e0d9bf,60edea32ed4bdc9ddfe24569,,,,,,,,,,,,
"[""period""]",0,[0.4136999999880686],15,0,15,0,1,603399f5ea514c052a6a2220,Mężczyzna,19,2021-07-13_21h32.23.686,rantool2,2021.1.4,Win32,143.8434983,603399f5ea514c052a6a2220,60d9d14f4a8a35a482e0d9bf,60edea32ed4bdc9ddfe24569,,,,,,,,,,,,
"[""comma""]",0,[0.47269999998809453],16,0,16,0,1,603399f5ea514c052a6a2220,Mężczyzna,19,2021-07-13_21h32.23.686,rantool2,2021.1.4,Win32,143.8434983,603399f5ea514c052a6a2220,60d9d14f4a8a35a482e0d9bf,60edea32ed4bdc9ddfe24569,,,,,,,,,,,,
"[""comma""]",0,[0.5579000000059864],17,0,17,0,1,603399f5ea514c052a6a2220,Mężczyzna,19,2021-07-13_21h32.23.686,rantool2,2021.1.4,Win32,143.8434983,603399f5ea514c052a6a2220,60d9d14f4a8a35a482e0d9bf,60edea32ed4bdc9ddfe24569,,,,,,,,,,,,
"[""period""]",0,[0.7504000000059534],18,0,18,0,1,603399f5ea514c052a6a2220,Mężczyzna,19,2021-07-13_21h32.23.686,rantool2,2021.1.4,Win32,143.8434983,603399f5ea514c052a6a2220,60d9d14f4a8a35a482e0d9bf,60edea32ed4bdc9ddfe24569,,,,,,,,,,,,
"[""period""]",0,[0.8611000000238391],19,0,19,0,1,603399f5ea514c052a6a2220,Mężczyzna,19,2021-07-13_21h32.23.686,rantool2,2021.1.4,Win32,143.8434983,603399f5ea514c052a6a2220,60d9d14f4a8a35a482e0d9bf,60edea32ed4bdc9ddfe24569,,,,,,,,,,,,
"[""comma""]",0,[0.6121000000238439],20,0,20,0,1,603399f5ea514c052a6a2220,Mężczyzna,19,2021-07-13_21h32.23.686,rantool2,2021.1.4,Win32,143.8434983,603399f5ea514c052a6a2220,60d9d14f4a8a35a482e0d9bf,60edea32ed4bdc9ddfe24569,,,,,,,,,,,,
"[""period""]",0,[0.683800000011928],21,0,21,0,1,603399f5ea514c052a6a2220,Mężczyzna,19,2021-07-13_21h32.23.686,rantool2,2021.1.4,Win32,143.8434983,603399f5ea514c052a6a2220,60d9d14f4a8a35a482e0d9bf,60edea32ed4bdc9ddfe24569,,,,,,,,,,,,
"[""comma""]",0,[0.6005000000000109],22,0,22,0,1,603399f5ea514c052a6a2220,Mężczyzna,19,2021-07-13_21h32.23.686,rantool2,2021.1.4,Win32,143.8434983,603399f5ea514c052a6a2220,60d9d14f4a8a35a482e0d9bf,60edea32ed4bdc9ddfe24569,,,,,,,,,,,,
"[""comma""]",0,[0.4827999999821202],23,0,23,0,1,603399f5ea514c052a6a2220,Mężczyzna,19,2021-07-13_21h32.23.686,rantool2,2021.1.4,Win32,143.8434983,603399f5ea514c052a6a2220,60d9d14f4a8a35a482e0d9bf,60edea32ed4bdc9ddfe24569,,,,,,,,,,,,
"[""period""]",0,[0.6389000000059468],24,0,24,0,1,603399f5ea514c052a6a2220,Mężczyzna,19,2021-07-13_21h32.23.686,rantool2,2021.1.4,Win32,143.8434983,603399f5ea514c052a6a2220,60d9d14f4a8a35a482e0d9bf,60edea32ed4bdc9ddfe24569,,,,,,,,,,,,
"[""period""]",0,[0.9737999999821341],25,0,25,0,1,603399f5ea514c052a6a2220,Mężczyzna,19,2021-07-13_21h32.23.686,rantool2,2021.1.4,Win32,143.8434983,603399f5ea514c052a6a2220,60d9d14f4a8a35a482e0d9bf,60edea32ed4bdc9ddfe24569,,,,,,,,,,,,
"[""comma""]",0,[0.4735999999940361],26,0,26,0,1,603399f5ea514c052a6a2220,Mężczyzna,19,2021-07-13_21h32.23.686,rantool2,2021.1.4,Win32,143.8434983,603399f5ea514c052a6a2220,60d9d14f4a8a35a482e0d9bf,60edea32ed4bdc9ddfe24569,,,,,,,,,,,,
"[""period""]",0,[0.6548000000119316],27,0,27,0,1,603399f5ea514c052a6a2220,Mężczyzna,19,2021-07-13_21h32.23.686,rantool2,2021.1.4,Win32,143.8434983,603399f5ea514c052a6a2220,60d9d14f4a8a35a482e0d9bf,60edea32ed4bdc9ddfe24569,,,,,,,,,,,,
"[""period""]",0,[0.6747000000178787],28,0,28,0,1,603399f5ea514c052a6a2220,Mężczyzna,19,2021-07-13_21h32.23.686,rantool2,2021.1.4,Win32,143.8434983,603399f5ea514c052a6a2220,60d9d14f4a8a35a482e0d9bf,60edea32ed4bdc9ddfe24569,,,,,,,,,,,,
"[""period""]",0,[0.14110000002384027],29,0,29,0,1,603399f5ea514c052a6a2220,Mężczyzna,19,2021-07-13_21h32.23.686,rantool2,2021.1.4,Win32,143.8434983,603399f5ea514c052a6a2220,60d9d14f4a8a35a482e0d9bf,60edea32ed4bdc9ddfe24569,,,,,,,,,,,,
"[""comma""]",0,[0.4029000000059568],30,0,30,0,1,603399f5ea514c052a6a2220,Mężczyzna,19,2021-07-13_21h32.23.686,rantool2,2021.1.4,Win32,143.8434983,603399f5ea514c052a6a2220,60d9d14f4a8a35a482e0d9bf,60edea32ed4bdc9ddfe24569,,,,,,,,,,,,
"[""period""]",0,[0.37599999999997635],31,0,31,0,1,603399f5ea514c052a6a2220,Mężczyzna,19,2021-07-13_21h32.23.686,rantool2,2021.1.4,Win32,143.8434983,603399f5ea514c052a6a2220,60d9d14f4a8a35a482e0d9bf,60edea32ed4bdc9ddfe24569,,,,,,,,,,,,
"[""period""]",0,[0.45159999999404477],32,0,32,0,1,603399f5ea514c052a6a2220,Mężczyzna,19,2021-07-13_21h32.23.686,rantool2,2021.1.4,Win32,143.8434983,603399f5ea514c052a6a2220,60d9d14f4a8a35a482e0d9bf,60edea32ed4bdc9ddfe24569,,,,,,,,,,,,
"[""comma""]",0,[0.8101000000238514],33,0,33,0,1,603399f5ea514c052a6a2220,Mężczyzna,19,2021-07-13_21h32.23.686,rantool2,2021.1.4,Win32,143.8434983,603399f5ea514c052a6a2220,60d9d14f4a8a35a482e0d9bf,60edea32ed4bdc9ddfe24569,,,,,,,,,,,,
"[""period""]",0,[0.7673999999761634],34,0,34,0,1,603399f5ea514c052a6a2220,Mężczyzna,19,2021-07-13_21h32.23.686,rantool2,2021.1.4,Win32,143.8434983,603399f5ea514c052a6a2220,60d9d14f4a8a35a482e0d9bf,60edea32ed4bdc9ddfe24569,,,,,,,,,,,,
"[""comma""]",0,[0.8402000000178589],35,0,35,0,1,603399f5ea514c052a6a2220,Mężczyzna,19,2021-07-13_21h32.23.686,rantool2,2021.1.4,Win32,143.8434983,603399f5ea514c052a6a2220,60d9d14f4a8a35a482e0d9bf,60edea32ed4bdc9ddfe24569,,,,,,,,,,,,
"[""period""]",0,[0.6827999999821088],36,0,36,0,1,603399f5ea514c052a6a2220,Mężczyzna,19,2021-07-13_21h32.23.686,rantool2,2021.1.4,Win32,143.8434983,603399f5ea514c052a6a2220,60d9d14f4a8a35a482e0d9bf,60edea32ed4bdc9ddfe24569,,,,,,,,,,,,
"[""comma""]",0,[0.2869999999999777],37,0,37,0,1,603399f5ea514c052a6a2220,Mężczyzna,19,2021-07-13_21h32.23.686,rantool2,2021.1.4,Win32,143.8434983,603399f5ea514c052a6a2220,60d9d14f4a8a35a482e0d9bf,60edea32ed4bdc9ddfe24569,,,,,,,,,,,,
"[""period""]",0,[0.368900000005965],38,0,38,0,1,603399f5ea514c052a6a2220,Mężczyzna,19,2021-07-13_21h32.23.686,rantool2,2021.1.4,Win32,143.8434983,603399f5ea514c052a6a2220,60d9d14f4a8a35a482e0d9bf,60edea32ed4bdc9ddfe24569,,,,,,,,,,,,
"[""period""]",0,[0.33480000001191],39,0,39,0,1,603399f5ea514c052a6a2220,Mężczyzna,19,2021-07-13_21h32.23.686,rantool2,2021.1.4,Win32,143.8434983,603399f5ea514c052a6a2220,60d9d14f4a8a35a482e0d9bf,60edea32ed4bdc9ddfe24569,,,,,,,,,,,,
"[""comma""]",0,[0.4599000000059732],40,0,40,0,1,603399f5ea514c052a6a2220,Mężczyzna,19,2021-07-13_21h32.23.686,rantool2,2021.1.4,Win32,143.8434983,603399f5ea514c052a6a2220,60d9d14f4a8a35a482e0d9bf,60edea32ed4bdc9ddfe24569,,,,,,,,,,,,
"[""comma""]",0,[0.43759999999403476],41,0,41,0,1,603399f5ea514c052a6a2220,Mężczyzna,19,2021-07-13_21h32.23.686,rantool2,2021.1.4,Win32,143.8434983,603399f5ea514c052a6a2220,60d9d14f4a8a35a482e0d9bf,60edea32ed4bdc9ddfe24569,,,,,,,,,,,,
"[""period""]",0,[0.3612999999821227],42,0,42,0,1,603399f5ea514c052a6a2220,Mężczyzna,19,2021-07-13_21h32.23.686,rantool2,2021.1.4,Win32,143.8434983,603399f5ea514c052a6a2220,60d9d14f4a8a35a482e0d9bf,60edea32ed4bdc9ddfe24569,,,,,,,,,,,,
"[""period""]",0,[0.4054999999999893],43,0,43,0,1,603399f5ea514c052a6a2220,Mężczyzna,19,2021-07-13_21h32.23.686,rantool2,2021.1.4,Win32,143.8434983,603399f5ea514c052a6a2220,60d9d14f4a8a35a482e0d9bf,60edea32ed4bdc9ddfe24569,,,,,,,,,,,,
"[""period""]",0,[0.4545999999940591],44,0,44,0,1,603399f5ea514c052a6a2220,Mężczyzna,19,2021-07-13_21h32.23.686,rantool2,2021.1.4,Win32,143.8434983,603399f5ea514c052a6a2220,60d9d14f4a8a35a482e0d9bf,60edea32ed4bdc9ddfe24569,,,,,,,,,,,,
"[""comma""]",0,[0.3961000000238357],45,0,45,0,1,603399f5ea514c052a6a2220,Mężczyzna,19,2021-07-13_21h32.23.686,rantool2,2021.1.4,Win32,143.8434983,603399f5ea514c052a6a2220,60d9d14f4a8a35a482e0d9bf,60edea32ed4bdc9ddfe24569,,,,,,,,,,,,
"[""period""]",0,[0.26179999998211656],46,0,46,0,1,603399f5ea514c052a6a2220,Mężczyzna,19,2021-07-13_21h32.23.686,rantool2,2021.1.4,Win32,143.8434983,603399f5ea514c052a6a2220,60d9d14f4a8a35a482e0d9bf,60edea32ed4bdc9ddfe24569,,,,,,,,,,,,
"[""comma""]",0,[0.2535000000000025],47,0,47,0,1,603399f5ea514c052a6a2220,Mężczyzna,19,2021-07-13_21h32.23.686,rantool2,2021.1.4,Win32,143.8434983,603399f5ea514c052a6a2220,60d9d14f4a8a35a482e0d9bf,60edea32ed4bdc9ddfe24569,,,,,,,,,,,,
"[""comma""]",0,[0.5211999999880845],48,0,48,0,1,603399f5ea514c052a6a2220,Mężczyzna,19,2021-07-13_21h32.23.686,rantool2,2021.1.4,Win32,143.8434983,603399f5ea514c052a6a2220,60d9d14f4a8a35a482e0d9bf,60edea32ed4bdc9ddfe24569,,,,,,,,,,,,
"[""period""]",0,[0.6610000000000014],49,0,49,0,1,603399f5ea514c052a6a2220,Mężczyzna,19,2021-07-13_21h32.23.686,rantool2,2021.1.4,Win32,143.8434983,603399f5ea514c052a6a2220,60d9d14f4a8a35a482e0d9bf,60edea32ed4bdc9ddfe24569,,,,,,,,,,,,
"[""comma""]",0,[0.8656999999880668],50,0,50,0,1,603399f5ea514c052a6a2220,Mężczyzna,19,2021-07-13_21h32.23.686,rantool2,2021.1.4,Win32,143.8434983,603399f5ea514c052a6a2220,60d9d14f4a8a35a482e0d9bf,60edea32ed4bdc9ddfe24569,,,,,,,,,,,,
"[""comma""]",0,[0.8299000000059493],51,0,51,0,1,603399f5ea514c052a6a2220,Mężczyzna,19,2021-07-13_21h32.23.686,rantool2,2021.1.4,Win32,143.8434983,603399f5ea514c052a6a2220,60d9d14f4a8a35a482e0d9bf,60edea32ed4bdc9ddfe24569,,,,,,,,,,,,
"[""comma""]",0,[0.38349999999999795],52,0,52,0,1,603399f5ea514c052a6a2220,Mężczyzna,19,2021-07-13_21h32.23.686,rantool2,2021.1.4,Win32,143.8434983,603399f5ea514c052a6a2220,60d9d14f4a8a35a482e0d9bf,60edea32ed4bdc9ddfe24569,,,,,,,,,,,,
"[""comma""]",0,[0.33459999999405454],53,0,53,0,1,603399f5ea514c052a6a2220,Mężczyzna,19,2021-07-13_21h32.23.686,rantool2,2021.1.4,Win32,143.8434983,603399f5ea514c052a6a2220,60d9d14f4a8a35a482e0d9bf,60edea32ed4bdc9ddfe24569,,,,,,,,,,,,
"[""period""]",0,[0.21560000002384072],54,0,54,0,1,603399f5ea514c052a6a2220,Mężczyzna,19,2021-07-13_21h32.23.686,rantool2,2021.1.4,Win32,143.8434983,603399f5ea514c052a6a2220,60d9d14f4a8a35a482e0d9bf,60edea32ed4bdc9ddfe24569,,,,,,,,,,,,
"[""comma""]",0,[0.01090000000596092],55,0,55,0,1,603399f5ea514c052a6a2220,Mężczyzna,19,2021-07-13_21h32.23.686,rantool2,2021.1.4,Win32,143.8434983,603399f5ea514c052a6a2220,60d9d14f4a8a35a482e0d9bf,60edea32ed4bdc9ddfe24569,,,,,,,,,,,,
"[""period""]",0,[0.39330000001191934],56,0,56,0,1,603399f5ea514c052a6a2220,Mężczyzna,19,2021-07-13_21h32.23.686,rantool2,2021.1.4,Win32,143.8434983,603399f5ea514c052a6a2220,60d9d14f4a8a35a482e0d9bf,60edea32ed4bdc9ddfe24569,,,,,,,,,,,,
"[""comma""]",0,[0.5630999999940514],57,0,57,0,1,603399f5ea514c052a6a2220,Mężczyzna,19,2021-07-13_21h32.23.686,rantool2,2021.1.4,Win32,143.8434983,603399f5ea514c052a6a2220,60d9d14f4a8a35a482e0d9bf,60edea32ed4bdc9ddfe24569,,,,,,,,,,,,
"[""period""]",0,[0.5723999999761702],58,0,58,0,1,603399f5ea514c052a6a2220,Mężczyzna,19,2021-07-13_21h32.23.686,rantool2,2021.1.4,Win32,143.8434983,603399f5ea514c052a6a2220,60d9d14f4a8a35a482e0d9bf,60edea32ed4bdc9ddfe24569,,,,,,,,,,,,
"[""comma""]",0,[0.48699999999999477],59,0,59,0,1,603399f5ea514c052a6a2220,Mężczyzna,19,2021-07-13_21h32.23.686,rantool2,2021.1.4,Win32,143.8434983,603399f5ea514c052a6a2220,60d9d14f4a8a35a482e0d9bf,60edea32ed4bdc9ddfe24569,,,,,,,,,,,,
"[""period""]",0,[0.44769999998808885],60,0,60,0,1,603399f5ea514c052a6a2220,Mężczyzna,19,2021-07-13_21h32.23.686,rantool2,2021.1.4,Win32,143.8434983,603399f5ea514c052a6a2220,60d9d14f4a8a35a482e0d9bf,60edea32ed4bdc9ddfe24569,,,,,,,,,,,,
"[""comma""]",0,[0.3055999999940582],61,0,61,0,1,603399f5ea514c052a6a2220,Mężczyzna,19,2021-07-13_21h32.23.686,rantool2,2021.1.4,Win32,143.8434983,603399f5ea514c052a6a2220,60d9d14f4a8a35a482e0d9bf,60edea32ed4bdc9ddfe24569,,,,,,,,,,,,
"[""comma""]",0,[0.3814999999999884],62,0,62,0,1,603399f5ea514c052a6a2220,Mężczyzna,19,2021-07-13_21h32.23.686,rantool2,2021.1.4,Win32,143.8434983,603399f5ea514c052a6a2220,60d9d14f4a8a35a482e0d9bf,60edea32ed4bdc9ddfe24569,,,,,,,,,,,,
"[""period""]",0,[0.43950000000000955],63,0,63,0,1,603399f5ea514c052a6a2220,Mężczyzna,19,2021-07-13_21h32.23.686,rantool2,2021.1.4,Win32,143.8434983,603399f5ea514c052a6a2220,60d9d14f4a8a35a482e0d9bf,60edea32ed4bdc9ddfe24569,,,,,,,,,,,,
"[""comma""]",0,[0.24409999999403453],64,0,64,0,1,603399f5ea514c052a6a2220,Mężczyzna,19,2021-07-13_21h32.23.686,rantool2,2021.1.4,Win32,143.8434983,603399f5ea514c052a6a2220,60d9d14f4a8a35a482e0d9bf,60edea32ed4bdc9ddfe24569,,,,,,,,,,,,
"[""period""]",0,[0.39640000000594],65,0,65,0,1,603399f5ea514c052a6a2220,Mężczyzna,19,2021-07-13_21h32.23.686,rantool2,2021.1.4,Win32,143.8434983,603399f5ea514c052a6a2220,60d9d14f4a8a35a482e0d9bf,60edea32ed4bdc9ddfe24569,,,,,,,,,,,,
"[""period""]",0,[0.7455999999940559],66,0,66,0,1,603399f5ea514c052a6a2220,Mężczyzna,19,2021-07-13_21h32.23.686,rantool2,2021.1.4,Win32,143.8434983,603399f5ea514c052a6a2220,60d9d14f4a8a35a482e0d9bf,60edea32ed4bdc9ddfe24569,,,,,,,,,,,,
"[""period""]",0,[0.4279000000059625],67,0,67,0,1,603399f5ea514c052a6a2220,Mężczyzna,19,2021-07-13_21h32.23.686,rantool2,2021.1.4,Win32,143.8434983,603399f5ea514c052a6a2220,60d9d14f4a8a35a482e0d9bf,60edea32ed4bdc9ddfe24569,,,,,,,,,,,,
"[""comma""]",0,[0.5829999999999984],68,0,68,0,1,603399f5ea514c052a6a2220,Mężczyzna,19,2021-07-13_21h32.23.686,rantool2,2021.1.4,Win32,143.8434983,603399f5ea514c052a6a2220,60d9d14f4a8a35a482e0d9bf,60edea32ed4bdc9ddfe24569,,,,,,,,,,,,
"[""comma""]",0,[1.1991999999880818],69,0,69,0,1,603399f5ea514c052a6a2220,Mężczyzna,19,2021-07-13_21h32.23.686,rantool2,2021.1.4,Win32,143.8434983,603399f5ea514c052a6a2220,60d9d14f4a8a35a482e0d9bf,60edea32ed4bdc9ddfe24569,,,,,,,,,,,,
"[""period""]",0,[0.4045999999940477],70,0,70,0,1,603399f5ea514c052a6a2220,Mężczyzna,19,2021-07-13_21h32.23.686,rantool2,2021.1.4,Win32,143.8434983,603399f5ea514c052a6a2220,60d9d14f4a8a35a482e0d9bf,60edea32ed4bdc9ddfe24569,,,,,,,,,,,,
"[""comma""]",0,[0.2650000000000148],71,0,71,0,1,603399f5ea514c052a6a2220,Mężczyzna,19,2021-07-13_21h32.23.686,rantool2,2021.1.4,Win32,143.8434983,603399f5ea514c052a6a2220,60d9d14f4a8a35a482e0d9bf,60edea32ed4bdc9ddfe24569,,,,,,,,,,,,
0,0,,72,0,72,0,1,603399f5ea514c052a6a2220,Mężczyzna,19,2021-07-13_21h32.23.686,rantool2,2021.1.4,Win32,143.8434983,603399f5ea514c052a6a2220,60d9d14f4a8a35a482e0d9bf,60edea32ed4bdc9ddfe24569,,,,,,,,,,,,
"[""period""]",0,[0.5649999999999977],73,0,73,0,1,603399f5ea514c052a6a2220,Mężczyzna,19,2021-07-13_21h32.23.686,rantool2,2021.1.4,Win32,143.8434983,603399f5ea514c052a6a2220,60d9d14f4a8a35a482e0d9bf,60edea32ed4bdc9ddfe24569,,,,,,,,,,,,
"[""comma""]",0,[0.945999999999998],74,0,74,0,1,603399f5ea514c052a6a2220,Mężczyzna,19,2021-07-13_21h32.23.686,rantool2,2021.1.4,Win32,143.8434983,603399f5ea514c052a6a2220,60d9d14f4a8a35a482e0d9bf,60edea32ed4bdc9ddfe24569,,,,,,,,,,,,
"[""comma""]",0,[0.444500000000005],75,0,75,0,1,603399f5ea514c052a6a2220,Mężczyzna,19,2021-07-13_21h32.23.686,rantool2,2021.1.4,Win32,143.8434983,603399f5ea514c052a6a2220,60d9d14f4a8a35a482e0d9bf,60edea32ed4bdc9ddfe24569,,,,,,,,,,,,
"[""comma""]",0,[0.7224999999999966],76,0,76,0,1,603399f5ea514c052a6a2220,Mężczyzna,19,2021-07-13_21h32.23.686,rantool2,2021.1.4,Win32,143.8434983,603399f5ea514c052a6a2220,60d9d14f4a8a35a482e0d9bf,60edea32ed4bdc9ddfe24569,,,,,,,,,,,,
"[""period""]",0,[0.7084999999999866],77,0,77,0,1,603399f5ea514c052a6a2220,Mężczyzna,19,2021-07-13_21h32.23.686,rantool2,2021.1.4,Win32,143.8434983,603399f5ea514c052a6a2220,60d9d14f4a8a35a482e0d9bf,60edea32ed4bdc9ddfe24569,,,,,,,,,,,,
"[""period""]",0,[0.5710999999940327],78,0,78,0,1,603399f5ea514c052a6a2220,Mężczyzna,19,2021-07-13_21h32.23.686,rantool2,2021.1.4,Win32,143.8434983,603399f5ea514c052a6a2220,60d9d14f4a8a35a482e0d9bf,60edea32ed4bdc9ddfe24569,,,,,,,,,,,,
"[""period""]",0,[0.7228000000119437],79,0,79,0,1,603399f5ea514c052a6a2220,Mężczyzna,19,2021-07-13_21h32.23.686,rantool2,2021.1.4,Win32,143.8434983,603399f5ea514c052a6a2220,60d9d14f4a8a35a482e0d9bf,60edea32ed4bdc9ddfe24569,,,,,,,,,,,,
"[""period""]",0,[1.1877999999821043],80,0,80,0,1,603399f5ea514c052a6a2220,Mężczyzna,19,2021-07-13_21h32.23.686,rantool2,2021.1.4,Win32,143.8434983,603399f5ea514c052a6a2220,60d9d14f4a8a35a482e0d9bf,60edea32ed4bdc9ddfe24569,,,,,,,,,,,,
"[""period""]",0,[0.62590000000597],81,0,81,0,1,603399f5ea514c052a6a2220,Mężczyzna,19,2021-07-13_21h32.23.686,rantool2,2021.1.4,Win32,143.8434983,603399f5ea514c052a6a2220,60d9d14f4a8a35a482e0d9bf,60edea32ed4bdc9ddfe24569,,,,,,,,,,,,
"[""comma""]",0,[0.30000000000001137],82,0,82,0,1,603399f5ea514c052a6a2220,Mężczyzna,19,2021-07-13_21h32.23.686,rantool2,2021.1.4,Win32,143.8434983,603399f5ea514c052a6a2220,60d9d14f4a8a35a482e0d9bf,60edea32ed4bdc9ddfe24569,,,,,,,,,,,,
"[""period""]",0,[0.48610000002383913],83,0,83,0,1,603399f5ea514c052a6a2220,Mężczyzna,19,2021-07-13_21h32.23.686,rantool2,2021.1.4,Win32,143.8434983,603399f5ea514c052a6a2220,60d9d14f4a8a35a482e0d9bf,60edea32ed4bdc9ddfe24569,,,,,,,,,,,,
"[""comma""]",0,[0.43229999998212065],84,0,84,0,1,603399f5ea514c052a6a2220,Mężczyzna,19,2021-07-13_21h32.23.686,rantool2,2021.1.4,Win32,143.8434983,603399f5ea514c052a6a2220,60d9d14f4a8a35a482e0d9bf,60edea32ed4bdc9ddfe24569,,,,,,,,,,,,
"[""comma""]",0,[0.6250999999940348],85,0,85,0,1,603399f5ea514c052a6a2220,Mężczyzna,19,2021-07-13_21h32.23.686,rantool2,2021.1.4,Win32,143.8434983,603399f5ea514c052a6a2220,60d9d14f4a8a35a482e0d9bf,60edea32ed4bdc9ddfe24569,,,,,,,,,,,,
"[""period""]",0,[0.836299999982117],86,0,86,0,1,603399f5ea514c052a6a2220,Mężczyzna,19,2021-07-13_21h32.23.686,rantool2,2021.1.4,Win32,143.8434983,603399f5ea514c052a6a2220,60d9d14f4a8a35a482e0d9bf,60edea32ed4bdc9ddfe24569,,,,,,,,,,,,
"[""period""]",0,[0.6255000000000166],87,0,87,0,1,603399f5ea514c052a6a2220,Mężczyzna,19,2021-07-13_21h32.23.686,rantool2,2021.1.4,Win32,143.8434983,603399f5ea514c052a6a2220,60d9d14f4a8a35a482e0d9bf,60edea32ed4bdc9ddfe24569,,,,,,,,,,,,
"[""comma""]",0,[0.5347999999821127],88,0,88,0,1,603399f5ea514c052a6a2220,Mężczyzna,19,2021-07-13_21h32.23.686,rantool2,2021.1.4,Win32,143.8434983,603399f5ea514c052a6a2220,60d9d14f4a8a35a482e0d9bf,60edea32ed4bdc9ddfe24569,,,,,,,,,,,,
"[""comma""]",0,[0.47569999998808044],89,0,89,0,1,603399f5ea514c052a6a2220,Mężczyzna,19,2021-07-13_21h32.23.686,rantool2,2021.1.4,Win32,143.8434983,603399f5ea514c052a6a2220,60d9d14f4a8a35a482e0d9bf,60edea32ed4bdc9ddfe24569,,,,,,,,,,,,
"[""comma""]",0,[0.4685999999940407],90,0,90,0,1,603399f5ea514c052a6a2220,Mężczyzna,19,2021-07-13_21h32.23.686,rantool2,2021.1.4,Win32,143.8434983,603399f5ea514c052a6a2220,60d9d14f4a8a35a482e0d9bf,60edea32ed4bdc9ddfe24569,,,,,,,,,,,,
"[""period""]",0,[0.614199999988017],91,0,91,0,1,603399f5ea514c052a6a2220,Mężczyzna,19,2021-07-13_21h32.23.686,rantool2,2021.1.4,Win32,143.8434983,603399f5ea514c052a6a2220,60d9d14f4a8a35a482e0d9bf,60edea32ed4bdc9ddfe24569,,,,,,,,,,,,
"[""comma""]",0,[0.3340000000000032],92,0,92,0,1,603399f5ea514c052a6a2220,Mężczyzna,19,2021-07-13_21h32.23.686,rantool2,2021.1.4,Win32,143.8434983,603399f5ea514c052a6a2220,60d9d14f4a8a35a482e0d9bf,60edea32ed4bdc9ddfe24569,,,,,,,,,,,,
"[""comma""]",0,[0.40980000001189865],93,0,93,0,1,603399f5ea514c052a6a2220,Mężczyzna,19,2021-07-13_21h32.23.686,rantool2,2021.1.4,Win32,143.8434983,603399f5ea514c052a6a2220,60d9d14f4a8a35a482e0d9bf,60edea32ed4bdc9ddfe24569,,,,,,,,,,,,
"[""comma""]",0,[0.5835999999940782],94,0,94,0,1,603399f5ea514c052a6a2220,Mężczyzna,19,2021-07-13_21h32.23.686,rantool2,2021.1.4,Win32,143.8434983,603399f5ea514c052a6a2220,60d9d14f4a8a35a482e0d9bf,60edea32ed4bdc9ddfe24569,,,,,,,,,,,,
"[""period""]",0,[0.8359000000059496],95,0,95,0,1,603399f5ea514c052a6a2220,Mężczyzna,19,2021-07-13_21h32.23.686,rantool2,2021.1.4,Win32,143.8434983,603399f5ea514c052a6a2220,60d9d14f4a8a35a482e0d9bf,60edea32ed4bdc9ddfe24569,,,,,,,,,,,,
"[""period""]",0,[0.437900000005925],96,0,96,0,1,603399f5ea514c052a6a2220,Mężczyzna,19,2021-07-13_21h32.23.686,rantool2,2021.1.4,Win32,143.8434983,603399f5ea514c052a6a2220,60d9d14f4a8a35a482e0d9bf,60edea32ed4bdc9ddfe24569,,,,,,,,,,,,
"[""period""]",0,[0.016799999982140434],97,0,97,0,1,603399f5ea514c052a6a2220,Mężczyzna,19,2021-07-13_21h32.23.686,rantool2,2021.1.4,Win32,143.8434983,603399f5ea514c052a6a2220,60d9d14f4a8a35a482e0d9bf,60edea32ed4bdc9ddfe24569,,,,,,,,,,,,
"[""comma""]",0,[0.4165999999940482],98,0,98,0,1,603399f5ea514c052a6a2220,Mężczyzna,19,2021-07-13_21h32.23.686,rantool2,2021.1.4,Win32,143.8434983,603399f5ea514c052a6a2220,60d9d14f4a8a35a482e0d9bf,60edea32ed4bdc9ddfe24569,,,,,,,,,,,,
"[""period"",""comma""]",0,"[0.2674999999999841,1.8830999999940445]",99,0,99,0,1,603399f5ea514c052a6a2220,Mężczyzna,19,2021-07-13_21h32.23.686,rantool2,2021.1.4,Win32,143.8434983,603399f5ea514c052a6a2220,60d9d14f4a8a35a482e0d9bf,60edea32ed4bdc9ddfe24569,,,,,,,,,,,,
"[""comma""]",0,[0.43780000001191866],100,0,100,0,1,603399f5ea514c052a6a2220,Mężczyzna,19,2021-07-13_21h32.23.686,rantool2,2021.1.4,Win32,143.8434983,603399f5ea514c052a6a2220,60d9d14f4a8a35a482e0d9bf,60edea32ed4bdc9ddfe24569,,,,,,,,,,,,
"[""period""]",0,[0.5213000000119337],101,0,101,0,1,603399f5ea514c052a6a2220,Mężczyzna,19,2021-07-13_21h32.23.686,rantool2,2021.1.4,Win32,143.8434983,603399f5ea514c052a6a2220,60d9d14f4a8a35a482e0d9bf,60edea32ed4bdc9ddfe24569,,,,,,,,,,,,
"[""period""]",0,[0.3620000000000232],102,0,102,0,1,603399f5ea514c052a6a2220,Mężczyzna,19,2021-07-13_21h32.23.686,rantool2,2021.1.4,Win32,143.8434983,603399f5ea514c052a6a2220,60d9d14f4a8a35a482e0d9bf,60edea32ed4bdc9ddfe24569,,,,,,,,,,,,
"[""period""]",0,[0.9265000000000327],103,0,103,0,1,603399f5ea514c052a6a2220,Mężczyzna,19,2021-07-13_21h32.23.686,rantool2,2021.1.4,Win32,143.8434983,603399f5ea514c052a6a2220,60d9d14f4a8a35a482e0d9bf,60edea32ed4bdc9ddfe24569,,,,,,,,,,,,
"[""period""]",0,[0.45490000000597774],104,0,104,0,1,603399f5ea514c052a6a2220,Mężczyzna,19,2021-07-13_21h32.23.686,rantool2,2021.1.4,Win32,143.8434983,603399f5ea514c052a6a2220,60d9d14f4a8a35a482e0d9bf,60edea32ed4bdc9ddfe24569,,,,,,,,,,,,
"[""period"",""period""]",0,"[0.11299999999999955,0.9120000000000346]",105,0,105,0,1,603399f5ea514c052a6a2220,Mężczyzna,19,2021-07-13_21h32.23.686,rantool2,2021.1.4,Win32,143.8434983,603399f5ea514c052a6a2220,60d9d14f4a8a35a482e0d9bf,60edea32ed4bdc9ddfe24569,,,,,,,,,,,,
"[""comma""]",0,[0.39190000000598957],106,0,106,0,1,603399f5ea514c052a6a2220,Mężczyzna,19,2021-07-13_21h32.23.686,rantool2,2021.1.4,Win32,143.8434983,603399f5ea514c052a6a2220,60d9d14f4a8a35a482e0d9bf,60edea32ed4bdc9ddfe24569,,,,,,,,,,,,
"[""comma""]",0,[0.4399999999999977],107,0,107,0,1,603399f5ea514c052a6a2220,Mężczyzna,19,2021-07-13_21h32.23.686,rantool2,2021.1.4,Win32,143.8434983,603399f5ea514c052a6a2220,60d9d14f4a8a35a482e0d9bf,60edea32ed4bdc9ddfe24569,,,,,,,,,,,,
"[""period"",""comma""]",0,"[0.6499000000059709,0.7224000000059618]",108,0,108,0,1,603399f5ea514c052a6a2220,Mężczyzna,19,2021-07-13_21h32.23.686,rantool2,2021.1.4,Win32,143.8434983,603399f5ea514c052a6a2220,60d9d14f4a8a35a482e0d9bf,60edea32ed4bdc9ddfe24569,,,,,,,,,,,,
"[""comma""]",0,[0.9513999999761609],109,0,109,0,1,603399f5ea514c052a6a2220,Mężczyzna,19,2021-07-13_21h32.23.686,rantool2,2021.1.4,Win32,143.8434983,603399f5ea514c052a6a2220,60d9d14f4a8a35a482e0d9bf,60edea32ed4bdc9ddfe24569,,,,,,,,,,,,
"[""comma""]",0,[0.9116999999881159],110,0,110,0,1,603399f5ea514c052a6a2220,Mężczyzna,19,2021-07-13_21h32.23.686,rantool2,2021.1.4,Win32,143.8434983,603399f5ea514c052a6a2220,60d9d14f4a8a35a482e0d9bf,60edea32ed4bdc9ddfe24569,,,,,,,,,,,,
"[""comma""]",0,[1.1383000000119523],111,0,111,0,1,603399f5ea514c052a6a2220,Mężczyzna,19,2021-07-13_21h32.23.686,rantool2,2021.1.4,Win32,143.8434983,603399f5ea514c052a6a2220,60d9d14f4a8a35a482e0d9bf,60edea32ed4bdc9ddfe24569,,,,,,,,,,,,
"[""period""]",0,[0.23340000000598593],112,0,112,0,1,603399f5ea514c052a6a2220,Mężczyzna,19,2021-07-13_21h32.23.686,rantool2,2021.1.4,Win32,143.8434983,603399f5ea514c052a6a2220,60d9d14f4a8a35a482e0d9bf,60edea32ed4bdc9ddfe24569,,,,,,,,,,,,
"[""period""]",0,[0.28840000000599275],113,0,113,0,1,603399f5ea514c052a6a2220,Mężczyzna,19,2021-07-13_21h32.23.686,rantool2,2021.1.4,Win32,143.8434983,603399f5ea514c052a6a2220,60d9d14f4a8a35a482e0d9bf,60edea32ed4bdc9ddfe24569,,,,,,,,,,,,
"[""comma""]",0,[0.5996999999881041],114,0,114,0,1,603399f5ea514c052a6a2220,Mężczyzna,19,2021-07-13_21h32.23.686,rantool2,2021.1.4,Win32,143.8434983,603399f5ea514c052a6a2220,60d9d14f4a8a35a482e0d9bf,60edea32ed4bdc9ddfe24569,,,,,,,,,,,,
"[""comma""]",0,[0.3416999999881227],115,0,115,0,1,603399f5ea514c052a6a2220,Mężczyzna,19,2021-07-13_21h32.23.686,rantool2,2021.1.4,Win32,143.8434983,603399f5ea514c052a6a2220,60d9d14f4a8a35a482e0d9bf,60edea32ed4bdc9ddfe24569,,,,,,,,,,,,
"[""period""]",0,[0.46279999998210997],116,0,116,0,1,603399f5ea514c052a6a2220,Mężczyzna,19,2021-07-13_21h32.23.686,rantool2,2021.1.4,Win32,143.8434983,603399f5ea514c052a6a2220,60d9d14f4a8a35a482e0d9bf,60edea32ed4bdc9ddfe24569,,,,,,,,,,,,
"[""comma""]",0,[0.5240000000000009],117,0,117,0,1,603399f5ea514c052a6a2220,Mężczyzna,19,2021-07-13_21h32.23.686,rantool2,2021.1.4,Win32,143.8434983,603399f5ea514c052a6a2220,60d9d14f4a8a35a482e0d9bf,60edea32ed4bdc9ddfe24569,,,,,,,,,,,,
"[""comma""]",0,[0.215900000005945],118,0,118,0,1,603399f5ea514c052a6a2220,Mężczyzna,19,2021-07-13_21h32.23.686,rantool2,2021.1.4,Win32,143.8434983,603399f5ea514c052a6a2220,60d9d14f4a8a35a482e0d9bf,60edea32ed4bdc9ddfe24569,,,,,,,,,,,,
"[""period""]",0,[0.33030000001190274],119,0,119,0,1,603399f5ea514c052a6a2220,Mężczyzna,19,2021-07-13_21h32.23.686,rantool2,2021.1.4,Win32,143.8434983,603399f5ea514c052a6a2220,60d9d14f4a8a35a482e0d9bf,60edea32ed4bdc9ddfe24569,,,,,,,,,,,,
,,,,,,,,603399f5ea514c052a6a2220,Mężczyzna,19,2021-07-13_21h32.23.686,rantool2,2021.1.4,Win32,143.8434983,603399f5ea514c052a6a2220,60d9d14f4a8a35a482e0d9bf,60edea32ed4bdc9ddfe24569,f,2.9068,0,0,0,37,1,ROORORO,ROORORR,20.42602454,21.57657071,series_1
,,,,,,,,603399f5ea514c052a6a2220,Mężczyzna,19,2021-07-13_21h32.23.686,rantool2,2021.1.4,Win32,143.8434983,603399f5ea514c052a6a2220,60d9d14f4a8a35a482e0d9bf,60edea32ed4bdc9ddfe24569,f,2.1104,0,1,1,52,1,RROROOO,RROROOR,22.18365867,22.11097995,series_0
,,,,,,,,603399f5ea514c052a6a2220,Mężczyzna,19,2021-07-13_21h32.23.686,rantool2,2021.1.4,Win32,143.8434983,603399f5ea514c052a6a2220,60d9d14f4a8a35a482e0d9bf,60edea32ed4bdc9ddfe24569,j,1.9109,0,2,2,50,1,RROOROO,RROOROR,21.73568164,22.02566557,series_1
,,,,,,,,603399f5ea514c052a6a2220,Mężczyzna,19,2021-07-13_21h32.23.686,rantool2,2021.1.4,Win32,143.8434983,603399f5ea514c052a6a2220,60d9d14f4a8a35a482e0d9bf,60edea32ed4bdc9ddfe24569,f,1.9165,0,3,3,4,1,OOOROOO,OOOROOR,19.91402015,21.21223021,series_1
,,,,,,,,603399f5ea514c052a6a2220,Mężczyzna,19,2021-07-13_21h32.23.686,rantool2,2021.1.4,Win32,143.8434983,603399f5ea514c052a6a2220,60d9d14f4a8a35a482e0d9bf,60edea32ed4bdc9ddfe24569,j,1.3368,0,4,4,2,1,OOOOROO,OOOOROR,20.43051175,21.02936224,series_1
,,,,,,,,603399f5ea514c052a6a2220,Mężczyzna,19,2021-07-13_21h32.23.686,rantool2,2021.1.4,Win32,143.8434983,603399f5ea514c052a6a2220,60d9d14f4a8a35a482e0d9bf,60edea32ed4bdc9ddfe24569,j,1.5096,0,5,5,43,1,RORORRO,RORORRR,20.71309134,21.07490964,series_1
,,,,,,,,603399f5ea514c052a6a2220,Mężczyzna,19,2021-07-13_21h32.23.686,rantool2,2021.1.4,Win32,143.8434983,603399f5ea514c052a6a2220,60d9d14f4a8a35a482e0d9bf,60edea32ed4bdc9ddfe24569,j,2.1132,0,6,6,54,1,RRORROO,RRORROR,21.55250791,20.9984461,series_0
,,,,,,,,603399f5ea514c052a6a2220,Mężczyzna,19,2021-07-13_21h32.23.686,rantool2,2021.1.4,Win32,143.8434983,603399f5ea514c052a6a2220,60d9d14f4a8a35a482e0d9bf,60edea32ed4bdc9ddfe24569,f,4.0548,0,7,7,23,1,ORORRRO,ORORRRR,22.1285618,21.9921709,series_0
,,,,,,,,603399f5ea514c052a6a2220,Mężczyzna,19,2021-07-13_21h32.23.686,rantool2,2021.1.4,Win32,143.8434983,603399f5ea514c052a6a2220,60d9d14f4a8a35a482e0d9bf,60edea32ed4bdc9ddfe24569,j,2.6048,0,8,8,14,1,OORRROO,OORRROR,22.24142883,22.16977179,series_0
,,,,,,,,603399f5ea514c052a6a2220,Mężczyzna,19,2021-07-13_21h32.23.686,rantool2,2021.1.4,Win32,143.8434983,603399f5ea514c052a6a2220,60d9d14f4a8a35a482e0d9bf,60edea32ed4bdc9ddfe24569,f,2.1534,0,9,9,8,1,OOROOOO,OOROOOR,19.91402015,20.89823192,series_1
,,,,,,,,603399f5ea514c052a6a2220,Mężczyzna,19,2021-07-13_21h32.23.686,rantool2,2021.1.4,Win32,143.8434983,603399f5ea514c052a6a2220,60d9d14f4a8a35a482e0d9bf,60edea32ed4bdc9ddfe24569,j,2.0906,0,10,10,46,1,RORRROO,RORRROR,22.00300695,21.24781509,series_0
,,,,,,,,603399f5ea514c052a6a2220,Mężczyzna,19,2021-07-13_21h32.23.686,rantool2,2021.1.4,Win32,143.8434983,603399f5ea514c052a6a2220,60d9d14f4a8a35a482e0d9bf,60edea32ed4bdc9ddfe24569,f,2.1197,0,11,11,32,1,ROOOOOO,ROOOOOR,19.92253567,21.27974287,series_1
,,,,,,,,603399f5ea514c052a6a2220,Mężczyzna,19,2021-07-13_21h32.23.686,rantool2,2021.1.4,Win32,143.8434983,603399f5ea514c052a6a2220,60d9d14f4a8a35a482e0d9bf,60edea32ed4bdc9ddfe24569,j,2.5971,0,12,12,60,1,RRRROOO,RRRROOR,22.10108823,22.15934078,series_1
,,,,,,,,603399f5ea514c052a6a2220,Mężczyzna,19,2021-07-13_21h32.23.686,rantool2,2021.1.4,Win32,143.8434983,603399f5ea514c052a6a2220,60d9d14f4a8a35a482e0d9bf,60edea32ed4bdc9ddfe24569,f,2.0967,0,13,13,16,1,OROOOOO,OROOOOR,20.43051175,21.17347734,series_1
,,,,,,,,603399f5ea514c052a6a2220,Mężczyzna,19,2021-07-13_21h32.23.686,rantool2,2021.1.4,Win32,143.8434983,603399f5ea514c052a6a2220,60d9d14f4a8a35a482e0d9bf,60edea32ed4bdc9ddfe24569,j,3.9786,0,14,14,57,1,RRROORO,RRROORR,21.82425538,22.07102821,series_1
,,,,,,,,603399f5ea514c052a6a2220,Mężczyzna,19,2021-07-13_21h32.23.686,rantool2,2021.1.4,Win32,143.8434983,603399f5ea514c052a6a2220,60d9d14f4a8a35a482e0d9bf,60edea32ed4bdc9ddfe24569,f,3.8043,0,15,15,13,1,OORRORO,OORRORR,21.66733484,22.11181017,series_1
,,,,,,,,603399f5ea514c052a6a2220,Mężczyzna,19,2021-07-13_21h32.23.686,rantool2,2021.1.4,Win32,143.8434983,603399f5ea514c052a6a2220,60d9d14f4a8a35a482e0d9bf,60edea32ed4bdc9ddfe24569,j,3.0244,0,16,16,58,1,RRROROO,RRROROR,22.1285618,21.37121559,series_0
,,,,,,,,603399f5ea514c052a6a2220,Mężczyzna,19,2021-07-13_21h32.23.686,rantool2,2021.1.4,Win32,143.8434983,603399f5ea514c052a6a2220,60d9d14f4a8a35a482e0d9bf,60edea32ed4bdc9ddfe24569,f,3.1678,0,17,17,51,1,RROORRO,RROORRR,21.89852628,22.02786418,series_1
,,,,,,,,603399f5ea514c052a6a2220,Mężczyzna,19,2021-07-13_21h32.23.686,rantool2,2021.1.4,Win32,143.8434983,603399f5ea514c052a6a2220,60d9d14f4a8a35a482e0d9bf,60edea32ed4bdc9ddfe24569,j,2.1665,0,18,18,44,1,RORROOO,RORROOR,21.66733484,22.02566557,series_1
,,,,,,,,603399f5ea514c052a6a2220,Mężczyzna,19,2021-07-13_21h32.23.686,rantool2,2021.1.4,Win32,143.8434983,603399f5ea514c052a6a2220,60d9d14f4a8a35a482e0d9bf,60edea32ed4bdc9ddfe24569,f,2.286,0,19,19,21,1,ORORORO,ORORORR,20.39515459,22.06781359,series_1
,,,,,,,,603399f5ea514c052a6a2220,Mężczyzna,19,2021-07-13_21h32.23.686,rantool2,2021.1.4,Win32,143.8434983,603399f5ea514c052a6a2220,60d9d14f4a8a35a482e0d9bf,60edea32ed4bdc9ddfe24569,f,4.0416,0,20,20,5,1,OOORORO,OOORORR,20.87963819,21.9921709,series_1
,,,,,,,,603399f5ea514c052a6a2220,Mężczyzna,19,2021-07-13_21h32.23.686,rantool2,2021.1.4,Win32,143.8434983,603399f5ea514c052a6a2220,60d9d14f4a8a35a482e0d9bf,60edea32ed4bdc9ddfe24569,f,3.8166,0,21,21,19,1,OROORRO,OROORRR,21.73568164,22.11181017,series_1
,,,,,,,,603399f5ea514c052a6a2220,Mężczyzna,19,2021-07-13_21h32.23.686,rantool2,2021.1.4,Win32,143.8434983,603399f5ea514c052a6a2220,60d9d14f4a8a35a482e0d9bf,60edea32ed4bdc9ddfe24569,j,1.6493,0,22,22,48,1,RROOOOO,RROOOOR,20.90986523,22.15934078,series_1
,,,,,,,,603399f5ea514c052a6a2220,Mężczyzna,19,2021-07-13_21h32.23.686,rantool2,2021.1.4,Win32,143.8434983,603399f5ea514c052a6a2220,60d9d14f4a8a35a482e0d9bf,60edea32ed4bdc9ddfe24569,f,2.1394,0,23,23,15,1,OORRRRO,OORRRRR,22.10108823,21.74922619,series_0
,,,,,,,,603399f5ea514c052a6a2220,Mężczyzna,19,2021-07-13_21h32.23.686,rantool2,2021.1.4,Win32,143.8434983,603399f5ea514c052a6a2220,60d9d14f4a8a35a482e0d9bf,60edea32ed4bdc9ddfe24569,j,3.0166,0,24,24,31,1,ORRRRRO,ORRRRRR,22.16413392,20.74050628,series_0
,,,,,,,,603399f5ea514c052a6a2220,Mężczyzna,19,2021-07-13_21h32.23.686,rantool2,2021.1.4,Win32,143.8434983,603399f5ea514c052a6a2220,60d9d14f4a8a35a482e0d9bf,60edea32ed4bdc9ddfe24569,f,4.0347,0,25,25,53,1,RRORORO,RRORORR,20.71309134,21.90565814,series_1
,,,,,,,,603399f5ea514c052a6a2220,Mężczyzna,19,2021-07-13_21h32.23.686,rantool2,2021.1.4,Win32,143.8434983,603399f5ea514c052a6a2220,60d9d14f4a8a35a482e0d9bf,60edea32ed4bdc9ddfe24569,j,2.4575,0,26,26,1,1,OOOOORO,OOOOORR,19.92253567,20.74050628,series_1
,,,,,,,,603399f5ea514c052a6a2220,Mężczyzna,19,2021-07-13_21h32.23.686,rantool2,2021.1.4,Win32,143.8434983,603399f5ea514c052a6a2220,60d9d14f4a8a35a482e0d9bf,60edea32ed4bdc9ddfe24569,f,2.3395,0,27,27,22,1,ORORROO,ORORROR,22.02732763,21.57657071,series_0
,,,,,,,,603399f5ea514c052a6a2220,Mężczyzna,19,2021-07-13_21h32.23.686,rantool2,2021.1.4,Win32,143.8434983,603399f5ea514c052a6a2220,60d9d14f4a8a35a482e0d9bf,60edea32ed4bdc9ddfe24569,j,1.3506,0,28,28,6,1,OOORROO,OOORROR,21.12383932,21.38562617,series_1
,,,,,,,,603399f5ea514c052a6a2220,Mężczyzna,19,2021-07-13_21h32.23.686,rantool2,2021.1.4,Win32,143.8434983,603399f5ea514c052a6a2220,60d9d14f4a8a35a482e0d9bf,60edea32ed4bdc9ddfe24569,f,3.1075,0,29,29,27,1,ORRORRO,ORRORRR,21.55250791,22.2428857,series_1
,,,,,,,,603399f5ea514c052a6a2220,Mężczyzna,19,2021-07-13_21h32.23.686,rantool2,2021.1.4,Win32,143.8434983,603399f5ea514c052a6a2220,60d9d14f4a8a35a482e0d9bf,60edea32ed4bdc9ddfe24569,j,3.3973,0,30,30,25,1,ORROORO,ORROORR,21.79500819,22.61624387,series_1
,,,,,,,,603399f5ea514c052a6a2220,Mężczyzna,19,2021-07-13_21h32.23.686,rantool2,2021.1.4,Win32,143.8434983,603399f5ea514c052a6a2220,60d9d14f4a8a35a482e0d9bf,60edea32ed4bdc9ddfe24569,f,2.0339,0,31,31,34,1,ROOOROO,ROOOROR,21.03750787,21.24781509,series_1
,,,,,,,,603399f5ea514c052a6a2220,Mężczyzna,19,2021-07-13_21h32.23.686,rantool2,2021.1.4,Win32,143.8434983,603399f5ea514c052a6a2220,60d9d14f4a8a35a482e0d9bf,60edea32ed4bdc9ddfe24569,j,2.5592,0,32,32,7,1,OOORRRO,OOORRRR,21.6194508,21.899017,series_1
,,,,,,,,603399f5ea514c052a6a2220,Mężczyzna,19,2021-07-13_21h32.23.686,rantool2,2021.1.4,Win32,143.8434983,603399f5ea514c052a6a2220,60d9d14f4a8a35a482e0d9bf,60edea32ed4bdc9ddfe24569,f,2.6803,0,33,33,63,1,RRRRRRO,RRRRRRR,21.35278725,19.62521613,series_0
,,,,,,,,603399f5ea514c052a6a2220,Mężczyzna,19,2021-07-13_21h32.23.686,rantool2,2021.1.4,Win32,143.8434983,603399f5ea514c052a6a2220,60d9d14f4a8a35a482e0d9bf,60edea32ed4bdc9ddfe24569,j,2.6755,0,34,34,47,1,RORRRRO,RORRRRR,21.81333602,21.02936224,series_0
,,,,,,,,603399f5ea514c052a6a2220,Mężczyzna,19,2021-07-13_21h32.23.686,rantool2,2021.1.4,Win32,143.8434983,603399f5ea514c052a6a2220,60d9d14f4a8a35a482e0d9bf,60edea32ed4bdc9ddfe24569,f,1.7375,0,35,35,39,1,ROORRRO,ROORRRR,21.82425538,21.38562617,series_0
,,,,,,,,603399f5ea514c052a6a2220,Mężczyzna,19,2021-07-13_21h32.23.686,rantool2,2021.1.4,Win32,143.8434983,603399f5ea514c052a6a2220,60d9d14f4a8a35a482e0d9bf,60edea32ed4bdc9ddfe24569,j,1.7301,0,36,36,36,1,ROOROOO,ROOROOR,21.07991943,20.9984461,series_0
,,,,,,,,603399f5ea514c052a6a2220,Mężczyzna,19,2021-07-13_21h32.23.686,rantool2,2021.1.4,Win32,143.8434983,603399f5ea514c052a6a2220,60d9d14f4a8a35a482e0d9bf,60edea32ed4bdc9ddfe24569,f,2.2155,0,37,37,30,1,ORRRROO,ORRRROR,22.46748491,22.03072203,series_0
,,,,,,,,603399f5ea514c052a6a2220,Mężczyzna,19,2021-07-13_21h32.23.686,rantool2,2021.1.4,Win32,143.8434983,603399f5ea514c052a6a2220,60d9d14f4a8a35a482e0d9bf,60edea32ed4bdc9ddfe24569,j,1.7111,0,38,38,59,1,RRRORRO,RRRORRR,21.56657303,20.89823192,series_0
,,,,,,,,603399f5ea514c052a6a2220,Mężczyzna,19,2021-07-13_21h32.23.686,rantool2,2021.1.4,Win32,143.8434983,603399f5ea514c052a6a2220,60d9d14f4a8a35a482e0d9bf,60edea32ed4bdc9ddfe24569,f,3.6741,0,39,39,3,1,OOOORRO,OOOORRR,20.90986523,21.74922619,series_1
,,,,,,,,603399f5ea514c052a6a2220,Mężczyzna,19,2021-07-13_21h32.23.686,rantool2,2021.1.4,Win32,143.8434983,603399f5ea514c052a6a2220,60d9d14f4a8a35a482e0d9bf,60edea32ed4bdc9ddfe24569,j,1.4198,0,40,40,26,1,ORROROO,ORROROR,22.02732763,21.71443381,series_0
,,,,,,,,603399f5ea514c052a6a2220,Mężczyzna,19,2021-07-13_21h32.23.686,rantool2,2021.1.4,Win32,143.8434983,603399f5ea514c052a6a2220,60d9d14f4a8a35a482e0d9bf,60edea32ed4bdc9ddfe24569,f,1.5494,0,41,41,35,1,ROOORRO,ROOORRR,21.76276513,22.16977179,series_1
,,,,,,,,603399f5ea514c052a6a2220,Mężczyzna,19,2021-07-13_21h32.23.686,rantool2,2021.1.4,Win32,143.8434983,603399f5ea514c052a6a2220,60d9d14f4a8a35a482e0d9bf,60edea32ed4bdc9ddfe24569,f,2.8953,0,42,42,9,1,OOROORO,OOROORR,21.07991943,22.2428857,series_1
,,,,,,,,603399f5ea514c052a6a2220,Mężczyzna,19,2021-07-13_21h32.23.686,rantool2,2021.1.4,Win32,143.8434983,603399f5ea514c052a6a2220,60d9d14f4a8a35a482e0d9bf,60edea32ed4bdc9ddfe24569,f,3.0827,0,43,43,62,1,RRRRROO,RRRRROR,22.16413392,21.27974287,series_0
,,,,,,,,603399f5ea514c052a6a2220,Mężczyzna,19,2021-07-13_21h32.23.686,rantool2,2021.1.4,Win32,143.8434983,603399f5ea514c052a6a2220,60d9d14f4a8a35a482e0d9bf,60edea32ed4bdc9ddfe24569,j,2.5493,0,44,44,17,1,OROOORO,OROOORR,21.03750787,22.12173012,series_1
,,,,,,,,603399f5ea514c052a6a2220,Mężczyzna,19,2021-07-13_21h32.23.686,rantool2,2021.1.4,Win32,143.8434983,603399f5ea514c052a6a2220,60d9d14f4a8a35a482e0d9bf,60edea32ed4bdc9ddfe24569,f,2.9325,0,45,45,33,1,ROOOORO,ROOOORR,20.83779602,22.03072203,series_1
,,,,,,,,603399f5ea514c052a6a2220,Mężczyzna,19,2021-07-13_21h32.23.686,rantool2,2021.1.4,Win32,143.8434983,603399f5ea514c052a6a2220,60d9d14f4a8a35a482e0d9bf,60edea32ed4bdc9ddfe24569,j,2.7144,0,46,46,12,1,OORROOO,OORROOR,21.30250474,22.02786418,series_1
,,,,,,,,603399f5ea514c052a6a2220,Mężczyzna,19,2021-07-13_21h32.23.686,rantool2,2021.1.4,Win32,143.8434983,603399f5ea514c052a6a2220,60d9d14f4a8a35a482e0d9bf,60edea32ed4bdc9ddfe24569,f,1.5828,0,47,47,41,1,ROROORO,ROROORR,20.42602454,21.71443381,series_1
,,,,,,,,603399f5ea514c052a6a2220,Mężczyzna,19,2021-07-13_21h32.23.686,rantool2,2021.1.4,Win32,143.8434983,603399f5ea514c052a6a2220,60d9d14f4a8a35a482e0d9bf,60edea32ed4bdc9ddfe24569,j,2.3898,0,48,48,49,1,RROOORO,RROOORR,21.76276513,22.53364006,series_1
,,,,,,,,603399f5ea514c052a6a2220,Mężczyzna,19,2021-07-13_21h32.23.686,rantool2,2021.1.4,Win32,143.8434983,603399f5ea514c052a6a2220,60d9d14f4a8a35a482e0d9bf,60edea32ed4bdc9ddfe24569,f,4.3608,0,49,49,45,1,RORRORO,RORRORR,20.78182524,21.22513037,series_1
,,,,,,,,603399f5ea514c052a6a2220,Mężczyzna,19,2021-07-13_21h32.23.686,rantool2,2021.1.4,Win32,143.8434983,603399f5ea514c052a6a2220,60d9d14f4a8a35a482e0d9bf,60edea32ed4bdc9ddfe24569,j,4.1584,0,50,50,38,1,ROORROO,ROORROR,21.79500819,21.36812781,series_0
,,,,,,,,603399f5ea514c052a6a2220,Mężczyzna,19,2021-07-13_21h32.23.686,rantool2,2021.1.4,Win32,143.8434983,603399f5ea514c052a6a2220,60d9d14f4a8a35a482e0d9bf,60edea32ed4bdc9ddfe24569,f,4.1886,0,51,51,11,1,OORORRO,OORORRR,22.18365867,22.6797523,series_1
,,,,,,,,603399f5ea514c052a6a2220,Mężczyzna,19,2021-07-13_21h32.23.686,rantool2,2021.1.4,Win32,143.8434983,603399f5ea514c052a6a2220,60d9d14f4a8a35a482e0d9bf,60edea32ed4bdc9ddfe24569,j,2.736,0,52,52,61,1,RRRRORO,RRRRORR,21.81333602,21.17347734,series_0
,,,,,,,,603399f5ea514c052a6a2220,Mężczyzna,19,2021-07-13_21h32.23.686,rantool2,2021.1.4,Win32,143.8434983,603399f5ea514c052a6a2220,60d9d14f4a8a35a482e0d9bf,60edea32ed4bdc9ddfe24569,f,2.6483,0,53,53,10,1,OOROROO,OOROROR,21.31236711,21.07490964,series_0
,,,,,,,,603399f5ea514c052a6a2220,Mężczyzna,19,2021-07-13_21h32.23.686,rantool2,2021.1.4,Win32,143.8434983,603399f5ea514c052a6a2220,60d9d14f4a8a35a482e0d9bf,60edea32ed4bdc9ddfe24569,j,2.1061,0,54,54,42,1,ROROROO,ROROROR,20.39515459,19.8361834,series_0
,,,,,,,,603399f5ea514c052a6a2220,Mężczyzna,19,2021-07-13_21h32.23.686,rantool2,2021.1.4,Win32,143.8434983,603399f5ea514c052a6a2220,60d9d14f4a8a35a482e0d9bf,60edea32ed4bdc9ddfe24569,f,1.9118,0,55,55,28,1,ORRROOO,ORRROOR,22.24142883,22.53364006,series_1
,,,,,,,,603399f5ea514c052a6a2220,Mężczyzna,19,2021-07-13_21h32.23.686,rantool2,2021.1.4,Win32,143.8434983,603399f5ea514c052a6a2220,60d9d14f4a8a35a482e0d9bf,60edea32ed4bdc9ddfe24569,j,1.2008,0,56,56,20,1,OROROOO,OROROOR,21.31236711,21.90565814,series_1
,,,,,,,,603399f5ea514c052a6a2220,Mężczyzna,19,2021-07-13_21h32.23.686,rantool2,2021.1.4,Win32,143.8434983,603399f5ea514c052a6a2220,60d9d14f4a8a35a482e0d9bf,60edea32ed4bdc9ddfe24569,f,4.2315,0,57,57,29,1,ORRRORO,ORRRORR,22.00300695,22.12173012,series_1
,,,,,,,,603399f5ea514c052a6a2220,Mężczyzna,19,2021-07-13_21h32.23.686,rantool2,2021.1.4,Win32,143.8434983,603399f5ea514c052a6a2220,60d9d14f4a8a35a482e0d9bf,60edea32ed4bdc9ddfe24569,j,1.562,0,58,58,0,1,OOOOOOO,OOOOOOR,18.52739004,19.62521613,series_1
,,,,,,,,603399f5ea514c052a6a2220,Mężczyzna,19,2021-07-13_21h32.23.686,rantool2,2021.1.4,Win32,143.8434983,603399f5ea514c052a6a2220,60d9d14f4a8a35a482e0d9bf,60edea32ed4bdc9ddfe24569,f,2.0452,0,59,59,55,1,RRORRRO,RRORRRR,21.56657303,21.21223021,series_0
,,,,,,,,603399f5ea514c052a6a2220,Mężczyzna,19,2021-07-13_21h32.23.686,rantool2,2021.1.4,Win32,143.8434983,603399f5ea514c052a6a2220,60d9d14f4a8a35a482e0d9bf,60edea32ed4bdc9ddfe24569,j,2.2602,0,60,60,24,1,ORROOOO,ORROOOR,21.12383932,22.07102821,series_1
,,,,,,,,603399f5ea514c052a6a2220,Mężczyzna,19,2021-07-13_21h32.23.686,rantool2,2021.1.4,Win32,143.8434983,603399f5ea514c052a6a2220,60d9d14f4a8a35a482e0d9bf,60edea32ed4bdc9ddfe24569,f,1.4944,0,61,61,18,1,OROOROO,OROOROR,20.84860893,21.22513037,series_1
,,,,,,,,603399f5ea514c052a6a2220,Mężczyzna,19,2021-07-13_21h32.23.686,rantool2,2021.1.4,Win32,143.8434983,603399f5ea514c052a6a2220,60d9d14f4a8a35a482e0d9bf,60edea32ed4bdc9ddfe24569,j,1.6686,0,62,62,40,1,ROROOOO,ROROOOR,20.87963819,21.37121559,series_1
,,,,,,,,603399f5ea514c052a6a2220,Mężczyzna,19,2021-07-13_21h32.23.686,rantool2,2021.1.4,Win32,143.8434983,603399f5ea514c052a6a2220,60d9d14f4a8a35a482e0d9bf,60edea32ed4bdc9ddfe24569,f,1.5451,0,63,63,56,1,RRROOOO,RRROOOR,21.6194508,22.31681875,series_1
