key_resp_7.keys,trials_2.thisRepN,trials_2.thisTrialN,trials_2.thisN,trials_2.thisIndex,trials_2.ran,id,series_0,series_1,acss_0,acss_1,comparison,id*,Płeć*,Wiek*,date,expName,psychopyVersion,OS,frameRate,STUDY_ID,SESSION_ID,key_resp_7.rt,key_resp_5.keys,key_resp_5.corr,key_resp_5.rt,trials.thisRepN,trials.thisTrialN,trials.thisN,trials.thisIndex,trials.ran
,0,0,0,3,1,611f879574af93eef23bd90c,OOOORRO,OOOORRR,20.90986523,21.74922619,series_1,611f879574af93eef23bd90c,Mężczyzna,19,2021-09-06_19h01.04.534,rantool2,2021.1.4,Win32,60.07088364,6135e006383e6ea6c3d06a28,613647b4d2a81009e7113cf0,,,,,,,,,
,0,1,1,21,1,611f879574af93eef23bd90c,ORORORO,ORORORR,20.39515459,22.06781359,series_1,611f879574af93eef23bd90c,Mężczyzna,19,2021-09-06_19h01.04.534,rantool2,2021.1.4,Win32,60.07088364,6135e006383e6ea6c3d06a28,613647b4d2a81009e7113cf0,,,,,,,,,
,0,2,2,1,1,611f879574af93eef23bd90c,OOOOORO,OOOOORR,19.92253567,20.74050628,series_1,611f879574af93eef23bd90c,Mężczyzna,19,2021-09-06_19h01.04.534,rantool2,2021.1.4,Win32,60.07088364,6135e006383e6ea6c3d06a28,613647b4d2a81009e7113cf0,,,,,,,,,
,0,3,3,51,1,611f879574af93eef23bd90c,RROORRO,RROORRR,21.89852628,22.02786418,series_1,611f879574af93eef23bd90c,Mężczyzna,19,2021-09-06_19h01.04.534,rantool2,2021.1.4,Win32,60.07088364,6135e006383e6ea6c3d06a28,613647b4d2a81009e7113cf0,,,,,,,,,
,0,4,4,30,1,611f879574af93eef23bd90c,ORRRROO,ORRRROR,22.46748491,22.03072203,series_0,611f879574af93eef23bd90c,Mężczyzna,19,2021-09-06_19h01.04.534,rantool2,2021.1.4,Win32,60.07088364,6135e006383e6ea6c3d06a28,613647b4d2a81009e7113cf0,,,,,,,,,
f,0,5,5,48,1,611f879574af93eef23bd90c,RROOOOO,RROOOOR,20.90986523,22.15934078,series_1,611f879574af93eef23bd90c,Mężczyzna,19,2021-09-06_19h01.04.534,rantool2,2021.1.4,Win32,60.07088364,6135e006383e6ea6c3d06a28,613647b4d2a81009e7113cf0,4.1664,,,,,,,,
j,0,6,6,52,1,611f879574af93eef23bd90c,RROROOO,RROROOR,22.18365867,22.11097995,series_0,611f879574af93eef23bd90c,Mężczyzna,19,2021-09-06_19h01.04.534,rantool2,2021.1.4,Win32,60.07088364,6135e006383e6ea6c3d06a28,613647b4d2a81009e7113cf0,2.8112,,,,,,,,
j,0,7,7,12,1,611f879574af93eef23bd90c,OORROOO,OORROOR,21.30250474,22.02786418,series_1,611f879574af93eef23bd90c,Mężczyzna,19,2021-09-06_19h01.04.534,rantool2,2021.1.4,Win32,60.07088364,6135e006383e6ea6c3d06a28,613647b4d2a81009e7113cf0,0.3186,,,,,,,,
,0,8,8,46,1,611f879574af93eef23bd90c,RORRROO,RORRROR,22.00300695,21.24781509,series_0,611f879574af93eef23bd90c,Mężczyzna,19,2021-09-06_19h01.04.534,rantool2,2021.1.4,Win32,60.07088364,6135e006383e6ea6c3d06a28,613647b4d2a81009e7113cf0,,,,,,,,,
,0,9,9,29,1,611f879574af93eef23bd90c,ORRRORO,ORRRORR,22.00300695,22.12173012,series_1,611f879574af93eef23bd90c,Mężczyzna,19,2021-09-06_19h01.04.534,rantool2,2021.1.4,Win32,60.07088364,6135e006383e6ea6c3d06a28,613647b4d2a81009e7113cf0,,,,,,,,,
,0,10,10,59,1,611f879574af93eef23bd90c,RRRORRO,RRRORRR,21.56657303,20.89823192,series_0,611f879574af93eef23bd90c,Mężczyzna,19,2021-09-06_19h01.04.534,rantool2,2021.1.4,Win32,60.07088364,6135e006383e6ea6c3d06a28,613647b4d2a81009e7113cf0,,,,,,,,,
,0,11,11,20,1,611f879574af93eef23bd90c,OROROOO,OROROOR,21.31236711,21.90565814,series_1,611f879574af93eef23bd90c,Mężczyzna,19,2021-09-06_19h01.04.534,rantool2,2021.1.4,Win32,60.07088364,6135e006383e6ea6c3d06a28,613647b4d2a81009e7113cf0,,,,,,,,,
,0,12,12,5,1,611f879574af93eef23bd90c,OOORORO,OOORORR,20.87963819,21.9921709,series_1,611f879574af93eef23bd90c,Mężczyzna,19,2021-09-06_19h01.04.534,rantool2,2021.1.4,Win32,60.07088364,6135e006383e6ea6c3d06a28,613647b4d2a81009e7113cf0,,,,,,,,,
,0,13,13,24,1,611f879574af93eef23bd90c,ORROOOO,ORROOOR,21.12383932,22.07102821,series_1,611f879574af93eef23bd90c,Mężczyzna,19,2021-09-06_19h01.04.534,rantool2,2021.1.4,Win32,60.07088364,6135e006383e6ea6c3d06a28,613647b4d2a81009e7113cf0,,,,,,,,,
,0,14,14,4,1,611f879574af93eef23bd90c,OOOROOO,OOOROOR,19.91402015,21.21223021,series_1,611f879574af93eef23bd90c,Mężczyzna,19,2021-09-06_19h01.04.534,rantool2,2021.1.4,Win32,60.07088364,6135e006383e6ea6c3d06a28,613647b4d2a81009e7113cf0,,,,,,,,,
,0,15,15,32,1,611f879574af93eef23bd90c,ROOOOOO,ROOOOOR,19.92253567,21.27974287,series_1,611f879574af93eef23bd90c,Mężczyzna,19,2021-09-06_19h01.04.534,rantool2,2021.1.4,Win32,60.07088364,6135e006383e6ea6c3d06a28,613647b4d2a81009e7113cf0,,,,,,,,,
,0,16,16,41,1,611f879574af93eef23bd90c,ROROORO,ROROORR,20.42602454,21.71443381,series_1,611f879574af93eef23bd90c,Mężczyzna,19,2021-09-06_19h01.04.534,rantool2,2021.1.4,Win32,60.07088364,6135e006383e6ea6c3d06a28,613647b4d2a81009e7113cf0,,,,,,,,,
,0,17,17,13,1,611f879574af93eef23bd90c,OORRORO,OORRORR,21.66733484,22.11181017,series_1,611f879574af93eef23bd90c,Mężczyzna,19,2021-09-06_19h01.04.534,rantool2,2021.1.4,Win32,60.07088364,6135e006383e6ea6c3d06a28,613647b4d2a81009e7113cf0,,,,,,,,,
,0,18,18,47,1,611f879574af93eef23bd90c,RORRRRO,RORRRRR,21.81333602,21.02936224,series_0,611f879574af93eef23bd90c,Mężczyzna,19,2021-09-06_19h01.04.534,rantool2,2021.1.4,Win32,60.07088364,6135e006383e6ea6c3d06a28,613647b4d2a81009e7113cf0,,,,,,,,,
,0,19,19,56,1,611f879574af93eef23bd90c,RRROOOO,RRROOOR,21.6194508,22.31681875,series_1,611f879574af93eef23bd90c,Mężczyzna,19,2021-09-06_19h01.04.534,rantool2,2021.1.4,Win32,60.07088364,6135e006383e6ea6c3d06a28,613647b4d2a81009e7113cf0,,,,,,,,,
,0,20,20,42,1,611f879574af93eef23bd90c,ROROROO,ROROROR,20.39515459,19.8361834,series_0,611f879574af93eef23bd90c,Mężczyzna,19,2021-09-06_19h01.04.534,rantool2,2021.1.4,Win32,60.07088364,6135e006383e6ea6c3d06a28,613647b4d2a81009e7113cf0,,,,,,,,,
,0,21,21,8,1,611f879574af93eef23bd90c,OOROOOO,OOROOOR,19.91402015,20.89823192,series_1,611f879574af93eef23bd90c,Mężczyzna,19,2021-09-06_19h01.04.534,rantool2,2021.1.4,Win32,60.07088364,6135e006383e6ea6c3d06a28,613647b4d2a81009e7113cf0,,,,,,,,,
,0,22,22,16,1,611f879574af93eef23bd90c,OROOOOO,OROOOOR,20.43051175,21.17347734,series_1,611f879574af93eef23bd90c,Mężczyzna,19,2021-09-06_19h01.04.534,rantool2,2021.1.4,Win32,60.07088364,6135e006383e6ea6c3d06a28,613647b4d2a81009e7113cf0,,,,,,,,,
,0,23,23,53,1,611f879574af93eef23bd90c,RRORORO,RRORORR,20.71309134,21.90565814,series_1,611f879574af93eef23bd90c,Mężczyzna,19,2021-09-06_19h01.04.534,rantool2,2021.1.4,Win32,60.07088364,6135e006383e6ea6c3d06a28,613647b4d2a81009e7113cf0,,,,,,,,,
,0,24,24,15,1,611f879574af93eef23bd90c,OORRRRO,OORRRRR,22.10108823,21.74922619,series_0,611f879574af93eef23bd90c,Mężczyzna,19,2021-09-06_19h01.04.534,rantool2,2021.1.4,Win32,60.07088364,6135e006383e6ea6c3d06a28,613647b4d2a81009e7113cf0,,,,,,,,,
,0,25,25,61,1,611f879574af93eef23bd90c,RRRRORO,RRRRORR,21.81333602,21.17347734,series_0,611f879574af93eef23bd90c,Mężczyzna,19,2021-09-06_19h01.04.534,rantool2,2021.1.4,Win32,60.07088364,6135e006383e6ea6c3d06a28,613647b4d2a81009e7113cf0,,,,,,,,,
,0,26,26,22,1,611f879574af93eef23bd90c,ORORROO,ORORROR,22.02732763,21.57657071,series_0,611f879574af93eef23bd90c,Mężczyzna,19,2021-09-06_19h01.04.534,rantool2,2021.1.4,Win32,60.07088364,6135e006383e6ea6c3d06a28,613647b4d2a81009e7113cf0,,,,,,,,,
,0,27,27,62,1,611f879574af93eef23bd90c,RRRRROO,RRRRROR,22.16413392,21.27974287,series_0,611f879574af93eef23bd90c,Mężczyzna,19,2021-09-06_19h01.04.534,rantool2,2021.1.4,Win32,60.07088364,6135e006383e6ea6c3d06a28,613647b4d2a81009e7113cf0,,,,,,,,,
,0,28,28,31,1,611f879574af93eef23bd90c,ORRRRRO,ORRRRRR,22.16413392,20.74050628,series_0,611f879574af93eef23bd90c,Mężczyzna,19,2021-09-06_19h01.04.534,rantool2,2021.1.4,Win32,60.07088364,6135e006383e6ea6c3d06a28,613647b4d2a81009e7113cf0,,,,,,,,,
,0,29,29,45,1,611f879574af93eef23bd90c,RORRORO,RORRORR,20.78182524,21.22513037,series_1,611f879574af93eef23bd90c,Mężczyzna,19,2021-09-06_19h01.04.534,rantool2,2021.1.4,Win32,60.07088364,6135e006383e6ea6c3d06a28,613647b4d2a81009e7113cf0,,,,,,,,,
,0,30,30,7,1,611f879574af93eef23bd90c,OOORRRO,OOORRRR,21.6194508,21.899017,series_1,611f879574af93eef23bd90c,Mężczyzna,19,2021-09-06_19h01.04.534,rantool2,2021.1.4,Win32,60.07088364,6135e006383e6ea6c3d06a28,613647b4d2a81009e7113cf0,,,,,,,,,
,0,31,31,57,1,611f879574af93eef23bd90c,RRROORO,RRROORR,21.82425538,22.07102821,series_1,611f879574af93eef23bd90c,Mężczyzna,19,2021-09-06_19h01.04.534,rantool2,2021.1.4,Win32,60.07088364,6135e006383e6ea6c3d06a28,613647b4d2a81009e7113cf0,,,,,,,,,
f,0,32,32,38,1,611f879574af93eef23bd90c,ROORROO,ROORROR,21.79500819,21.36812781,series_0,611f879574af93eef23bd90c,Mężczyzna,19,2021-09-06_19h01.04.534,rantool2,2021.1.4,Win32,60.07088364,6135e006383e6ea6c3d06a28,613647b4d2a81009e7113cf0,4.5661,,,,,,,,
f,0,33,33,49,1,611f879574af93eef23bd90c,RROOORO,RROOORR,21.76276513,22.53364006,series_1,611f879574af93eef23bd90c,Mężczyzna,19,2021-09-06_19h01.04.534,rantool2,2021.1.4,Win32,60.07088364,6135e006383e6ea6c3d06a28,613647b4d2a81009e7113cf0,0.5347,,,,,,,,
f,0,34,34,54,1,611f879574af93eef23bd90c,RRORROO,RRORROR,21.55250791,20.9984461,series_0,611f879574af93eef23bd90c,Mężczyzna,19,2021-09-06_19h01.04.534,rantool2,2021.1.4,Win32,60.07088364,6135e006383e6ea6c3d06a28,613647b4d2a81009e7113cf0,0.2506,,,,,,,,
f,0,35,35,60,1,611f879574af93eef23bd90c,RRRROOO,RRRROOR,22.10108823,22.15934078,series_1,611f879574af93eef23bd90c,Mężczyzna,19,2021-09-06_19h01.04.534,rantool2,2021.1.4,Win32,60.07088364,6135e006383e6ea6c3d06a28,613647b4d2a81009e7113cf0,0.5348,,,,,,,,
f,0,36,36,6,1,611f879574af93eef23bd90c,OOORROO,OOORROR,21.12383932,21.38562617,series_1,611f879574af93eef23bd90c,Mężczyzna,19,2021-09-06_19h01.04.534,rantool2,2021.1.4,Win32,60.07088364,6135e006383e6ea6c3d06a28,613647b4d2a81009e7113cf0,1.3499,,,,,,,,
f,0,37,37,10,1,611f879574af93eef23bd90c,OOROROO,OOROROR,21.31236711,21.07490964,series_0,611f879574af93eef23bd90c,Mężczyzna,19,2021-09-06_19h01.04.534,rantool2,2021.1.4,Win32,60.07088364,6135e006383e6ea6c3d06a28,613647b4d2a81009e7113cf0,0.5352,,,,,,,,
f,0,38,38,27,1,611f879574af93eef23bd90c,ORRORRO,ORRORRR,21.55250791,22.2428857,series_1,611f879574af93eef23bd90c,Mężczyzna,19,2021-09-06_19h01.04.534,rantool2,2021.1.4,Win32,60.07088364,6135e006383e6ea6c3d06a28,613647b4d2a81009e7113cf0,0.3838,,,,,,,,
f,0,39,39,43,1,611f879574af93eef23bd90c,RORORRO,RORORRR,20.71309134,21.07490964,series_1,611f879574af93eef23bd90c,Mężczyzna,19,2021-09-06_19h01.04.534,rantool2,2021.1.4,Win32,60.07088364,6135e006383e6ea6c3d06a28,613647b4d2a81009e7113cf0,0.1511,,,,,,,,
f,0,40,40,23,1,611f879574af93eef23bd90c,ORORRRO,ORORRRR,22.1285618,21.9921709,series_0,611f879574af93eef23bd90c,Mężczyzna,19,2021-09-06_19h01.04.534,rantool2,2021.1.4,Win32,60.07088364,6135e006383e6ea6c3d06a28,613647b4d2a81009e7113cf0,0.1511,,,,,,,,
f,0,41,41,18,1,611f879574af93eef23bd90c,OROOROO,OROOROR,20.84860893,21.22513037,series_1,611f879574af93eef23bd90c,Mężczyzna,19,2021-09-06_19h01.04.534,rantool2,2021.1.4,Win32,60.07088364,6135e006383e6ea6c3d06a28,613647b4d2a81009e7113cf0,0.1333,,,,,,,,
f,0,42,42,39,1,611f879574af93eef23bd90c,ROORRRO,ROORRRR,21.82425538,21.38562617,series_0,611f879574af93eef23bd90c,Mężczyzna,19,2021-09-06_19h01.04.534,rantool2,2021.1.4,Win32,60.07088364,6135e006383e6ea6c3d06a28,613647b4d2a81009e7113cf0,0.1337,,,,,,,,
f,0,43,43,9,1,611f879574af93eef23bd90c,OOROORO,OOROORR,21.07991943,22.2428857,series_1,611f879574af93eef23bd90c,Mężczyzna,19,2021-09-06_19h01.04.534,rantool2,2021.1.4,Win32,60.07088364,6135e006383e6ea6c3d06a28,613647b4d2a81009e7113cf0,0.1342,,,,,,,,
f,0,44,44,36,1,611f879574af93eef23bd90c,ROOROOO,ROOROOR,21.07991943,20.9984461,series_0,611f879574af93eef23bd90c,Mężczyzna,19,2021-09-06_19h01.04.534,rantool2,2021.1.4,Win32,60.07088364,6135e006383e6ea6c3d06a28,613647b4d2a81009e7113cf0,0.1344,,,,,,,,
f,0,45,45,55,1,611f879574af93eef23bd90c,RRORRRO,RRORRRR,21.56657303,21.21223021,series_0,611f879574af93eef23bd90c,Mężczyzna,19,2021-09-06_19h01.04.534,rantool2,2021.1.4,Win32,60.07088364,6135e006383e6ea6c3d06a28,613647b4d2a81009e7113cf0,0.1515,,,,,,,,
f,0,46,46,2,1,611f879574af93eef23bd90c,OOOOROO,OOOOROR,20.43051175,21.02936224,series_1,611f879574af93eef23bd90c,Mężczyzna,19,2021-09-06_19h01.04.534,rantool2,2021.1.4,Win32,60.07088364,6135e006383e6ea6c3d06a28,613647b4d2a81009e7113cf0,0.117,,,,,,,,
f,0,47,47,26,1,611f879574af93eef23bd90c,ORROROO,ORROROR,22.02732763,21.71443381,series_0,611f879574af93eef23bd90c,Mężczyzna,19,2021-09-06_19h01.04.534,rantool2,2021.1.4,Win32,60.07088364,6135e006383e6ea6c3d06a28,613647b4d2a81009e7113cf0,0.1506,,,,,,,,
f,0,48,48,34,1,611f879574af93eef23bd90c,ROOOROO,ROOOROR,21.03750787,21.24781509,series_1,611f879574af93eef23bd90c,Mężczyzna,19,2021-09-06_19h01.04.534,rantool2,2021.1.4,Win32,60.07088364,6135e006383e6ea6c3d06a28,613647b4d2a81009e7113cf0,0.1004,,,,,,,,
f,0,49,49,0,1,611f879574af93eef23bd90c,OOOOOOO,OOOOOOR,18.52739004,19.62521613,series_1,611f879574af93eef23bd90c,Mężczyzna,19,2021-09-06_19h01.04.534,rantool2,2021.1.4,Win32,60.07088364,6135e006383e6ea6c3d06a28,613647b4d2a81009e7113cf0,0.1178,,,,,,,,
f,0,50,50,11,1,611f879574af93eef23bd90c,OORORRO,OORORRR,22.18365867,22.6797523,series_1,611f879574af93eef23bd90c,Mężczyzna,19,2021-09-06_19h01.04.534,rantool2,2021.1.4,Win32,60.07088364,6135e006383e6ea6c3d06a28,613647b4d2a81009e7113cf0,0.134,,,,,,,,
f,0,51,51,58,1,611f879574af93eef23bd90c,RRROROO,RRROROR,22.1285618,21.37121559,series_0,611f879574af93eef23bd90c,Mężczyzna,19,2021-09-06_19h01.04.534,rantool2,2021.1.4,Win32,60.07088364,6135e006383e6ea6c3d06a28,613647b4d2a81009e7113cf0,0.1339,,,,,,,,
f,0,52,52,35,1,611f879574af93eef23bd90c,ROOORRO,ROOORRR,21.76276513,22.16977179,series_1,611f879574af93eef23bd90c,Mężczyzna,19,2021-09-06_19h01.04.534,rantool2,2021.1.4,Win32,60.07088364,6135e006383e6ea6c3d06a28,613647b4d2a81009e7113cf0,0.1508,,,,,,,,
f,0,53,53,50,1,611f879574af93eef23bd90c,RROOROO,RROOROR,21.73568164,22.02566557,series_1,611f879574af93eef23bd90c,Mężczyzna,19,2021-09-06_19h01.04.534,rantool2,2021.1.4,Win32,60.07088364,6135e006383e6ea6c3d06a28,613647b4d2a81009e7113cf0,0.1335,,,,,,,,
f,0,54,54,25,1,611f879574af93eef23bd90c,ORROORO,ORROORR,21.79500819,22.61624387,series_1,611f879574af93eef23bd90c,Mężczyzna,19,2021-09-06_19h01.04.534,rantool2,2021.1.4,Win32,60.07088364,6135e006383e6ea6c3d06a28,613647b4d2a81009e7113cf0,1.7842,,,,,,,,
j,0,55,55,28,1,611f879574af93eef23bd90c,ORRROOO,ORRROOR,22.24142883,22.53364006,series_1,611f879574af93eef23bd90c,Mężczyzna,19,2021-09-06_19h01.04.534,rantool2,2021.1.4,Win32,60.07088364,6135e006383e6ea6c3d06a28,613647b4d2a81009e7113cf0,2.8823,,,,,,,,
f,0,56,56,63,1,611f879574af93eef23bd90c,RRRRRRO,RRRRRRR,21.35278725,19.62521613,series_0,611f879574af93eef23bd90c,Mężczyzna,19,2021-09-06_19h01.04.534,rantool2,2021.1.4,Win32,60.07088364,6135e006383e6ea6c3d06a28,613647b4d2a81009e7113cf0,0.6498,,,,,,,,
j,0,57,57,19,1,611f879574af93eef23bd90c,OROORRO,OROORRR,21.73568164,22.11181017,series_1,611f879574af93eef23bd90c,Mężczyzna,19,2021-09-06_19h01.04.534,rantool2,2021.1.4,Win32,60.07088364,6135e006383e6ea6c3d06a28,613647b4d2a81009e7113cf0,0.1844,,,,,,,,
f,0,58,58,14,1,611f879574af93eef23bd90c,OORRROO,OORRROR,22.24142883,22.16977179,series_0,611f879574af93eef23bd90c,Mężczyzna,19,2021-09-06_19h01.04.534,rantool2,2021.1.4,Win32,60.07088364,6135e006383e6ea6c3d06a28,613647b4d2a81009e7113cf0,0.2845,,,,,,,,
f,0,59,59,17,1,611f879574af93eef23bd90c,OROOORO,OROOORR,21.03750787,22.12173012,series_1,611f879574af93eef23bd90c,Mężczyzna,19,2021-09-06_19h01.04.534,rantool2,2021.1.4,Win32,60.07088364,6135e006383e6ea6c3d06a28,613647b4d2a81009e7113cf0,0.3671,,,,,,,,
f,0,60,60,40,1,611f879574af93eef23bd90c,ROROOOO,ROROOOR,20.87963819,21.37121559,series_1,611f879574af93eef23bd90c,Mężczyzna,19,2021-09-06_19h01.04.534,rantool2,2021.1.4,Win32,60.07088364,6135e006383e6ea6c3d06a28,613647b4d2a81009e7113cf0,0.5003,,,,,,,,
j,0,61,61,44,1,611f879574af93eef23bd90c,RORROOO,RORROOR,21.66733484,22.02566557,series_1,611f879574af93eef23bd90c,Mężczyzna,19,2021-09-06_19h01.04.534,rantool2,2021.1.4,Win32,60.07088364,6135e006383e6ea6c3d06a28,613647b4d2a81009e7113cf0,1.1339,,,,,,,,
j,0,62,62,33,1,611f879574af93eef23bd90c,ROOOORO,ROOOORR,20.83779602,22.03072203,series_1,611f879574af93eef23bd90c,Mężczyzna,19,2021-09-06_19h01.04.534,rantool2,2021.1.4,Win32,60.07088364,6135e006383e6ea6c3d06a28,613647b4d2a81009e7113cf0,0.2503,,,,,,,,
j,0,63,63,37,1,611f879574af93eef23bd90c,ROORORO,ROORORR,20.42602454,21.57657071,series_1,611f879574af93eef23bd90c,Mężczyzna,19,2021-09-06_19h01.04.534,rantool2,2021.1.4,Win32,60.07088364,6135e006383e6ea6c3d06a28,613647b4d2a81009e7113cf0,0.3507,,,,,,,,
,,,,,,611f879574af93eef23bd90c,,,,,,611f879574af93eef23bd90c,Mężczyzna,19,2021-09-06_19h01.04.534,rantool2,2021.1.4,Win32,60.07088364,6135e006383e6ea6c3d06a28,613647b4d2a81009e7113cf0,,0,,,0,0,0,0,1
,,,,,,611f879574af93eef23bd90c,,,,,,611f879574af93eef23bd90c,Mężczyzna,19,2021-09-06_19h01.04.534,rantool2,2021.1.4,Win32,60.07088364,6135e006383e6ea6c3d06a28,613647b4d2a81009e7113cf0,,0,,,1,0,1,0,1
,,,,,,611f879574af93eef23bd90c,,,,,,611f879574af93eef23bd90c,Mężczyzna,19,2021-09-06_19h01.04.534,rantool2,2021.1.4,Win32,60.07088364,6135e006383e6ea6c3d06a28,613647b4d2a81009e7113cf0,,0,,,2,0,2,0,1
,,,,,,611f879574af93eef23bd90c,,,,,,611f879574af93eef23bd90c,Mężczyzna,19,2021-09-06_19h01.04.534,rantool2,2021.1.4,Win32,60.07088364,6135e006383e6ea6c3d06a28,613647b4d2a81009e7113cf0,,0,,,3,0,3,0,1
,,,,,,611f879574af93eef23bd90c,,,,,,611f879574af93eef23bd90c,Mężczyzna,19,2021-09-06_19h01.04.534,rantool2,2021.1.4,Win32,60.07088364,6135e006383e6ea6c3d06a28,613647b4d2a81009e7113cf0,,0,,,4,0,4,0,1
,,,,,,611f879574af93eef23bd90c,,,,,,611f879574af93eef23bd90c,Mężczyzna,19,2021-09-06_19h01.04.534,rantool2,2021.1.4,Win32,60.07088364,6135e006383e6ea6c3d06a28,613647b4d2a81009e7113cf0,,0,,,5,0,5,0,1
,,,,,,611f879574af93eef23bd90c,,,,,,611f879574af93eef23bd90c,Mężczyzna,19,2021-09-06_19h01.04.534,rantool2,2021.1.4,Win32,60.07088364,6135e006383e6ea6c3d06a28,613647b4d2a81009e7113cf0,,0,,,6,0,6,0,1
,,,,,,611f879574af93eef23bd90c,,,,,,611f879574af93eef23bd90c,Mężczyzna,19,2021-09-06_19h01.04.534,rantool2,2021.1.4,Win32,60.07088364,6135e006383e6ea6c3d06a28,613647b4d2a81009e7113cf0,,0,,,7,0,7,0,1
,,,,,,611f879574af93eef23bd90c,,,,,,611f879574af93eef23bd90c,Mężczyzna,19,2021-09-06_19h01.04.534,rantool2,2021.1.4,Win32,60.07088364,6135e006383e6ea6c3d06a28,613647b4d2a81009e7113cf0,,0,,,8,0,8,0,1
,,,,,,611f879574af93eef23bd90c,,,,,,611f879574af93eef23bd90c,Mężczyzna,19,2021-09-06_19h01.04.534,rantool2,2021.1.4,Win32,60.07088364,6135e006383e6ea6c3d06a28,613647b4d2a81009e7113cf0,,0,,,9,0,9,0,1
,,,,,,611f879574af93eef23bd90c,,,,,,611f879574af93eef23bd90c,Mężczyzna,19,2021-09-06_19h01.04.534,rantool2,2021.1.4,Win32,60.07088364,6135e006383e6ea6c3d06a28,613647b4d2a81009e7113cf0,,0,,,10,0,10,0,1
,,,,,,611f879574af93eef23bd90c,,,,,,611f879574af93eef23bd90c,Mężczyzna,19,2021-09-06_19h01.04.534,rantool2,2021.1.4,Win32,60.07088364,6135e006383e6ea6c3d06a28,613647b4d2a81009e7113cf0,,0,,,11,0,11,0,1
,,,,,,611f879574af93eef23bd90c,,,,,,611f879574af93eef23bd90c,Mężczyzna,19,2021-09-06_19h01.04.534,rantool2,2021.1.4,Win32,60.07088364,6135e006383e6ea6c3d06a28,613647b4d2a81009e7113cf0,,0,,,12,0,12,0,1
,,,,,,611f879574af93eef23bd90c,,,,,,611f879574af93eef23bd90c,Mężczyzna,19,2021-09-06_19h01.04.534,rantool2,2021.1.4,Win32,60.07088364,6135e006383e6ea6c3d06a28,613647b4d2a81009e7113cf0,,0,,,13,0,13,0,1
,,,,,,611f879574af93eef23bd90c,,,,,,611f879574af93eef23bd90c,Mężczyzna,19,2021-09-06_19h01.04.534,rantool2,2021.1.4,Win32,60.07088364,6135e006383e6ea6c3d06a28,613647b4d2a81009e7113cf0,,0,,,14,0,14,0,1
,,,,,,611f879574af93eef23bd90c,,,,,,611f879574af93eef23bd90c,Mężczyzna,19,2021-09-06_19h01.04.534,rantool2,2021.1.4,Win32,60.07088364,6135e006383e6ea6c3d06a28,613647b4d2a81009e7113cf0,,0,,,15,0,15,0,1
,,,,,,611f879574af93eef23bd90c,,,,,,611f879574af93eef23bd90c,Mężczyzna,19,2021-09-06_19h01.04.534,rantool2,2021.1.4,Win32,60.07088364,6135e006383e6ea6c3d06a28,613647b4d2a81009e7113cf0,,0,,,16,0,16,0,1
,,,,,,611f879574af93eef23bd90c,,,,,,611f879574af93eef23bd90c,Mężczyzna,19,2021-09-06_19h01.04.534,rantool2,2021.1.4,Win32,60.07088364,6135e006383e6ea6c3d06a28,613647b4d2a81009e7113cf0,,0,,,17,0,17,0,1
,,,,,,611f879574af93eef23bd90c,,,,,,611f879574af93eef23bd90c,Mężczyzna,19,2021-09-06_19h01.04.534,rantool2,2021.1.4,Win32,60.07088364,6135e006383e6ea6c3d06a28,613647b4d2a81009e7113cf0,,"[""period""]",0,[0.2636999999880629],18,0,18,0,1
,,,,,,611f879574af93eef23bd90c,,,,,,611f879574af93eef23bd90c,Mężczyzna,19,2021-09-06_19h01.04.534,rantool2,2021.1.4,Win32,60.07088364,6135e006383e6ea6c3d06a28,613647b4d2a81009e7113cf0,,0,0,,19,0,19,0,1
,,,,,,611f879574af93eef23bd90c,,,,,,611f879574af93eef23bd90c,Mężczyzna,19,2021-09-06_19h01.04.534,rantool2,2021.1.4,Win32,60.07088364,6135e006383e6ea6c3d06a28,613647b4d2a81009e7113cf0,,0,0,,20,0,20,0,1
,,,,,,611f879574af93eef23bd90c,,,,,,611f879574af93eef23bd90c,Mężczyzna,19,2021-09-06_19h01.04.534,rantool2,2021.1.4,Win32,60.07088364,6135e006383e6ea6c3d06a28,613647b4d2a81009e7113cf0,,0,0,,21,0,21,0,1
,,,,,,611f879574af93eef23bd90c,,,,,,611f879574af93eef23bd90c,Mężczyzna,19,2021-09-06_19h01.04.534,rantool2,2021.1.4,Win32,60.07088364,6135e006383e6ea6c3d06a28,613647b4d2a81009e7113cf0,,0,0,,22,0,22,0,1
,,,,,,611f879574af93eef23bd90c,,,,,,611f879574af93eef23bd90c,Mężczyzna,19,2021-09-06_19h01.04.534,rantool2,2021.1.4,Win32,60.07088364,6135e006383e6ea6c3d06a28,613647b4d2a81009e7113cf0,,0,0,,23,0,23,0,1
,,,,,,611f879574af93eef23bd90c,,,,,,611f879574af93eef23bd90c,Mężczyzna,19,2021-09-06_19h01.04.534,rantool2,2021.1.4,Win32,60.07088364,6135e006383e6ea6c3d06a28,613647b4d2a81009e7113cf0,,0,0,,24,0,24,0,1
,,,,,,611f879574af93eef23bd90c,,,,,,611f879574af93eef23bd90c,Mężczyzna,19,2021-09-06_19h01.04.534,rantool2,2021.1.4,Win32,60.07088364,6135e006383e6ea6c3d06a28,613647b4d2a81009e7113cf0,,0,0,,25,0,25,0,1
,,,,,,611f879574af93eef23bd90c,,,,,,611f879574af93eef23bd90c,Mężczyzna,19,2021-09-06_19h01.04.534,rantool2,2021.1.4,Win32,60.07088364,6135e006383e6ea6c3d06a28,613647b4d2a81009e7113cf0,,0,0,,26,0,26,0,1
,,,,,,611f879574af93eef23bd90c,,,,,,611f879574af93eef23bd90c,Mężczyzna,19,2021-09-06_19h01.04.534,rantool2,2021.1.4,Win32,60.07088364,6135e006383e6ea6c3d06a28,613647b4d2a81009e7113cf0,,0,0,,27,0,27,0,1
,,,,,,611f879574af93eef23bd90c,,,,,,611f879574af93eef23bd90c,Mężczyzna,19,2021-09-06_19h01.04.534,rantool2,2021.1.4,Win32,60.07088364,6135e006383e6ea6c3d06a28,613647b4d2a81009e7113cf0,,0,0,,28,0,28,0,1
,,,,,,611f879574af93eef23bd90c,,,,,,611f879574af93eef23bd90c,Mężczyzna,19,2021-09-06_19h01.04.534,rantool2,2021.1.4,Win32,60.07088364,6135e006383e6ea6c3d06a28,613647b4d2a81009e7113cf0,,0,0,,29,0,29,0,1
,,,,,,611f879574af93eef23bd90c,,,,,,611f879574af93eef23bd90c,Mężczyzna,19,2021-09-06_19h01.04.534,rantool2,2021.1.4,Win32,60.07088364,6135e006383e6ea6c3d06a28,613647b4d2a81009e7113cf0,,0,0,,30,0,30,0,1
,,,,,,611f879574af93eef23bd90c,,,,,,611f879574af93eef23bd90c,Mężczyzna,19,2021-09-06_19h01.04.534,rantool2,2021.1.4,Win32,60.07088364,6135e006383e6ea6c3d06a28,613647b4d2a81009e7113cf0,,0,0,,31,0,31,0,1
,,,,,,611f879574af93eef23bd90c,,,,,,611f879574af93eef23bd90c,Mężczyzna,19,2021-09-06_19h01.04.534,rantool2,2021.1.4,Win32,60.07088364,6135e006383e6ea6c3d06a28,613647b4d2a81009e7113cf0,,0,0,,32,0,32,0,1
,,,,,,611f879574af93eef23bd90c,,,,,,611f879574af93eef23bd90c,Mężczyzna,19,2021-09-06_19h01.04.534,rantool2,2021.1.4,Win32,60.07088364,6135e006383e6ea6c3d06a28,613647b4d2a81009e7113cf0,,0,0,,33,0,33,0,1
,,,,,,611f879574af93eef23bd90c,,,,,,611f879574af93eef23bd90c,Mężczyzna,19,2021-09-06_19h01.04.534,rantool2,2021.1.4,Win32,60.07088364,6135e006383e6ea6c3d06a28,613647b4d2a81009e7113cf0,,0,0,,34,0,34,0,1
,,,,,,611f879574af93eef23bd90c,,,,,,611f879574af93eef23bd90c,Mężczyzna,19,2021-09-06_19h01.04.534,rantool2,2021.1.4,Win32,60.07088364,6135e006383e6ea6c3d06a28,613647b4d2a81009e7113cf0,,0,0,,35,0,35,0,1
,,,,,,611f879574af93eef23bd90c,,,,,,611f879574af93eef23bd90c,Mężczyzna,19,2021-09-06_19h01.04.534,rantool2,2021.1.4,Win32,60.07088364,6135e006383e6ea6c3d06a28,613647b4d2a81009e7113cf0,,0,0,,36,0,36,0,1
,,,,,,611f879574af93eef23bd90c,,,,,,611f879574af93eef23bd90c,Mężczyzna,19,2021-09-06_19h01.04.534,rantool2,2021.1.4,Win32,60.07088364,6135e006383e6ea6c3d06a28,613647b4d2a81009e7113cf0,,0,0,,37,0,37,0,1
,,,,,,611f879574af93eef23bd90c,,,,,,611f879574af93eef23bd90c,Mężczyzna,19,2021-09-06_19h01.04.534,rantool2,2021.1.4,Win32,60.07088364,6135e006383e6ea6c3d06a28,613647b4d2a81009e7113cf0,,0,0,,38,0,38,0,1
,,,,,,611f879574af93eef23bd90c,,,,,,611f879574af93eef23bd90c,Mężczyzna,19,2021-09-06_19h01.04.534,rantool2,2021.1.4,Win32,60.07088364,6135e006383e6ea6c3d06a28,613647b4d2a81009e7113cf0,,0,0,,39,0,39,0,1
,,,,,,611f879574af93eef23bd90c,,,,,,611f879574af93eef23bd90c,Mężczyzna,19,2021-09-06_19h01.04.534,rantool2,2021.1.4,Win32,60.07088364,6135e006383e6ea6c3d06a28,613647b4d2a81009e7113cf0,,0,0,,40,0,40,0,1
,,,,,,611f879574af93eef23bd90c,,,,,,611f879574af93eef23bd90c,Mężczyzna,19,2021-09-06_19h01.04.534,rantool2,2021.1.4,Win32,60.07088364,6135e006383e6ea6c3d06a28,613647b4d2a81009e7113cf0,,0,0,,41,0,41,0,1
,,,,,,611f879574af93eef23bd90c,,,,,,611f879574af93eef23bd90c,Mężczyzna,19,2021-09-06_19h01.04.534,rantool2,2021.1.4,Win32,60.07088364,6135e006383e6ea6c3d06a28,613647b4d2a81009e7113cf0,,0,0,,42,0,42,0,1
,,,,,,611f879574af93eef23bd90c,,,,,,611f879574af93eef23bd90c,Mężczyzna,19,2021-09-06_19h01.04.534,rantool2,2021.1.4,Win32,60.07088364,6135e006383e6ea6c3d06a28,613647b4d2a81009e7113cf0,,0,0,,43,0,43,0,1
,,,,,,611f879574af93eef23bd90c,,,,,,611f879574af93eef23bd90c,Mężczyzna,19,2021-09-06_19h01.04.534,rantool2,2021.1.4,Win32,60.07088364,6135e006383e6ea6c3d06a28,613647b4d2a81009e7113cf0,,0,0,,44,0,44,0,1
,,,,,,611f879574af93eef23bd90c,,,,,,611f879574af93eef23bd90c,Mężczyzna,19,2021-09-06_19h01.04.534,rantool2,2021.1.4,Win32,60.07088364,6135e006383e6ea6c3d06a28,613647b4d2a81009e7113cf0,,0,0,,45,0,45,0,1
,,,,,,611f879574af93eef23bd90c,,,,,,611f879574af93eef23bd90c,Mężczyzna,19,2021-09-06_19h01.04.534,rantool2,2021.1.4,Win32,60.07088364,6135e006383e6ea6c3d06a28,613647b4d2a81009e7113cf0,,0,0,,46,0,46,0,1
,,,,,,611f879574af93eef23bd90c,,,,,,611f879574af93eef23bd90c,Mężczyzna,19,2021-09-06_19h01.04.534,rantool2,2021.1.4,Win32,60.07088364,6135e006383e6ea6c3d06a28,613647b4d2a81009e7113cf0,,0,0,,47,0,47,0,1
,,,,,,611f879574af93eef23bd90c,,,,,,611f879574af93eef23bd90c,Mężczyzna,19,2021-09-06_19h01.04.534,rantool2,2021.1.4,Win32,60.07088364,6135e006383e6ea6c3d06a28,613647b4d2a81009e7113cf0,,0,0,,48,0,48,0,1
,,,,,,611f879574af93eef23bd90c,,,,,,611f879574af93eef23bd90c,Mężczyzna,19,2021-09-06_19h01.04.534,rantool2,2021.1.4,Win32,60.07088364,6135e006383e6ea6c3d06a28,613647b4d2a81009e7113cf0,,0,0,,49,0,49,0,1
,,,,,,611f879574af93eef23bd90c,,,,,,611f879574af93eef23bd90c,Mężczyzna,19,2021-09-06_19h01.04.534,rantool2,2021.1.4,Win32,60.07088364,6135e006383e6ea6c3d06a28,613647b4d2a81009e7113cf0,,0,0,,50,0,50,0,1
,,,,,,611f879574af93eef23bd90c,,,,,,611f879574af93eef23bd90c,Mężczyzna,19,2021-09-06_19h01.04.534,rantool2,2021.1.4,Win32,60.07088364,6135e006383e6ea6c3d06a28,613647b4d2a81009e7113cf0,,"[""comma"",""comma"",""comma""]",0,"[-0.013599999964242215,0.3778000000119164,0.7773000000119623]",51,0,51,0,1
,,,,,,611f879574af93eef23bd90c,,,,,,611f879574af93eef23bd90c,Mężczyzna,19,2021-09-06_19h01.04.534,rantool2,2021.1.4,Win32,60.07088364,6135e006383e6ea6c3d06a28,613647b4d2a81009e7113cf0,,0,0,,52,0,52,0,1
,,,,,,611f879574af93eef23bd90c,,,,,,611f879574af93eef23bd90c,Mężczyzna,19,2021-09-06_19h01.04.534,rantool2,2021.1.4,Win32,60.07088364,6135e006383e6ea6c3d06a28,613647b4d2a81009e7113cf0,,0,0,,53,0,53,0,1
,,,,,,611f879574af93eef23bd90c,,,,,,611f879574af93eef23bd90c,Mężczyzna,19,2021-09-06_19h01.04.534,rantool2,2021.1.4,Win32,60.07088364,6135e006383e6ea6c3d06a28,613647b4d2a81009e7113cf0,,0,0,,54,0,54,0,1
,,,,,,611f879574af93eef23bd90c,,,,,,611f879574af93eef23bd90c,Mężczyzna,19,2021-09-06_19h01.04.534,rantool2,2021.1.4,Win32,60.07088364,6135e006383e6ea6c3d06a28,613647b4d2a81009e7113cf0,,0,0,,55,0,55,0,1
,,,,,,611f879574af93eef23bd90c,,,,,,611f879574af93eef23bd90c,Mężczyzna,19,2021-09-06_19h01.04.534,rantool2,2021.1.4,Win32,60.07088364,6135e006383e6ea6c3d06a28,613647b4d2a81009e7113cf0,,0,0,,56,0,56,0,1
,,,,,,611f879574af93eef23bd90c,,,,,,611f879574af93eef23bd90c,Mężczyzna,19,2021-09-06_19h01.04.534,rantool2,2021.1.4,Win32,60.07088364,6135e006383e6ea6c3d06a28,613647b4d2a81009e7113cf0,,0,0,,57,0,57,0,1
,,,,,,611f879574af93eef23bd90c,,,,,,611f879574af93eef23bd90c,Mężczyzna,19,2021-09-06_19h01.04.534,rantool2,2021.1.4,Win32,60.07088364,6135e006383e6ea6c3d06a28,613647b4d2a81009e7113cf0,,0,0,,58,0,58,0,1
,,,,,,611f879574af93eef23bd90c,,,,,,611f879574af93eef23bd90c,Mężczyzna,19,2021-09-06_19h01.04.534,rantool2,2021.1.4,Win32,60.07088364,6135e006383e6ea6c3d06a28,613647b4d2a81009e7113cf0,,0,0,,59,0,59,0,1
,,,,,,611f879574af93eef23bd90c,,,,,,611f879574af93eef23bd90c,Mężczyzna,19,2021-09-06_19h01.04.534,rantool2,2021.1.4,Win32,60.07088364,6135e006383e6ea6c3d06a28,613647b4d2a81009e7113cf0,,0,0,,60,0,60,0,1
,,,,,,611f879574af93eef23bd90c,,,,,,611f879574af93eef23bd90c,Mężczyzna,19,2021-09-06_19h01.04.534,rantool2,2021.1.4,Win32,60.07088364,6135e006383e6ea6c3d06a28,613647b4d2a81009e7113cf0,,0,0,,61,0,61,0,1
,,,,,,611f879574af93eef23bd90c,,,,,,611f879574af93eef23bd90c,Mężczyzna,19,2021-09-06_19h01.04.534,rantool2,2021.1.4,Win32,60.07088364,6135e006383e6ea6c3d06a28,613647b4d2a81009e7113cf0,,0,0,,62,0,62,0,1
,,,,,,611f879574af93eef23bd90c,,,,,,611f879574af93eef23bd90c,Mężczyzna,19,2021-09-06_19h01.04.534,rantool2,2021.1.4,Win32,60.07088364,6135e006383e6ea6c3d06a28,613647b4d2a81009e7113cf0,,0,0,,63,0,63,0,1
,,,,,,611f879574af93eef23bd90c,,,,,,611f879574af93eef23bd90c,Mężczyzna,19,2021-09-06_19h01.04.534,rantool2,2021.1.4,Win32,60.07088364,6135e006383e6ea6c3d06a28,613647b4d2a81009e7113cf0,,0,0,,64,0,64,0,1
,,,,,,611f879574af93eef23bd90c,,,,,,611f879574af93eef23bd90c,Mężczyzna,19,2021-09-06_19h01.04.534,rantool2,2021.1.4,Win32,60.07088364,6135e006383e6ea6c3d06a28,613647b4d2a81009e7113cf0,,0,0,,65,0,65,0,1
,,,,,,611f879574af93eef23bd90c,,,,,,611f879574af93eef23bd90c,Mężczyzna,19,2021-09-06_19h01.04.534,rantool2,2021.1.4,Win32,60.07088364,6135e006383e6ea6c3d06a28,613647b4d2a81009e7113cf0,,0,0,,66,0,66,0,1
,,,,,,611f879574af93eef23bd90c,,,,,,611f879574af93eef23bd90c,Mężczyzna,19,2021-09-06_19h01.04.534,rantool2,2021.1.4,Win32,60.07088364,6135e006383e6ea6c3d06a28,613647b4d2a81009e7113cf0,,0,0,,67,0,67,0,1
,,,,,,611f879574af93eef23bd90c,,,,,,611f879574af93eef23bd90c,Mężczyzna,19,2021-09-06_19h01.04.534,rantool2,2021.1.4,Win32,60.07088364,6135e006383e6ea6c3d06a28,613647b4d2a81009e7113cf0,,0,0,,68,0,68,0,1
,,,,,,611f879574af93eef23bd90c,,,,,,611f879574af93eef23bd90c,Mężczyzna,19,2021-09-06_19h01.04.534,rantool2,2021.1.4,Win32,60.07088364,6135e006383e6ea6c3d06a28,613647b4d2a81009e7113cf0,,0,0,,69,0,69,0,1
,,,,,,611f879574af93eef23bd90c,,,,,,611f879574af93eef23bd90c,Mężczyzna,19,2021-09-06_19h01.04.534,rantool2,2021.1.4,Win32,60.07088364,6135e006383e6ea6c3d06a28,613647b4d2a81009e7113cf0,,0,0,,70,0,70,0,1
,,,,,,611f879574af93eef23bd90c,,,,,,611f879574af93eef23bd90c,Mężczyzna,19,2021-09-06_19h01.04.534,rantool2,2021.1.4,Win32,60.07088364,6135e006383e6ea6c3d06a28,613647b4d2a81009e7113cf0,,0,0,,71,0,71,0,1
,,,,,,611f879574af93eef23bd90c,,,,,,611f879574af93eef23bd90c,Mężczyzna,19,2021-09-06_19h01.04.534,rantool2,2021.1.4,Win32,60.07088364,6135e006383e6ea6c3d06a28,613647b4d2a81009e7113cf0,,0,0,,72,0,72,0,1
,,,,,,611f879574af93eef23bd90c,,,,,,611f879574af93eef23bd90c,Mężczyzna,19,2021-09-06_19h01.04.534,rantool2,2021.1.4,Win32,60.07088364,6135e006383e6ea6c3d06a28,613647b4d2a81009e7113cf0,,0,0,,73,0,73,0,1
,,,,,,611f879574af93eef23bd90c,,,,,,611f879574af93eef23bd90c,Mężczyzna,19,2021-09-06_19h01.04.534,rantool2,2021.1.4,Win32,60.07088364,6135e006383e6ea6c3d06a28,613647b4d2a81009e7113cf0,,0,0,,74,0,74,0,1
,,,,,,611f879574af93eef23bd90c,,,,,,611f879574af93eef23bd90c,Mężczyzna,19,2021-09-06_19h01.04.534,rantool2,2021.1.4,Win32,60.07088364,6135e006383e6ea6c3d06a28,613647b4d2a81009e7113cf0,,0,0,,75,0,75,0,1
,,,,,,611f879574af93eef23bd90c,,,,,,611f879574af93eef23bd90c,Mężczyzna,19,2021-09-06_19h01.04.534,rantool2,2021.1.4,Win32,60.07088364,6135e006383e6ea6c3d06a28,613647b4d2a81009e7113cf0,,0,0,,76,0,76,0,1
,,,,,,611f879574af93eef23bd90c,,,,,,611f879574af93eef23bd90c,Mężczyzna,19,2021-09-06_19h01.04.534,rantool2,2021.1.4,Win32,60.07088364,6135e006383e6ea6c3d06a28,613647b4d2a81009e7113cf0,,"[""comma"",""period"",""comma""]",0,"[0.42349999999999,0.7492999999523136,1.6573999999761782]",77,0,77,0,1
,,,,,,611f879574af93eef23bd90c,,,,,,611f879574af93eef23bd90c,Mężczyzna,19,2021-09-06_19h01.04.534,rantool2,2021.1.4,Win32,60.07088364,6135e006383e6ea6c3d06a28,613647b4d2a81009e7113cf0,,"[""period"",""comma"",""period"",""comma""]",0,"[0.507900000035761,0.8539000000357646,1.1055000000000064,1.442400000035775]",78,0,78,0,1
,,,,,,611f879574af93eef23bd90c,,,,,,611f879574af93eef23bd90c,Mężczyzna,19,2021-09-06_19h01.04.534,rantool2,2021.1.4,Win32,60.07088364,6135e006383e6ea6c3d06a28,613647b4d2a81009e7113cf0,,"[""comma"",""period"",""comma""]",0,"[0.2388999999761836,1.0313999999762018,1.8176999999881218]",79,0,79,0,1
,,,,,,611f879574af93eef23bd90c,,,,,,611f879574af93eef23bd90c,Mężczyzna,19,2021-09-06_19h01.04.534,rantool2,2021.1.4,Win32,60.07088364,6135e006383e6ea6c3d06a28,613647b4d2a81009e7113cf0,,"[""period"",""comma""]",0,"[0.8669000000357983,1.7309000000357742]",80,0,80,0,1
,,,,,,611f879574af93eef23bd90c,,,,,,611f879574af93eef23bd90c,Mężczyzna,19,2021-09-06_19h01.04.534,rantool2,2021.1.4,Win32,60.07088364,6135e006383e6ea6c3d06a28,613647b4d2a81009e7113cf0,,"[""comma"",""period""]",0,"[1.6055000000000064,1.7685000000000173]",81,0,81,0,1
,,,,,,611f879574af93eef23bd90c,,,,,,611f879574af93eef23bd90c,Mężczyzna,19,2021-09-06_19h01.04.534,rantool2,2021.1.4,Win32,60.07088364,6135e006383e6ea6c3d06a28,613647b4d2a81009e7113cf0,,0,0,,82,0,82,0,1
,,,,,,611f879574af93eef23bd90c,,,,,,611f879574af93eef23bd90c,Mężczyzna,19,2021-09-06_19h01.04.534,rantool2,2021.1.4,Win32,60.07088364,6135e006383e6ea6c3d06a28,613647b4d2a81009e7113cf0,,0,0,,83,0,83,0,1
,,,,,,611f879574af93eef23bd90c,,,,,,611f879574af93eef23bd90c,Mężczyzna,19,2021-09-06_19h01.04.534,rantool2,2021.1.4,Win32,60.07088364,6135e006383e6ea6c3d06a28,613647b4d2a81009e7113cf0,,0,0,,84,0,84,0,1
,,,,,,611f879574af93eef23bd90c,,,,,,611f879574af93eef23bd90c,Mężczyzna,19,2021-09-06_19h01.04.534,rantool2,2021.1.4,Win32,60.07088364,6135e006383e6ea6c3d06a28,613647b4d2a81009e7113cf0,,0,0,,85,0,85,0,1
,,,,,,611f879574af93eef23bd90c,,,,,,611f879574af93eef23bd90c,Mężczyzna,19,2021-09-06_19h01.04.534,rantool2,2021.1.4,Win32,60.07088364,6135e006383e6ea6c3d06a28,613647b4d2a81009e7113cf0,,0,0,,86,0,86,0,1
,,,,,,611f879574af93eef23bd90c,,,,,,611f879574af93eef23bd90c,Mężczyzna,19,2021-09-06_19h01.04.534,rantool2,2021.1.4,Win32,60.07088364,6135e006383e6ea6c3d06a28,613647b4d2a81009e7113cf0,,0,0,,87,0,87,0,1
,,,,,,611f879574af93eef23bd90c,,,,,,611f879574af93eef23bd90c,Mężczyzna,19,2021-09-06_19h01.04.534,rantool2,2021.1.4,Win32,60.07088364,6135e006383e6ea6c3d06a28,613647b4d2a81009e7113cf0,,0,0,,88,0,88,0,1
,,,,,,611f879574af93eef23bd90c,,,,,,611f879574af93eef23bd90c,Mężczyzna,19,2021-09-06_19h01.04.534,rantool2,2021.1.4,Win32,60.07088364,6135e006383e6ea6c3d06a28,613647b4d2a81009e7113cf0,,0,0,,89,0,89,0,1
,,,,,,611f879574af93eef23bd90c,,,,,,611f879574af93eef23bd90c,Mężczyzna,19,2021-09-06_19h01.04.534,rantool2,2021.1.4,Win32,60.07088364,6135e006383e6ea6c3d06a28,613647b4d2a81009e7113cf0,,0,0,,90,0,90,0,1
,,,,,,611f879574af93eef23bd90c,,,,,,611f879574af93eef23bd90c,Mężczyzna,19,2021-09-06_19h01.04.534,rantool2,2021.1.4,Win32,60.07088364,6135e006383e6ea6c3d06a28,613647b4d2a81009e7113cf0,,0,0,,91,0,91,0,1
,,,,,,611f879574af93eef23bd90c,,,,,,611f879574af93eef23bd90c,Mężczyzna,19,2021-09-06_19h01.04.534,rantool2,2021.1.4,Win32,60.07088364,6135e006383e6ea6c3d06a28,613647b4d2a81009e7113cf0,,0,0,,92,0,92,0,1
,,,,,,611f879574af93eef23bd90c,,,,,,611f879574af93eef23bd90c,Mężczyzna,19,2021-09-06_19h01.04.534,rantool2,2021.1.4,Win32,60.07088364,6135e006383e6ea6c3d06a28,613647b4d2a81009e7113cf0,,0,0,,93,0,93,0,1
,,,,,,611f879574af93eef23bd90c,,,,,,611f879574af93eef23bd90c,Mężczyzna,19,2021-09-06_19h01.04.534,rantool2,2021.1.4,Win32,60.07088364,6135e006383e6ea6c3d06a28,613647b4d2a81009e7113cf0,,0,0,,94,0,94,0,1
,,,,,,611f879574af93eef23bd90c,,,,,,611f879574af93eef23bd90c,Mężczyzna,19,2021-09-06_19h01.04.534,rantool2,2021.1.4,Win32,60.07088364,6135e006383e6ea6c3d06a28,613647b4d2a81009e7113cf0,,0,0,,95,0,95,0,1
,,,,,,611f879574af93eef23bd90c,,,,,,611f879574af93eef23bd90c,Mężczyzna,19,2021-09-06_19h01.04.534,rantool2,2021.1.4,Win32,60.07088364,6135e006383e6ea6c3d06a28,613647b4d2a81009e7113cf0,,0,0,,96,0,96,0,1
,,,,,,611f879574af93eef23bd90c,,,,,,611f879574af93eef23bd90c,Mężczyzna,19,2021-09-06_19h01.04.534,rantool2,2021.1.4,Win32,60.07088364,6135e006383e6ea6c3d06a28,613647b4d2a81009e7113cf0,,0,0,,97,0,97,0,1
,,,,,,611f879574af93eef23bd90c,,,,,,611f879574af93eef23bd90c,Mężczyzna,19,2021-09-06_19h01.04.534,rantool2,2021.1.4,Win32,60.07088364,6135e006383e6ea6c3d06a28,613647b4d2a81009e7113cf0,,"[""comma"",""period"",""comma""]",0,"[0.09179999995234311,0.52800000000002,1.7956999999881305]",98,0,98,0,1
,,,,,,611f879574af93eef23bd90c,,,,,,611f879574af93eef23bd90c,Mężczyzna,19,2021-09-06_19h01.04.534,rantool2,2021.1.4,Win32,60.07088364,6135e006383e6ea6c3d06a28,613647b4d2a81009e7113cf0,,"[""period"",""comma""]",0,"[1.1573999999761782,1.4743999999761854]",99,0,99,0,1
,,,,,,611f879574af93eef23bd90c,,,,,,611f879574af93eef23bd90c,Mężczyzna,19,2021-09-06_19h01.04.534,rantool2,2021.1.4,Win32,60.07088364,6135e006383e6ea6c3d06a28,613647b4d2a81009e7113cf0,,"[""comma"",""period""]",0,"[0.33780000001195276,0.5969000000357596]",100,0,100,0,1
,,,,,,611f879574af93eef23bd90c,,,,,,611f879574af93eef23bd90c,Mężczyzna,19,2021-09-06_19h01.04.534,rantool2,2021.1.4,Win32,60.07088364,6135e006383e6ea6c3d06a28,613647b4d2a81009e7113cf0,,"[""period"",""period"",""comma"",""period""]",0,"[0.26310000002382594,0.4928000000119255,1.4809000000357742,1.7270000000000323]",101,0,101,0,1
,,,,,,611f879574af93eef23bd90c,,,,,,611f879574af93eef23bd90c,Mężczyzna,19,2021-09-06_19h01.04.534,rantool2,2021.1.4,Win32,60.07088364,6135e006383e6ea6c3d06a28,613647b4d2a81009e7113cf0,,"[""comma"",""comma"",""comma"",""period""]",0,"[0.5616999999880932,0.8076000000238537,1.5671000000238564,1.9035000000000082]",102,0,102,0,1
,,,,,,611f879574af93eef23bd90c,,,,,,611f879574af93eef23bd90c,Mężczyzna,19,2021-09-06_19h01.04.534,rantool2,2021.1.4,Win32,60.07088364,6135e006383e6ea6c3d06a28,613647b4d2a81009e7113cf0,,0,0,,103,0,103,0,1
,,,,,,611f879574af93eef23bd90c,,,,,,611f879574af93eef23bd90c,Mężczyzna,19,2021-09-06_19h01.04.534,rantool2,2021.1.4,Win32,60.07088364,6135e006383e6ea6c3d06a28,613647b4d2a81009e7113cf0,,0,0,,104,0,104,0,1
,,,,,,611f879574af93eef23bd90c,,,,,,611f879574af93eef23bd90c,Mężczyzna,19,2021-09-06_19h01.04.534,rantool2,2021.1.4,Win32,60.07088364,6135e006383e6ea6c3d06a28,613647b4d2a81009e7113cf0,,0,0,,105,0,105,0,1
,,,,,,611f879574af93eef23bd90c,,,,,,611f879574af93eef23bd90c,Mężczyzna,19,2021-09-06_19h01.04.534,rantool2,2021.1.4,Win32,60.07088364,6135e006383e6ea6c3d06a28,613647b4d2a81009e7113cf0,,0,0,,106,0,106,0,1
,,,,,,611f879574af93eef23bd90c,,,,,,611f879574af93eef23bd90c,Mężczyzna,19,2021-09-06_19h01.04.534,rantool2,2021.1.4,Win32,60.07088364,6135e006383e6ea6c3d06a28,613647b4d2a81009e7113cf0,,"[""comma"",""period""]",0,"[1.1531999999880895,1.3681999999880645]",107,0,107,0,1
,,,,,,611f879574af93eef23bd90c,,,,,,611f879574af93eef23bd90c,Mężczyzna,19,2021-09-06_19h01.04.534,rantool2,2021.1.4,Win32,60.07088364,6135e006383e6ea6c3d06a28,613647b4d2a81009e7113cf0,,"[""comma"",""period"",""comma"",""period"",""comma"",""period"",""comma"",""period"",""comma""]",0,"[0.20939999997614223,0.5983999999761522,0.910399999976164,1.134999999999991,1.2655999999642518,1.4663000000119268,1.5633999999761272,1.732899999976155,1.823399999976175]",108,0,108,0,1
,,,,,,611f879574af93eef23bd90c,,,,,,611f879574af93eef23bd90c,Mężczyzna,19,2021-09-06_19h01.04.534,rantool2,2021.1.4,Win32,60.07088364,6135e006383e6ea6c3d06a28,613647b4d2a81009e7113cf0,,"[""period"",""comma"",""comma"",""period"",""comma"",""period""]",0,"[0.053999999999973625,0.12700000000000955,0.47819999998807816,0.7601999999880604,0.9841000000238296,1.2280000000000086]",109,0,109,0,1
,,,,,,611f879574af93eef23bd90c,,,,,,611f879574af93eef23bd90c,Mężczyzna,19,2021-09-06_19h01.04.534,rantool2,2021.1.4,Win32,60.07088364,6135e006383e6ea6c3d06a28,613647b4d2a81009e7113cf0,,0,0,,110,0,110,0,1
,,,,,,611f879574af93eef23bd90c,,,,,,611f879574af93eef23bd90c,Mężczyzna,19,2021-09-06_19h01.04.534,rantool2,2021.1.4,Win32,60.07088364,6135e006383e6ea6c3d06a28,613647b4d2a81009e7113cf0,,"[""comma"",""comma"",""comma"",""comma"",""comma""]",0,"[0.06289999997619589,0.5038000000119496,0.9898000000119396,1.478099999964229,1.8798999999761463]",111,0,111,0,1
,,,,,,611f879574af93eef23bd90c,,,,,,611f879574af93eef23bd90c,Mężczyzna,19,2021-09-06_19h01.04.534,rantool2,2021.1.4,Win32,60.07088364,6135e006383e6ea6c3d06a28,613647b4d2a81009e7113cf0,,"[""comma""]",0,[0.3056999999880645],112,0,112,0,1
,,,,,,611f879574af93eef23bd90c,,,,,,611f879574af93eef23bd90c,Mężczyzna,19,2021-09-06_19h01.04.534,rantool2,2021.1.4,Win32,60.07088364,6135e006383e6ea6c3d06a28,613647b4d2a81009e7113cf0,,0,0,,113,0,113,0,1
,,,,,,611f879574af93eef23bd90c,,,,,,611f879574af93eef23bd90c,Mężczyzna,19,2021-09-06_19h01.04.534,rantool2,2021.1.4,Win32,60.07088364,6135e006383e6ea6c3d06a28,613647b4d2a81009e7113cf0,,0,0,,114,0,114,0,1
,,,,,,611f879574af93eef23bd90c,,,,,,611f879574af93eef23bd90c,Mężczyzna,19,2021-09-06_19h01.04.534,rantool2,2021.1.4,Win32,60.07088364,6135e006383e6ea6c3d06a28,613647b4d2a81009e7113cf0,,0,0,,115,0,115,0,1
,,,,,,611f879574af93eef23bd90c,,,,,,611f879574af93eef23bd90c,Mężczyzna,19,2021-09-06_19h01.04.534,rantool2,2021.1.4,Win32,60.07088364,6135e006383e6ea6c3d06a28,613647b4d2a81009e7113cf0,,0,0,,116,0,116,0,1
,,,,,,611f879574af93eef23bd90c,,,,,,611f879574af93eef23bd90c,Mężczyzna,19,2021-09-06_19h01.04.534,rantool2,2021.1.4,Win32,60.07088364,6135e006383e6ea6c3d06a28,613647b4d2a81009e7113cf0,,0,0,,117,0,117,0,1
,,,,,,611f879574af93eef23bd90c,,,,,,611f879574af93eef23bd90c,Mężczyzna,19,2021-09-06_19h01.04.534,rantool2,2021.1.4,Win32,60.07088364,6135e006383e6ea6c3d06a28,613647b4d2a81009e7113cf0,,0,0,,118,0,118,0,1
,,,,,,611f879574af93eef23bd90c,,,,,,611f879574af93eef23bd90c,Mężczyzna,19,2021-09-06_19h01.04.534,rantool2,2021.1.4,Win32,60.07088364,6135e006383e6ea6c3d06a28,613647b4d2a81009e7113cf0,,0,0,,119,0,119,0,1
