key_resp_7.keys,key_resp_7.rt,trials_2.thisRepN,trials_2.thisTrialN,trials_2.thisN,trials_2.thisIndex,trials_2.ran,id,series_0,series_1,acss_0,acss_1,comparison,id*,Płeć*,Wiek*,date,expName,psychopyVersion,OS,frameRate,STUDY_ID,SESSION_ID,key_resp_5.keys,key_resp_5.corr,key_resp_5.rt,trials.thisRepN,trials.thisTrialN,trials.thisN,trials.thisIndex,trials.ran
j,3.2642,0,0,0,63,1,612f50c95ff7dace55cc3d9a,RRRRRRO,RRRRRRR,21.35278725,19.62521613,series_0,612f50c95ff7dace55cc3d9a,Kobieta,19,2021-09-06_18h48.41.366,rantool2,2021.1.4,Win32,59.57700328,6135e006383e6ea6c3d06a28,61364630d896bf30dc896a02,,,,,,,,
j,3.0384,0,1,1,51,1,612f50c95ff7dace55cc3d9a,RROORRO,RROORRR,21.89852628,22.02786418,series_1,612f50c95ff7dace55cc3d9a,Kobieta,19,2021-09-06_18h48.41.366,rantool2,2021.1.4,Win32,59.57700328,6135e006383e6ea6c3d06a28,61364630d896bf30dc896a02,,,,,,,,
j,1.6234,0,2,2,21,1,612f50c95ff7dace55cc3d9a,ORORORO,ORORORR,20.39515459,22.06781359,series_1,612f50c95ff7dace55cc3d9a,Kobieta,19,2021-09-06_18h48.41.366,rantool2,2021.1.4,Win32,59.57700328,6135e006383e6ea6c3d06a28,61364630d896bf30dc896a02,,,,,,,,
f,1.5511,0,3,3,57,1,612f50c95ff7dace55cc3d9a,RRROORO,RRROORR,21.82425538,22.07102821,series_1,612f50c95ff7dace55cc3d9a,Kobieta,19,2021-09-06_18h48.41.366,rantool2,2021.1.4,Win32,59.57700328,6135e006383e6ea6c3d06a28,61364630d896bf30dc896a02,,,,,,,,
j,3.2712,0,4,4,14,1,612f50c95ff7dace55cc3d9a,OORRROO,OORRROR,22.24142883,22.16977179,series_0,612f50c95ff7dace55cc3d9a,Kobieta,19,2021-09-06_18h48.41.366,rantool2,2021.1.4,Win32,59.57700328,6135e006383e6ea6c3d06a28,61364630d896bf30dc896a02,,,,,,,,
f,1.8095,0,5,5,38,1,612f50c95ff7dace55cc3d9a,ROORROO,ROORROR,21.79500819,21.36812781,series_0,612f50c95ff7dace55cc3d9a,Kobieta,19,2021-09-06_18h48.41.366,rantool2,2021.1.4,Win32,59.57700328,6135e006383e6ea6c3d06a28,61364630d896bf30dc896a02,,,,,,,,
j,2.2476,0,6,6,54,1,612f50c95ff7dace55cc3d9a,RRORROO,RRORROR,21.55250791,20.9984461,series_0,612f50c95ff7dace55cc3d9a,Kobieta,19,2021-09-06_18h48.41.366,rantool2,2021.1.4,Win32,59.57700328,6135e006383e6ea6c3d06a28,61364630d896bf30dc896a02,,,,,,,,
f,1.1727,0,7,7,45,1,612f50c95ff7dace55cc3d9a,RORRORO,RORRORR,20.78182524,21.22513037,series_1,612f50c95ff7dace55cc3d9a,Kobieta,19,2021-09-06_18h48.41.366,rantool2,2021.1.4,Win32,59.57700328,6135e006383e6ea6c3d06a28,61364630d896bf30dc896a02,,,,,,,,
f,2.5545,0,8,8,25,1,612f50c95ff7dace55cc3d9a,ORROORO,ORROORR,21.79500819,22.61624387,series_1,612f50c95ff7dace55cc3d9a,Kobieta,19,2021-09-06_18h48.41.366,rantool2,2021.1.4,Win32,59.57700328,6135e006383e6ea6c3d06a28,61364630d896bf30dc896a02,,,,,,,,
f,2.7552,0,9,9,4,1,612f50c95ff7dace55cc3d9a,OOOROOO,OOOROOR,19.91402015,21.21223021,series_1,612f50c95ff7dace55cc3d9a,Kobieta,19,2021-09-06_18h48.41.366,rantool2,2021.1.4,Win32,59.57700328,6135e006383e6ea6c3d06a28,61364630d896bf30dc896a02,,,,,,,,
j,1.8337,0,10,10,24,1,612f50c95ff7dace55cc3d9a,ORROOOO,ORROOOR,21.12383932,22.07102821,series_1,612f50c95ff7dace55cc3d9a,Kobieta,19,2021-09-06_18h48.41.366,rantool2,2021.1.4,Win32,59.57700328,6135e006383e6ea6c3d06a28,61364630d896bf30dc896a02,,,,,,,,
f,1.7193,0,11,11,27,1,612f50c95ff7dace55cc3d9a,ORRORRO,ORRORRR,21.55250791,22.2428857,series_1,612f50c95ff7dace55cc3d9a,Kobieta,19,2021-09-06_18h48.41.366,rantool2,2021.1.4,Win32,59.57700328,6135e006383e6ea6c3d06a28,61364630d896bf30dc896a02,,,,,,,,
j,2.5664,0,12,12,40,1,612f50c95ff7dace55cc3d9a,ROROOOO,ROROOOR,20.87963819,21.37121559,series_1,612f50c95ff7dace55cc3d9a,Kobieta,19,2021-09-06_18h48.41.366,rantool2,2021.1.4,Win32,59.57700328,6135e006383e6ea6c3d06a28,61364630d896bf30dc896a02,,,,,,,,
f,1.6235,0,13,13,58,1,612f50c95ff7dace55cc3d9a,RRROROO,RRROROR,22.1285618,21.37121559,series_0,612f50c95ff7dace55cc3d9a,Kobieta,19,2021-09-06_18h48.41.366,rantool2,2021.1.4,Win32,59.57700328,6135e006383e6ea6c3d06a28,61364630d896bf30dc896a02,,,,,,,,
j,1.2527,0,14,14,16,1,612f50c95ff7dace55cc3d9a,OROOOOO,OROOOOR,20.43051175,21.17347734,series_1,612f50c95ff7dace55cc3d9a,Kobieta,19,2021-09-06_18h48.41.366,rantool2,2021.1.4,Win32,59.57700328,6135e006383e6ea6c3d06a28,61364630d896bf30dc896a02,,,,,,,,
f,1.409,0,15,15,23,1,612f50c95ff7dace55cc3d9a,ORORRRO,ORORRRR,22.1285618,21.9921709,series_0,612f50c95ff7dace55cc3d9a,Kobieta,19,2021-09-06_18h48.41.366,rantool2,2021.1.4,Win32,59.57700328,6135e006383e6ea6c3d06a28,61364630d896bf30dc896a02,,,,,,,,
j,1.6538,0,16,16,11,1,612f50c95ff7dace55cc3d9a,OORORRO,OORORRR,22.18365867,22.6797523,series_1,612f50c95ff7dace55cc3d9a,Kobieta,19,2021-09-06_18h48.41.366,rantool2,2021.1.4,Win32,59.57700328,6135e006383e6ea6c3d06a28,61364630d896bf30dc896a02,,,,,,,,
f,1.3862,0,17,17,52,1,612f50c95ff7dace55cc3d9a,RROROOO,RROROOR,22.18365867,22.11097995,series_0,612f50c95ff7dace55cc3d9a,Kobieta,19,2021-09-06_18h48.41.366,rantool2,2021.1.4,Win32,59.57700328,6135e006383e6ea6c3d06a28,61364630d896bf30dc896a02,,,,,,,,
j,1.7014,0,18,18,42,1,612f50c95ff7dace55cc3d9a,ROROROO,ROROROR,20.39515459,19.8361834,series_0,612f50c95ff7dace55cc3d9a,Kobieta,19,2021-09-06_18h48.41.366,rantool2,2021.1.4,Win32,59.57700328,6135e006383e6ea6c3d06a28,61364630d896bf30dc896a02,,,,,,,,
j,1.8511,0,19,19,17,1,612f50c95ff7dace55cc3d9a,OROOORO,OROOORR,21.03750787,22.12173012,series_1,612f50c95ff7dace55cc3d9a,Kobieta,19,2021-09-06_18h48.41.366,rantool2,2021.1.4,Win32,59.57700328,6135e006383e6ea6c3d06a28,61364630d896bf30dc896a02,,,,,,,,
f,1.1,0,20,20,33,1,612f50c95ff7dace55cc3d9a,ROOOORO,ROOOORR,20.83779602,22.03072203,series_1,612f50c95ff7dace55cc3d9a,Kobieta,19,2021-09-06_18h48.41.366,rantool2,2021.1.4,Win32,59.57700328,6135e006383e6ea6c3d06a28,61364630d896bf30dc896a02,,,,,,,,
j,1.2696,0,21,21,3,1,612f50c95ff7dace55cc3d9a,OOOORRO,OOOORRR,20.90986523,21.74922619,series_1,612f50c95ff7dace55cc3d9a,Kobieta,19,2021-09-06_18h48.41.366,rantool2,2021.1.4,Win32,59.57700328,6135e006383e6ea6c3d06a28,61364630d896bf30dc896a02,,,,,,,,
f,1.0511,0,22,22,48,1,612f50c95ff7dace55cc3d9a,RROOOOO,RROOOOR,20.90986523,22.15934078,series_1,612f50c95ff7dace55cc3d9a,Kobieta,19,2021-09-06_18h48.41.366,rantool2,2021.1.4,Win32,59.57700328,6135e006383e6ea6c3d06a28,61364630d896bf30dc896a02,,,,,,,,
f,1.5356,0,23,23,32,1,612f50c95ff7dace55cc3d9a,ROOOOOO,ROOOOOR,19.92253567,21.27974287,series_1,612f50c95ff7dace55cc3d9a,Kobieta,19,2021-09-06_18h48.41.366,rantool2,2021.1.4,Win32,59.57700328,6135e006383e6ea6c3d06a28,61364630d896bf30dc896a02,,,,,,,,
f,1.6781,0,24,24,1,1,612f50c95ff7dace55cc3d9a,OOOOORO,OOOOORR,19.92253567,20.74050628,series_1,612f50c95ff7dace55cc3d9a,Kobieta,19,2021-09-06_18h48.41.366,rantool2,2021.1.4,Win32,59.57700328,6135e006383e6ea6c3d06a28,61364630d896bf30dc896a02,,,,,,,,
f,2.5241,0,25,25,39,1,612f50c95ff7dace55cc3d9a,ROORRRO,ROORRRR,21.82425538,21.38562617,series_0,612f50c95ff7dace55cc3d9a,Kobieta,19,2021-09-06_18h48.41.366,rantool2,2021.1.4,Win32,59.57700328,6135e006383e6ea6c3d06a28,61364630d896bf30dc896a02,,,,,,,,
f,2.8946,0,26,26,26,1,612f50c95ff7dace55cc3d9a,ORROROO,ORROROR,22.02732763,21.71443381,series_0,612f50c95ff7dace55cc3d9a,Kobieta,19,2021-09-06_18h48.41.366,rantool2,2021.1.4,Win32,59.57700328,6135e006383e6ea6c3d06a28,61364630d896bf30dc896a02,,,,,,,,
j,1.8592,0,27,27,49,1,612f50c95ff7dace55cc3d9a,RROOORO,RROOORR,21.76276513,22.53364006,series_1,612f50c95ff7dace55cc3d9a,Kobieta,19,2021-09-06_18h48.41.366,rantool2,2021.1.4,Win32,59.57700328,6135e006383e6ea6c3d06a28,61364630d896bf30dc896a02,,,,,,,,
j,2.2315,0,28,28,31,1,612f50c95ff7dace55cc3d9a,ORRRRRO,ORRRRRR,22.16413392,20.74050628,series_0,612f50c95ff7dace55cc3d9a,Kobieta,19,2021-09-06_18h48.41.366,rantool2,2021.1.4,Win32,59.57700328,6135e006383e6ea6c3d06a28,61364630d896bf30dc896a02,,,,,,,,
f,1.8779,0,29,29,12,1,612f50c95ff7dace55cc3d9a,OORROOO,OORROOR,21.30250474,22.02786418,series_1,612f50c95ff7dace55cc3d9a,Kobieta,19,2021-09-06_18h48.41.366,rantool2,2021.1.4,Win32,59.57700328,6135e006383e6ea6c3d06a28,61364630d896bf30dc896a02,,,,,,,,
f,2.3809,0,30,30,6,1,612f50c95ff7dace55cc3d9a,OOORROO,OOORROR,21.12383932,21.38562617,series_1,612f50c95ff7dace55cc3d9a,Kobieta,19,2021-09-06_18h48.41.366,rantool2,2021.1.4,Win32,59.57700328,6135e006383e6ea6c3d06a28,61364630d896bf30dc896a02,,,,,,,,
j,1.3361,0,31,31,10,1,612f50c95ff7dace55cc3d9a,OOROROO,OOROROR,21.31236711,21.07490964,series_0,612f50c95ff7dace55cc3d9a,Kobieta,19,2021-09-06_18h48.41.366,rantool2,2021.1.4,Win32,59.57700328,6135e006383e6ea6c3d06a28,61364630d896bf30dc896a02,,,,,,,,
f,2.6255,0,32,32,61,1,612f50c95ff7dace55cc3d9a,RRRRORO,RRRRORR,21.81333602,21.17347734,series_0,612f50c95ff7dace55cc3d9a,Kobieta,19,2021-09-06_18h48.41.366,rantool2,2021.1.4,Win32,59.57700328,6135e006383e6ea6c3d06a28,61364630d896bf30dc896a02,,,,,,,,
j,1.5353,0,33,33,2,1,612f50c95ff7dace55cc3d9a,OOOOROO,OOOOROR,20.43051175,21.02936224,series_1,612f50c95ff7dace55cc3d9a,Kobieta,19,2021-09-06_18h48.41.366,rantool2,2021.1.4,Win32,59.57700328,6135e006383e6ea6c3d06a28,61364630d896bf30dc896a02,,,,,,,,
j,2.4837,0,34,34,43,1,612f50c95ff7dace55cc3d9a,RORORRO,RORORRR,20.71309134,21.07490964,series_1,612f50c95ff7dace55cc3d9a,Kobieta,19,2021-09-06_18h48.41.366,rantool2,2021.1.4,Win32,59.57700328,6135e006383e6ea6c3d06a28,61364630d896bf30dc896a02,,,,,,,,
f,1.467,0,35,35,5,1,612f50c95ff7dace55cc3d9a,OOORORO,OOORORR,20.87963819,21.9921709,series_1,612f50c95ff7dace55cc3d9a,Kobieta,19,2021-09-06_18h48.41.366,rantool2,2021.1.4,Win32,59.57700328,6135e006383e6ea6c3d06a28,61364630d896bf30dc896a02,,,,,,,,
j,1.8213,0,36,36,22,1,612f50c95ff7dace55cc3d9a,ORORROO,ORORROR,22.02732763,21.57657071,series_0,612f50c95ff7dace55cc3d9a,Kobieta,19,2021-09-06_18h48.41.366,rantool2,2021.1.4,Win32,59.57700328,6135e006383e6ea6c3d06a28,61364630d896bf30dc896a02,,,,,,,,
j,2.5195,0,37,37,18,1,612f50c95ff7dace55cc3d9a,OROOROO,OROOROR,20.84860893,21.22513037,series_1,612f50c95ff7dace55cc3d9a,Kobieta,19,2021-09-06_18h48.41.366,rantool2,2021.1.4,Win32,59.57700328,6135e006383e6ea6c3d06a28,61364630d896bf30dc896a02,,,,,,,,
f,2.1632,0,38,38,0,1,612f50c95ff7dace55cc3d9a,OOOOOOO,OOOOOOR,18.52739004,19.62521613,series_1,612f50c95ff7dace55cc3d9a,Kobieta,19,2021-09-06_18h48.41.366,rantool2,2021.1.4,Win32,59.57700328,6135e006383e6ea6c3d06a28,61364630d896bf30dc896a02,,,,,,,,
j,2.668,0,39,39,28,1,612f50c95ff7dace55cc3d9a,ORRROOO,ORRROOR,22.24142883,22.53364006,series_1,612f50c95ff7dace55cc3d9a,Kobieta,19,2021-09-06_18h48.41.366,rantool2,2021.1.4,Win32,59.57700328,6135e006383e6ea6c3d06a28,61364630d896bf30dc896a02,,,,,,,,
j,2.4004,0,40,40,53,1,612f50c95ff7dace55cc3d9a,RRORORO,RRORORR,20.71309134,21.90565814,series_1,612f50c95ff7dace55cc3d9a,Kobieta,19,2021-09-06_18h48.41.366,rantool2,2021.1.4,Win32,59.57700328,6135e006383e6ea6c3d06a28,61364630d896bf30dc896a02,,,,,,,,
f,1.1046,0,41,41,20,1,612f50c95ff7dace55cc3d9a,OROROOO,OROROOR,21.31236711,21.90565814,series_1,612f50c95ff7dace55cc3d9a,Kobieta,19,2021-09-06_18h48.41.366,rantool2,2021.1.4,Win32,59.57700328,6135e006383e6ea6c3d06a28,61364630d896bf30dc896a02,,,,,,,,
f,1.385,0,42,42,37,1,612f50c95ff7dace55cc3d9a,ROORORO,ROORORR,20.42602454,21.57657071,series_1,612f50c95ff7dace55cc3d9a,Kobieta,19,2021-09-06_18h48.41.366,rantool2,2021.1.4,Win32,59.57700328,6135e006383e6ea6c3d06a28,61364630d896bf30dc896a02,,,,,,,,
j,1.2844,0,43,43,7,1,612f50c95ff7dace55cc3d9a,OOORRRO,OOORRRR,21.6194508,21.899017,series_1,612f50c95ff7dace55cc3d9a,Kobieta,19,2021-09-06_18h48.41.366,rantool2,2021.1.4,Win32,59.57700328,6135e006383e6ea6c3d06a28,61364630d896bf30dc896a02,,,,,,,,
j,1.5443,0,44,44,44,1,612f50c95ff7dace55cc3d9a,RORROOO,RORROOR,21.66733484,22.02566557,series_1,612f50c95ff7dace55cc3d9a,Kobieta,19,2021-09-06_18h48.41.366,rantool2,2021.1.4,Win32,59.57700328,6135e006383e6ea6c3d06a28,61364630d896bf30dc896a02,,,,,,,,
j,1.4558,0,45,45,50,1,612f50c95ff7dace55cc3d9a,RROOROO,RROOROR,21.73568164,22.02566557,series_1,612f50c95ff7dace55cc3d9a,Kobieta,19,2021-09-06_18h48.41.366,rantool2,2021.1.4,Win32,59.57700328,6135e006383e6ea6c3d06a28,61364630d896bf30dc896a02,,,,,,,,
j,1.4828,0,46,46,47,1,612f50c95ff7dace55cc3d9a,RORRRRO,RORRRRR,21.81333602,21.02936224,series_0,612f50c95ff7dace55cc3d9a,Kobieta,19,2021-09-06_18h48.41.366,rantool2,2021.1.4,Win32,59.57700328,6135e006383e6ea6c3d06a28,61364630d896bf30dc896a02,,,,,,,,
j,1.8265,0,47,47,34,1,612f50c95ff7dace55cc3d9a,ROOOROO,ROOOROR,21.03750787,21.24781509,series_1,612f50c95ff7dace55cc3d9a,Kobieta,19,2021-09-06_18h48.41.366,rantool2,2021.1.4,Win32,59.57700328,6135e006383e6ea6c3d06a28,61364630d896bf30dc896a02,,,,,,,,
f,1.9012,0,48,48,62,1,612f50c95ff7dace55cc3d9a,RRRRROO,RRRRROR,22.16413392,21.27974287,series_0,612f50c95ff7dace55cc3d9a,Kobieta,19,2021-09-06_18h48.41.366,rantool2,2021.1.4,Win32,59.57700328,6135e006383e6ea6c3d06a28,61364630d896bf30dc896a02,,,,,,,,
f,1.8998,0,49,49,35,1,612f50c95ff7dace55cc3d9a,ROOORRO,ROOORRR,21.76276513,22.16977179,series_1,612f50c95ff7dace55cc3d9a,Kobieta,19,2021-09-06_18h48.41.366,rantool2,2021.1.4,Win32,59.57700328,6135e006383e6ea6c3d06a28,61364630d896bf30dc896a02,,,,,,,,
f,0.9542,0,50,50,46,1,612f50c95ff7dace55cc3d9a,RORRROO,RORRROR,22.00300695,21.24781509,series_0,612f50c95ff7dace55cc3d9a,Kobieta,19,2021-09-06_18h48.41.366,rantool2,2021.1.4,Win32,59.57700328,6135e006383e6ea6c3d06a28,61364630d896bf30dc896a02,,,,,,,,
f,1.5519,0,51,51,15,1,612f50c95ff7dace55cc3d9a,OORRRRO,OORRRRR,22.10108823,21.74922619,series_0,612f50c95ff7dace55cc3d9a,Kobieta,19,2021-09-06_18h48.41.366,rantool2,2021.1.4,Win32,59.57700328,6135e006383e6ea6c3d06a28,61364630d896bf30dc896a02,,,,,,,,
j,2.5518,0,52,52,29,1,612f50c95ff7dace55cc3d9a,ORRRORO,ORRRORR,22.00300695,22.12173012,series_1,612f50c95ff7dace55cc3d9a,Kobieta,19,2021-09-06_18h48.41.366,rantool2,2021.1.4,Win32,59.57700328,6135e006383e6ea6c3d06a28,61364630d896bf30dc896a02,,,,,,,,
j,1.0339,0,53,53,60,1,612f50c95ff7dace55cc3d9a,RRRROOO,RRRROOR,22.10108823,22.15934078,series_1,612f50c95ff7dace55cc3d9a,Kobieta,19,2021-09-06_18h48.41.366,rantool2,2021.1.4,Win32,59.57700328,6135e006383e6ea6c3d06a28,61364630d896bf30dc896a02,,,,,,,,
f,0.8423,0,54,54,30,1,612f50c95ff7dace55cc3d9a,ORRRROO,ORRRROR,22.46748491,22.03072203,series_0,612f50c95ff7dace55cc3d9a,Kobieta,19,2021-09-06_18h48.41.366,rantool2,2021.1.4,Win32,59.57700328,6135e006383e6ea6c3d06a28,61364630d896bf30dc896a02,,,,,,,,
j,1.3672,0,55,55,36,1,612f50c95ff7dace55cc3d9a,ROOROOO,ROOROOR,21.07991943,20.9984461,series_0,612f50c95ff7dace55cc3d9a,Kobieta,19,2021-09-06_18h48.41.366,rantool2,2021.1.4,Win32,59.57700328,6135e006383e6ea6c3d06a28,61364630d896bf30dc896a02,,,,,,,,
f,1.0151,0,56,56,8,1,612f50c95ff7dace55cc3d9a,OOROOOO,OOROOOR,19.91402015,20.89823192,series_1,612f50c95ff7dace55cc3d9a,Kobieta,19,2021-09-06_18h48.41.366,rantool2,2021.1.4,Win32,59.57700328,6135e006383e6ea6c3d06a28,61364630d896bf30dc896a02,,,,,,,,
f,1.6435,0,57,57,41,1,612f50c95ff7dace55cc3d9a,ROROORO,ROROORR,20.42602454,21.71443381,series_1,612f50c95ff7dace55cc3d9a,Kobieta,19,2021-09-06_18h48.41.366,rantool2,2021.1.4,Win32,59.57700328,6135e006383e6ea6c3d06a28,61364630d896bf30dc896a02,,,,,,,,
j,1.9561,0,58,58,9,1,612f50c95ff7dace55cc3d9a,OOROORO,OOROORR,21.07991943,22.2428857,series_1,612f50c95ff7dace55cc3d9a,Kobieta,19,2021-09-06_18h48.41.366,rantool2,2021.1.4,Win32,59.57700328,6135e006383e6ea6c3d06a28,61364630d896bf30dc896a02,,,,,,,,
j,1.7845,0,59,59,56,1,612f50c95ff7dace55cc3d9a,RRROOOO,RRROOOR,21.6194508,22.31681875,series_1,612f50c95ff7dace55cc3d9a,Kobieta,19,2021-09-06_18h48.41.366,rantool2,2021.1.4,Win32,59.57700328,6135e006383e6ea6c3d06a28,61364630d896bf30dc896a02,,,,,,,,
f,1.7201,0,60,60,19,1,612f50c95ff7dace55cc3d9a,OROORRO,OROORRR,21.73568164,22.11181017,series_1,612f50c95ff7dace55cc3d9a,Kobieta,19,2021-09-06_18h48.41.366,rantool2,2021.1.4,Win32,59.57700328,6135e006383e6ea6c3d06a28,61364630d896bf30dc896a02,,,,,,,,
f,2.2481,0,61,61,13,1,612f50c95ff7dace55cc3d9a,OORRORO,OORRORR,21.66733484,22.11181017,series_1,612f50c95ff7dace55cc3d9a,Kobieta,19,2021-09-06_18h48.41.366,rantool2,2021.1.4,Win32,59.57700328,6135e006383e6ea6c3d06a28,61364630d896bf30dc896a02,,,,,,,,
j,1.834,0,62,62,55,1,612f50c95ff7dace55cc3d9a,RRORRRO,RRORRRR,21.56657303,21.21223021,series_0,612f50c95ff7dace55cc3d9a,Kobieta,19,2021-09-06_18h48.41.366,rantool2,2021.1.4,Win32,59.57700328,6135e006383e6ea6c3d06a28,61364630d896bf30dc896a02,,,,,,,,
j,2.1569,0,63,63,59,1,612f50c95ff7dace55cc3d9a,RRRORRO,RRRORRR,21.56657303,20.89823192,series_0,612f50c95ff7dace55cc3d9a,Kobieta,19,2021-09-06_18h48.41.366,rantool2,2021.1.4,Win32,59.57700328,6135e006383e6ea6c3d06a28,61364630d896bf30dc896a02,,,,,,,,
,,,,,,,612f50c95ff7dace55cc3d9a,,,,,,612f50c95ff7dace55cc3d9a,Kobieta,19,2021-09-06_18h48.41.366,rantool2,2021.1.4,Win32,59.57700328,6135e006383e6ea6c3d06a28,61364630d896bf30dc896a02,0,,,0,0,0,0,1
,,,,,,,612f50c95ff7dace55cc3d9a,,,,,,612f50c95ff7dace55cc3d9a,Kobieta,19,2021-09-06_18h48.41.366,rantool2,2021.1.4,Win32,59.57700328,6135e006383e6ea6c3d06a28,61364630d896bf30dc896a02,0,,,1,0,1,0,1
,,,,,,,612f50c95ff7dace55cc3d9a,,,,,,612f50c95ff7dace55cc3d9a,Kobieta,19,2021-09-06_18h48.41.366,rantool2,2021.1.4,Win32,59.57700328,6135e006383e6ea6c3d06a28,61364630d896bf30dc896a02,"[""period""]",0,[0.4256999999880975],2,0,2,0,1
,,,,,,,612f50c95ff7dace55cc3d9a,,,,,,612f50c95ff7dace55cc3d9a,Kobieta,19,2021-09-06_18h48.41.366,rantool2,2021.1.4,Win32,59.57700328,6135e006383e6ea6c3d06a28,61364630d896bf30dc896a02,0,0,,3,0,3,0,1
,,,,,,,612f50c95ff7dace55cc3d9a,,,,,,612f50c95ff7dace55cc3d9a,Kobieta,19,2021-09-06_18h48.41.366,rantool2,2021.1.4,Win32,59.57700328,6135e006383e6ea6c3d06a28,61364630d896bf30dc896a02,"[""period""]",0,[0.2516999999880625],4,0,4,0,1
,,,,,,,612f50c95ff7dace55cc3d9a,,,,,,612f50c95ff7dace55cc3d9a,Kobieta,19,2021-09-06_18h48.41.366,rantool2,2021.1.4,Win32,59.57700328,6135e006383e6ea6c3d06a28,61364630d896bf30dc896a02,"[""comma""]",0,[0.2576999999880911],5,0,5,0,1
,,,,,,,612f50c95ff7dace55cc3d9a,,,,,,612f50c95ff7dace55cc3d9a,Kobieta,19,2021-09-06_18h48.41.366,rantool2,2021.1.4,Win32,59.57700328,6135e006383e6ea6c3d06a28,61364630d896bf30dc896a02,"[""period""]",0,[0.20130000001191206],6,0,6,0,1
,,,,,,,612f50c95ff7dace55cc3d9a,,,,,,612f50c95ff7dace55cc3d9a,Kobieta,19,2021-09-06_18h48.41.366,rantool2,2021.1.4,Win32,59.57700328,6135e006383e6ea6c3d06a28,61364630d896bf30dc896a02,"[""comma""]",0,[0.24969999998808134],7,0,7,0,1
,,,,,,,612f50c95ff7dace55cc3d9a,,,,,,612f50c95ff7dace55cc3d9a,Kobieta,19,2021-09-06_18h48.41.366,rantool2,2021.1.4,Win32,59.57700328,6135e006383e6ea6c3d06a28,61364630d896bf30dc896a02,"[""comma""]",0,[0.21769999998807066],8,0,8,0,1
,,,,,,,612f50c95ff7dace55cc3d9a,,,,,,612f50c95ff7dace55cc3d9a,Kobieta,19,2021-09-06_18h48.41.366,rantool2,2021.1.4,Win32,59.57700328,6135e006383e6ea6c3d06a28,61364630d896bf30dc896a02,"[""period""]",0,[0.48389999997615973],9,0,9,0,1
,,,,,,,612f50c95ff7dace55cc3d9a,,,,,,612f50c95ff7dace55cc3d9a,Kobieta,19,2021-09-06_18h48.41.366,rantool2,2021.1.4,Win32,59.57700328,6135e006383e6ea6c3d06a28,61364630d896bf30dc896a02,"[""comma""]",0,[0.2261000000238198],10,0,10,0,1
,,,,,,,612f50c95ff7dace55cc3d9a,,,,,,612f50c95ff7dace55cc3d9a,Kobieta,19,2021-09-06_18h48.41.366,rantool2,2021.1.4,Win32,59.57700328,6135e006383e6ea6c3d06a28,61364630d896bf30dc896a02,"[""period""]",0,[0.3603000000119039],11,0,11,0,1
,,,,,,,612f50c95ff7dace55cc3d9a,,,,,,612f50c95ff7dace55cc3d9a,Kobieta,19,2021-09-06_18h48.41.366,rantool2,2021.1.4,Win32,59.57700328,6135e006383e6ea6c3d06a28,61364630d896bf30dc896a02,"[""period""]",0,[0.4317999999523181],12,0,12,0,1
,,,,,,,612f50c95ff7dace55cc3d9a,,,,,,612f50c95ff7dace55cc3d9a,Kobieta,19,2021-09-06_18h48.41.366,rantool2,2021.1.4,Win32,59.57700328,6135e006383e6ea6c3d06a28,61364630d896bf30dc896a02,"[""comma""]",0,[0.2254999999999825],13,0,13,0,1
,,,,,,,612f50c95ff7dace55cc3d9a,,,,,,612f50c95ff7dace55cc3d9a,Kobieta,19,2021-09-06_18h48.41.366,rantool2,2021.1.4,Win32,59.57700328,6135e006383e6ea6c3d06a28,61364630d896bf30dc896a02,"[""comma""]",0,[0.248699999988105],14,0,14,0,1
,,,,,,,612f50c95ff7dace55cc3d9a,,,,,,612f50c95ff7dace55cc3d9a,Kobieta,19,2021-09-06_18h48.41.366,rantool2,2021.1.4,Win32,59.57700328,6135e006383e6ea6c3d06a28,61364630d896bf30dc896a02,"[""comma""]",0,[0.3076999999881025],15,0,15,0,1
,,,,,,,612f50c95ff7dace55cc3d9a,,,,,,612f50c95ff7dace55cc3d9a,Kobieta,19,2021-09-06_18h48.41.366,rantool2,2021.1.4,Win32,59.57700328,6135e006383e6ea6c3d06a28,61364630d896bf30dc896a02,"[""period""]",0,[0.2565000000000168],16,0,16,0,1
,,,,,,,612f50c95ff7dace55cc3d9a,,,,,,612f50c95ff7dace55cc3d9a,Kobieta,19,2021-09-06_18h48.41.366,rantool2,2021.1.4,Win32,59.57700328,6135e006383e6ea6c3d06a28,61364630d896bf30dc896a02,"[""period""]",0,[0.20650000000000546],17,0,17,0,1
,,,,,,,612f50c95ff7dace55cc3d9a,,,,,,612f50c95ff7dace55cc3d9a,Kobieta,19,2021-09-06_18h48.41.366,rantool2,2021.1.4,Win32,59.57700328,6135e006383e6ea6c3d06a28,61364630d896bf30dc896a02,"[""period""]",0,[0.34069999998808953],18,0,18,0,1
,,,,,,,612f50c95ff7dace55cc3d9a,,,,,,612f50c95ff7dace55cc3d9a,Kobieta,19,2021-09-06_18h48.41.366,rantool2,2021.1.4,Win32,59.57700328,6135e006383e6ea6c3d06a28,61364630d896bf30dc896a02,"[""comma""]",0,[0.2399000000357887],19,0,19,0,1
,,,,,,,612f50c95ff7dace55cc3d9a,,,,,,612f50c95ff7dace55cc3d9a,Kobieta,19,2021-09-06_18h48.41.366,rantool2,2021.1.4,Win32,59.57700328,6135e006383e6ea6c3d06a28,61364630d896bf30dc896a02,"[""comma""]",0,[0.36889999997617906],20,0,20,0,1
,,,,,,,612f50c95ff7dace55cc3d9a,,,,,,612f50c95ff7dace55cc3d9a,Kobieta,19,2021-09-06_18h48.41.366,rantool2,2021.1.4,Win32,59.57700328,6135e006383e6ea6c3d06a28,61364630d896bf30dc896a02,"[""period""]",0,[0.20729999995234039],21,0,21,0,1
,,,,,,,612f50c95ff7dace55cc3d9a,,,,,,612f50c95ff7dace55cc3d9a,Kobieta,19,2021-09-06_18h48.41.366,rantool2,2021.1.4,Win32,59.57700328,6135e006383e6ea6c3d06a28,61364630d896bf30dc896a02,"[""comma""]",0,[0.021300000011933662],22,0,22,0,1
,,,,,,,612f50c95ff7dace55cc3d9a,,,,,,612f50c95ff7dace55cc3d9a,Kobieta,19,2021-09-06_18h48.41.366,rantool2,2021.1.4,Win32,59.57700328,6135e006383e6ea6c3d06a28,61364630d896bf30dc896a02,"[""comma"",""period""]",0,"[0.1560999999642263,1.914699999988045]",23,0,23,0,1
,,,,,,,612f50c95ff7dace55cc3d9a,,,,,,612f50c95ff7dace55cc3d9a,Kobieta,19,2021-09-06_18h48.41.366,rantool2,2021.1.4,Win32,59.57700328,6135e006383e6ea6c3d06a28,61364630d896bf30dc896a02,"[""comma""]",0,[1.3318000000119241],24,0,24,0,1
,,,,,,,612f50c95ff7dace55cc3d9a,,,,,,612f50c95ff7dace55cc3d9a,Kobieta,19,2021-09-06_18h48.41.366,rantool2,2021.1.4,Win32,59.57700328,6135e006383e6ea6c3d06a28,61364630d896bf30dc896a02,"[""period""]",0,[0.5845999999642686],25,0,25,0,1
,,,,,,,612f50c95ff7dace55cc3d9a,,,,,,612f50c95ff7dace55cc3d9a,Kobieta,19,2021-09-06_18h48.41.366,rantool2,2021.1.4,Win32,59.57700328,6135e006383e6ea6c3d06a28,61364630d896bf30dc896a02,"[""comma"",""comma""]",0,"[0.32279999995233766,1.8523999999761713]",26,0,26,0,1
,,,,,,,612f50c95ff7dace55cc3d9a,,,,,,612f50c95ff7dace55cc3d9a,Kobieta,19,2021-09-06_18h48.41.366,rantool2,2021.1.4,Win32,59.57700328,6135e006383e6ea6c3d06a28,61364630d896bf30dc896a02,"[""period""]",0,[1.6261999999881027],27,0,27,0,1
,,,,,,,612f50c95ff7dace55cc3d9a,,,,,,612f50c95ff7dace55cc3d9a,Kobieta,19,2021-09-06_18h48.41.366,rantool2,2021.1.4,Win32,59.57700328,6135e006383e6ea6c3d06a28,61364630d896bf30dc896a02,"[""comma""]",0,[1.2983999999761977],28,0,28,0,1
,,,,,,,612f50c95ff7dace55cc3d9a,,,,,,612f50c95ff7dace55cc3d9a,Kobieta,19,2021-09-06_18h48.41.366,rantool2,2021.1.4,Win32,59.57700328,6135e006383e6ea6c3d06a28,61364630d896bf30dc896a02,"[""period""]",0,[0.9569000000357732],29,0,29,0,1
,,,,,,,612f50c95ff7dace55cc3d9a,,,,,,612f50c95ff7dace55cc3d9a,Kobieta,19,2021-09-06_18h48.41.366,rantool2,2021.1.4,Win32,59.57700328,6135e006383e6ea6c3d06a28,61364630d896bf30dc896a02,"[""comma"",""period""]",0,"[0.019699999988063155,1.3311999999880868]",30,0,30,0,1
,,,,,,,612f50c95ff7dace55cc3d9a,,,,,,612f50c95ff7dace55cc3d9a,Kobieta,19,2021-09-06_18h48.41.366,rantool2,2021.1.4,Win32,59.57700328,6135e006383e6ea6c3d06a28,61364630d896bf30dc896a02,"[""period""]",0,[0.5815000000000055],31,0,31,0,1
,,,,,,,612f50c95ff7dace55cc3d9a,,,,,,612f50c95ff7dace55cc3d9a,Kobieta,19,2021-09-06_18h48.41.366,rantool2,2021.1.4,Win32,59.57700328,6135e006383e6ea6c3d06a28,61364630d896bf30dc896a02,"[""comma"",""comma""]",0,"[0.02199999999999136,1.7841999999880613]",32,0,32,0,1
,,,,,,,612f50c95ff7dace55cc3d9a,,,,,,612f50c95ff7dace55cc3d9a,Kobieta,19,2021-09-06_18h48.41.366,rantool2,2021.1.4,Win32,59.57700328,6135e006383e6ea6c3d06a28,61364630d896bf30dc896a02,0,0,,33,0,33,0,1
,,,,,,,612f50c95ff7dace55cc3d9a,,,,,,612f50c95ff7dace55cc3d9a,Kobieta,19,2021-09-06_18h48.41.366,rantool2,2021.1.4,Win32,59.57700328,6135e006383e6ea6c3d06a28,61364630d896bf30dc896a02,"[""period""]",0,[0.2185000000000059],34,0,34,0,1
,,,,,,,612f50c95ff7dace55cc3d9a,,,,,,612f50c95ff7dace55cc3d9a,Kobieta,19,2021-09-06_18h48.41.366,rantool2,2021.1.4,Win32,59.57700328,6135e006383e6ea6c3d06a28,61364630d896bf30dc896a02,"[""comma""]",0,[0.3066999999880409],35,0,35,0,1
,,,,,,,612f50c95ff7dace55cc3d9a,,,,,,612f50c95ff7dace55cc3d9a,Kobieta,19,2021-09-06_18h48.41.366,rantool2,2021.1.4,Win32,59.57700328,6135e006383e6ea6c3d06a28,61364630d896bf30dc896a02,"[""comma""]",0,[0.2838000000119223],36,0,36,0,1
,,,,,,,612f50c95ff7dace55cc3d9a,,,,,,612f50c95ff7dace55cc3d9a,Kobieta,19,2021-09-06_18h48.41.366,rantool2,2021.1.4,Win32,59.57700328,6135e006383e6ea6c3d06a28,61364630d896bf30dc896a02,"[""comma"",""period""]",0,"[0.24250000000000682,0.8353999999761754]",37,0,37,0,1
,,,,,,,612f50c95ff7dace55cc3d9a,,,,,,612f50c95ff7dace55cc3d9a,Kobieta,19,2021-09-06_18h48.41.366,rantool2,2021.1.4,Win32,59.57700328,6135e006383e6ea6c3d06a28,61364630d896bf30dc896a02,"[""period""]",0,[0.3848000000119214],38,0,38,0,1
,,,,,,,612f50c95ff7dace55cc3d9a,,,,,,612f50c95ff7dace55cc3d9a,Kobieta,19,2021-09-06_18h48.41.366,rantool2,2021.1.4,Win32,59.57700328,6135e006383e6ea6c3d06a28,61364630d896bf30dc896a02,"[""comma"",""period""]",0,"[0.058500000000037744,0.803800000011961]",39,0,39,0,1
,,,,,,,612f50c95ff7dace55cc3d9a,,,,,,612f50c95ff7dace55cc3d9a,Kobieta,19,2021-09-06_18h48.41.366,rantool2,2021.1.4,Win32,59.57700328,6135e006383e6ea6c3d06a28,61364630d896bf30dc896a02,"[""comma"",""period""]",0,"[0.2529999999999859,0.8672000000477169]",40,0,40,0,1
,,,,,,,612f50c95ff7dace55cc3d9a,,,,,,612f50c95ff7dace55cc3d9a,Kobieta,19,2021-09-06_18h48.41.366,rantool2,2021.1.4,Win32,59.57700328,6135e006383e6ea6c3d06a28,61364630d896bf30dc896a02,"[""comma""]",0,[0.4984999999999786],41,0,41,0,1
,,,,,,,612f50c95ff7dace55cc3d9a,,,,,,612f50c95ff7dace55cc3d9a,Kobieta,19,2021-09-06_18h48.41.366,rantool2,2021.1.4,Win32,59.57700328,6135e006383e6ea6c3d06a28,61364630d896bf30dc896a02,"[""period""]",0,[0.3008000000119182],42,0,42,0,1
,,,,,,,612f50c95ff7dace55cc3d9a,,,,,,612f50c95ff7dace55cc3d9a,Kobieta,19,2021-09-06_18h48.41.366,rantool2,2021.1.4,Win32,59.57700328,6135e006383e6ea6c3d06a28,61364630d896bf30dc896a02,"[""period""]",0,[0.2845999999642004],43,0,43,0,1
,,,,,,,612f50c95ff7dace55cc3d9a,,,,,,612f50c95ff7dace55cc3d9a,Kobieta,19,2021-09-06_18h48.41.366,rantool2,2021.1.4,Win32,59.57700328,6135e006383e6ea6c3d06a28,61364630d896bf30dc896a02,"[""comma""]",0,[0.2815999999642713],44,0,44,0,1
,,,,,,,612f50c95ff7dace55cc3d9a,,,,,,612f50c95ff7dace55cc3d9a,Kobieta,19,2021-09-06_18h48.41.366,rantool2,2021.1.4,Win32,59.57700328,6135e006383e6ea6c3d06a28,61364630d896bf30dc896a02,"[""period"",""comma""]",0,"[0.24319999998812136,1.6525000000000318]",45,0,45,0,1
,,,,,,,612f50c95ff7dace55cc3d9a,,,,,,612f50c95ff7dace55cc3d9a,Kobieta,19,2021-09-06_18h48.41.366,rantool2,2021.1.4,Win32,59.57700328,6135e006383e6ea6c3d06a28,61364630d896bf30dc896a02,0,0,,46,0,46,0,1
,,,,,,,612f50c95ff7dace55cc3d9a,,,,,,612f50c95ff7dace55cc3d9a,Kobieta,19,2021-09-06_18h48.41.366,rantool2,2021.1.4,Win32,59.57700328,6135e006383e6ea6c3d06a28,61364630d896bf30dc896a02,"[""period""]",0,[0.23200000000002774],47,0,47,0,1
,,,,,,,612f50c95ff7dace55cc3d9a,,,,,,612f50c95ff7dace55cc3d9a,Kobieta,19,2021-09-06_18h48.41.366,rantool2,2021.1.4,Win32,59.57700328,6135e006383e6ea6c3d06a28,61364630d896bf30dc896a02,"[""comma""]",0,[0.06989999997614404],48,0,48,0,1
,,,,,,,612f50c95ff7dace55cc3d9a,,,,,,612f50c95ff7dace55cc3d9a,Kobieta,19,2021-09-06_18h48.41.366,rantool2,2021.1.4,Win32,59.57700328,6135e006383e6ea6c3d06a28,61364630d896bf30dc896a02,"[""period""]",0,[0.24410000002382048],49,0,49,0,1
,,,,,,,612f50c95ff7dace55cc3d9a,,,,,,612f50c95ff7dace55cc3d9a,Kobieta,19,2021-09-06_18h48.41.366,rantool2,2021.1.4,Win32,59.57700328,6135e006383e6ea6c3d06a28,61364630d896bf30dc896a02,"[""period""]",0,[0.2355999999642222],50,0,50,0,1
,,,,,,,612f50c95ff7dace55cc3d9a,,,,,,612f50c95ff7dace55cc3d9a,Kobieta,19,2021-09-06_18h48.41.366,rantool2,2021.1.4,Win32,59.57700328,6135e006383e6ea6c3d06a28,61364630d896bf30dc896a02,"[""period""]",0,[0.11490000003578871],51,0,51,0,1
,,,,,,,612f50c95ff7dace55cc3d9a,,,,,,612f50c95ff7dace55cc3d9a,Kobieta,19,2021-09-06_18h48.41.366,rantool2,2021.1.4,Win32,59.57700328,6135e006383e6ea6c3d06a28,61364630d896bf30dc896a02,"[""comma""]",0,[0.21509999996419538],52,0,52,0,1
,,,,,,,612f50c95ff7dace55cc3d9a,,,,,,612f50c95ff7dace55cc3d9a,Kobieta,19,2021-09-06_18h48.41.366,rantool2,2021.1.4,Win32,59.57700328,6135e006383e6ea6c3d06a28,61364630d896bf30dc896a02,"[""comma""]",0,[0.2588999999761654],53,0,53,0,1
,,,,,,,612f50c95ff7dace55cc3d9a,,,,,,612f50c95ff7dace55cc3d9a,Kobieta,19,2021-09-06_18h48.41.366,rantool2,2021.1.4,Win32,59.57700328,6135e006383e6ea6c3d06a28,61364630d896bf30dc896a02,"[""comma""]",0,[0.27099999999995816],54,0,54,0,1
,,,,,,,612f50c95ff7dace55cc3d9a,,,,,,612f50c95ff7dace55cc3d9a,Kobieta,19,2021-09-06_18h48.41.366,rantool2,2021.1.4,Win32,59.57700328,6135e006383e6ea6c3d06a28,61364630d896bf30dc896a02,"[""period""]",0,[0.27079999995231674],55,0,55,0,1
,,,,,,,612f50c95ff7dace55cc3d9a,,,,,,612f50c95ff7dace55cc3d9a,Kobieta,19,2021-09-06_18h48.41.366,rantool2,2021.1.4,Win32,59.57700328,6135e006383e6ea6c3d06a28,61364630d896bf30dc896a02,"[""period""]",0,[0.331699999988075],56,0,56,0,1
,,,,,,,612f50c95ff7dace55cc3d9a,,,,,,612f50c95ff7dace55cc3d9a,Kobieta,19,2021-09-06_18h48.41.366,rantool2,2021.1.4,Win32,59.57700328,6135e006383e6ea6c3d06a28,61364630d896bf30dc896a02,"[""comma""]",0,[0.2153000000119505],57,0,57,0,1
,,,,,,,612f50c95ff7dace55cc3d9a,,,,,,612f50c95ff7dace55cc3d9a,Kobieta,19,2021-09-06_18h48.41.366,rantool2,2021.1.4,Win32,59.57700328,6135e006383e6ea6c3d06a28,61364630d896bf30dc896a02,"[""period""]",0,[0.2680000000000291],58,0,58,0,1
,,,,,,,612f50c95ff7dace55cc3d9a,,,,,,612f50c95ff7dace55cc3d9a,Kobieta,19,2021-09-06_18h48.41.366,rantool2,2021.1.4,Win32,59.57700328,6135e006383e6ea6c3d06a28,61364630d896bf30dc896a02,"[""comma""]",0,[0.42719999998809044],59,0,59,0,1
,,,,,,,612f50c95ff7dace55cc3d9a,,,,,,612f50c95ff7dace55cc3d9a,Kobieta,19,2021-09-06_18h48.41.366,rantool2,2021.1.4,Win32,59.57700328,6135e006383e6ea6c3d06a28,61364630d896bf30dc896a02,"[""period"",""comma""]",0,"[0.2009000000357446,1.7556999999880532]",60,0,60,0,1
,,,,,,,612f50c95ff7dace55cc3d9a,,,,,,612f50c95ff7dace55cc3d9a,Kobieta,19,2021-09-06_18h48.41.366,rantool2,2021.1.4,Win32,59.57700328,6135e006383e6ea6c3d06a28,61364630d896bf30dc896a02,"[""period""]",0,[0.9648000000119055],61,0,61,0,1
,,,,,,,612f50c95ff7dace55cc3d9a,,,,,,612f50c95ff7dace55cc3d9a,Kobieta,19,2021-09-06_18h48.41.366,rantool2,2021.1.4,Win32,59.57700328,6135e006383e6ea6c3d06a28,61364630d896bf30dc896a02,"[""comma""]",0,[0.4564000000357282],62,0,62,0,1
,,,,,,,612f50c95ff7dace55cc3d9a,,,,,,612f50c95ff7dace55cc3d9a,Kobieta,19,2021-09-06_18h48.41.366,rantool2,2021.1.4,Win32,59.57700328,6135e006383e6ea6c3d06a28,61364630d896bf30dc896a02,"[""period""]",0,[0.39839999997610676],63,0,63,0,1
,,,,,,,612f50c95ff7dace55cc3d9a,,,,,,612f50c95ff7dace55cc3d9a,Kobieta,19,2021-09-06_18h48.41.366,rantool2,2021.1.4,Win32,59.57700328,6135e006383e6ea6c3d06a28,61364630d896bf30dc896a02,"[""comma""]",0,[0.5824000000357614],64,0,64,0,1
,,,,,,,612f50c95ff7dace55cc3d9a,,,,,,612f50c95ff7dace55cc3d9a,Kobieta,19,2021-09-06_18h48.41.366,rantool2,2021.1.4,Win32,59.57700328,6135e006383e6ea6c3d06a28,61364630d896bf30dc896a02,"[""comma"",""period""]",0,"[0.25219999998807907,1.69760000002384]",65,0,65,0,1
,,,,,,,612f50c95ff7dace55cc3d9a,,,,,,612f50c95ff7dace55cc3d9a,Kobieta,19,2021-09-06_18h48.41.366,rantool2,2021.1.4,Win32,59.57700328,6135e006383e6ea6c3d06a28,61364630d896bf30dc896a02,0,0,,66,0,66,0,1
,,,,,,,612f50c95ff7dace55cc3d9a,,,,,,612f50c95ff7dace55cc3d9a,Kobieta,19,2021-09-06_18h48.41.366,rantool2,2021.1.4,Win32,59.57700328,6135e006383e6ea6c3d06a28,61364630d896bf30dc896a02,"[""period""]",0,[0.31680000001193775],67,0,67,0,1
,,,,,,,612f50c95ff7dace55cc3d9a,,,,,,612f50c95ff7dace55cc3d9a,Kobieta,19,2021-09-06_18h48.41.366,rantool2,2021.1.4,Win32,59.57700328,6135e006383e6ea6c3d06a28,61364630d896bf30dc896a02,"[""comma""]",0,[0.5216999999880727],68,0,68,0,1
,,,,,,,612f50c95ff7dace55cc3d9a,,,,,,612f50c95ff7dace55cc3d9a,Kobieta,19,2021-09-06_18h48.41.366,rantool2,2021.1.4,Win32,59.57700328,6135e006383e6ea6c3d06a28,61364630d896bf30dc896a02,"[""period""]",0,[1.4386999999880459],69,0,69,0,1
,,,,,,,612f50c95ff7dace55cc3d9a,,,,,,612f50c95ff7dace55cc3d9a,Kobieta,19,2021-09-06_18h48.41.366,rantool2,2021.1.4,Win32,59.57700328,6135e006383e6ea6c3d06a28,61364630d896bf30dc896a02,0,0,,70,0,70,0,1
,,,,,,,612f50c95ff7dace55cc3d9a,,,,,,612f50c95ff7dace55cc3d9a,Kobieta,19,2021-09-06_18h48.41.366,rantool2,2021.1.4,Win32,59.57700328,6135e006383e6ea6c3d06a28,61364630d896bf30dc896a02,"[""period""]",0,[0.2366000000238273],71,0,71,0,1
,,,,,,,612f50c95ff7dace55cc3d9a,,,,,,612f50c95ff7dace55cc3d9a,Kobieta,19,2021-09-06_18h48.41.366,rantool2,2021.1.4,Win32,59.57700328,6135e006383e6ea6c3d06a28,61364630d896bf30dc896a02,"[""comma""]",0,[0.33809999996424267],72,0,72,0,1
,,,,,,,612f50c95ff7dace55cc3d9a,,,,,,612f50c95ff7dace55cc3d9a,Kobieta,19,2021-09-06_18h48.41.366,rantool2,2021.1.4,Win32,59.57700328,6135e006383e6ea6c3d06a28,61364630d896bf30dc896a02,"[""comma""]",0,[0.24180000001194912],73,0,73,0,1
,,,,,,,612f50c95ff7dace55cc3d9a,,,,,,612f50c95ff7dace55cc3d9a,Kobieta,19,2021-09-06_18h48.41.366,rantool2,2021.1.4,Win32,59.57700328,6135e006383e6ea6c3d06a28,61364630d896bf30dc896a02,"[""period""]",0,[0.2508000000119637],74,0,74,0,1
,,,,,,,612f50c95ff7dace55cc3d9a,,,,,,612f50c95ff7dace55cc3d9a,Kobieta,19,2021-09-06_18h48.41.366,rantool2,2021.1.4,Win32,59.57700328,6135e006383e6ea6c3d06a28,61364630d896bf30dc896a02,"[""comma""]",0,[0.3020000000000209],75,0,75,0,1
,,,,,,,612f50c95ff7dace55cc3d9a,,,,,,612f50c95ff7dace55cc3d9a,Kobieta,19,2021-09-06_18h48.41.366,rantool2,2021.1.4,Win32,59.57700328,6135e006383e6ea6c3d06a28,61364630d896bf30dc896a02,"[""period""]",0,[0.3158999999761818],76,0,76,0,1
,,,,,,,612f50c95ff7dace55cc3d9a,,,,,,612f50c95ff7dace55cc3d9a,Kobieta,19,2021-09-06_18h48.41.366,rantool2,2021.1.4,Win32,59.57700328,6135e006383e6ea6c3d06a28,61364630d896bf30dc896a02,"[""comma""]",0,[0.3258999999761727],77,0,77,0,1
,,,,,,,612f50c95ff7dace55cc3d9a,,,,,,612f50c95ff7dace55cc3d9a,Kobieta,19,2021-09-06_18h48.41.366,rantool2,2021.1.4,Win32,59.57700328,6135e006383e6ea6c3d06a28,61364630d896bf30dc896a02,"[""comma""]",0,[0.2259999999999991],78,0,78,0,1
,,,,,,,612f50c95ff7dace55cc3d9a,,,,,,612f50c95ff7dace55cc3d9a,Kobieta,19,2021-09-06_18h48.41.366,rantool2,2021.1.4,Win32,59.57700328,6135e006383e6ea6c3d06a28,61364630d896bf30dc896a02,"[""period""]",0,[0.25459999996422766],79,0,79,0,1
,,,,,,,612f50c95ff7dace55cc3d9a,,,,,,612f50c95ff7dace55cc3d9a,Kobieta,19,2021-09-06_18h48.41.366,rantool2,2021.1.4,Win32,59.57700328,6135e006383e6ea6c3d06a28,61364630d896bf30dc896a02,"[""comma"",""period""]",0,"[0.18190000003573914,1.924800000011885]",80,0,80,0,1
,,,,,,,612f50c95ff7dace55cc3d9a,,,,,,612f50c95ff7dace55cc3d9a,Kobieta,19,2021-09-06_18h48.41.366,rantool2,2021.1.4,Win32,59.57700328,6135e006383e6ea6c3d06a28,61364630d896bf30dc896a02,"[""comma""]",0,[1.265699999988101],81,0,81,0,1
,,,,,,,612f50c95ff7dace55cc3d9a,,,,,,612f50c95ff7dace55cc3d9a,Kobieta,19,2021-09-06_18h48.41.366,rantool2,2021.1.4,Win32,59.57700328,6135e006383e6ea6c3d06a28,61364630d896bf30dc896a02,"[""period""]",0,[1.7150000000000318],82,0,82,0,1
,,,,,,,612f50c95ff7dace55cc3d9a,,,,,,612f50c95ff7dace55cc3d9a,Kobieta,19,2021-09-06_18h48.41.366,rantool2,2021.1.4,Win32,59.57700328,6135e006383e6ea6c3d06a28,61364630d896bf30dc896a02,0,0,,83,0,83,0,1
,,,,,,,612f50c95ff7dace55cc3d9a,,,,,,612f50c95ff7dace55cc3d9a,Kobieta,19,2021-09-06_18h48.41.366,rantool2,2021.1.4,Win32,59.57700328,6135e006383e6ea6c3d06a28,61364630d896bf30dc896a02,"[""period"",""period""]",0,"[0.22340000003578098,0.7756999999880918]",84,0,84,0,1
,,,,,,,612f50c95ff7dace55cc3d9a,,,,,,612f50c95ff7dace55cc3d9a,Kobieta,19,2021-09-06_18h48.41.366,rantool2,2021.1.4,Win32,59.57700328,6135e006383e6ea6c3d06a28,61364630d896bf30dc896a02,"[""comma""]",0,[0.3650999999642295],85,0,85,0,1
,,,,,,,612f50c95ff7dace55cc3d9a,,,,,,612f50c95ff7dace55cc3d9a,Kobieta,19,2021-09-06_18h48.41.366,rantool2,2021.1.4,Win32,59.57700328,6135e006383e6ea6c3d06a28,61364630d896bf30dc896a02,"[""period""]",0,[0.3195999999642254],86,0,86,0,1
,,,,,,,612f50c95ff7dace55cc3d9a,,,,,,612f50c95ff7dace55cc3d9a,Kobieta,19,2021-09-06_18h48.41.366,rantool2,2021.1.4,Win32,59.57700328,6135e006383e6ea6c3d06a28,61364630d896bf30dc896a02,"[""comma""]",0,[0.214999999999975],87,0,87,0,1
,,,,,,,612f50c95ff7dace55cc3d9a,,,,,,612f50c95ff7dace55cc3d9a,Kobieta,19,2021-09-06_18h48.41.366,rantool2,2021.1.4,Win32,59.57700328,6135e006383e6ea6c3d06a28,61364630d896bf30dc896a02,"[""comma""]",0,[0.22749999999996362],88,0,88,0,1
,,,,,,,612f50c95ff7dace55cc3d9a,,,,,,612f50c95ff7dace55cc3d9a,Kobieta,19,2021-09-06_18h48.41.366,rantool2,2021.1.4,Win32,59.57700328,6135e006383e6ea6c3d06a28,61364630d896bf30dc896a02,"[""period""]",0,[0.21710000002383367],89,0,89,0,1
,,,,,,,612f50c95ff7dace55cc3d9a,,,,,,612f50c95ff7dace55cc3d9a,Kobieta,19,2021-09-06_18h48.41.366,rantool2,2021.1.4,Win32,59.57700328,6135e006383e6ea6c3d06a28,61364630d896bf30dc896a02,"[""period""]",0,[0.3401999999880445],90,0,90,0,1
,,,,,,,612f50c95ff7dace55cc3d9a,,,,,,612f50c95ff7dace55cc3d9a,Kobieta,19,2021-09-06_18h48.41.366,rantool2,2021.1.4,Win32,59.57700328,6135e006383e6ea6c3d06a28,61364630d896bf30dc896a02,"[""comma""]",0,[0.21050000000002456],91,0,91,0,1
,,,,,,,612f50c95ff7dace55cc3d9a,,,,,,612f50c95ff7dace55cc3d9a,Kobieta,19,2021-09-06_18h48.41.366,rantool2,2021.1.4,Win32,59.57700328,6135e006383e6ea6c3d06a28,61364630d896bf30dc896a02,"[""comma""]",0,[0.3345000000000482],92,0,92,0,1
,,,,,,,612f50c95ff7dace55cc3d9a,,,,,,612f50c95ff7dace55cc3d9a,Kobieta,19,2021-09-06_18h48.41.366,rantool2,2021.1.4,Win32,59.57700328,6135e006383e6ea6c3d06a28,61364630d896bf30dc896a02,"[""comma""]",0,[0.23240000003579553],93,0,93,0,1
,,,,,,,612f50c95ff7dace55cc3d9a,,,,,,612f50c95ff7dace55cc3d9a,Kobieta,19,2021-09-06_18h48.41.366,rantool2,2021.1.4,Win32,59.57700328,6135e006383e6ea6c3d06a28,61364630d896bf30dc896a02,"[""period"",""comma""]",0,"[0.2062999999523072,1.8815999999642372]",94,0,94,0,1
,,,,,,,612f50c95ff7dace55cc3d9a,,,,,,612f50c95ff7dace55cc3d9a,Kobieta,19,2021-09-06_18h48.41.366,rantool2,2021.1.4,Win32,59.57700328,6135e006383e6ea6c3d06a28,61364630d896bf30dc896a02,0,0,,95,0,95,0,1
,,,,,,,612f50c95ff7dace55cc3d9a,,,,,,612f50c95ff7dace55cc3d9a,Kobieta,19,2021-09-06_18h48.41.366,rantool2,2021.1.4,Win32,59.57700328,6135e006383e6ea6c3d06a28,61364630d896bf30dc896a02,"[""comma""]",0,[0.25039999997613904],96,0,96,0,1
,,,,,,,612f50c95ff7dace55cc3d9a,,,,,,612f50c95ff7dace55cc3d9a,Kobieta,19,2021-09-06_18h48.41.366,rantool2,2021.1.4,Win32,59.57700328,6135e006383e6ea6c3d06a28,61364630d896bf30dc896a02,"[""comma"",""period""]",0,"[0.3482999999523031,0.7248999999761168]",97,0,97,0,1
,,,,,,,612f50c95ff7dace55cc3d9a,,,,,,612f50c95ff7dace55cc3d9a,Kobieta,19,2021-09-06_18h48.41.366,rantool2,2021.1.4,Win32,59.57700328,6135e006383e6ea6c3d06a28,61364630d896bf30dc896a02,"[""period""]",0,[0.24919999998809317],98,0,98,0,1
,,,,,,,612f50c95ff7dace55cc3d9a,,,,,,612f50c95ff7dace55cc3d9a,Kobieta,19,2021-09-06_18h48.41.366,rantool2,2021.1.4,Win32,59.57700328,6135e006383e6ea6c3d06a28,61364630d896bf30dc896a02,"[""comma""]",0,[0.21589999997615905],99,0,99,0,1
,,,,,,,612f50c95ff7dace55cc3d9a,,,,,,612f50c95ff7dace55cc3d9a,Kobieta,19,2021-09-06_18h48.41.366,rantool2,2021.1.4,Win32,59.57700328,6135e006383e6ea6c3d06a28,61364630d896bf30dc896a02,"[""period""]",0,[0.2837000000477019],100,0,100,0,1
,,,,,,,612f50c95ff7dace55cc3d9a,,,,,,612f50c95ff7dace55cc3d9a,Kobieta,19,2021-09-06_18h48.41.366,rantool2,2021.1.4,Win32,59.57700328,6135e006383e6ea6c3d06a28,61364630d896bf30dc896a02,"[""comma""]",0,[0.3331999999880395],101,0,101,0,1
,,,,,,,612f50c95ff7dace55cc3d9a,,,,,,612f50c95ff7dace55cc3d9a,Kobieta,19,2021-09-06_18h48.41.366,rantool2,2021.1.4,Win32,59.57700328,6135e006383e6ea6c3d06a28,61364630d896bf30dc896a02,"[""period"",""period""]",0,"[0.25430000001193775,0.785000000000025]",102,0,102,0,1
,,,,,,,612f50c95ff7dace55cc3d9a,,,,,,612f50c95ff7dace55cc3d9a,Kobieta,19,2021-09-06_18h48.41.366,rantool2,2021.1.4,Win32,59.57700328,6135e006383e6ea6c3d06a28,61364630d896bf30dc896a02,"[""comma""]",0,[0.4593999999761422],103,0,103,0,1
,,,,,,,612f50c95ff7dace55cc3d9a,,,,,,612f50c95ff7dace55cc3d9a,Kobieta,19,2021-09-06_18h48.41.366,rantool2,2021.1.4,Win32,59.57700328,6135e006383e6ea6c3d06a28,61364630d896bf30dc896a02,"[""period""]",0,[0.2051999999880536],104,0,104,0,1
,,,,,,,612f50c95ff7dace55cc3d9a,,,,,,612f50c95ff7dace55cc3d9a,Kobieta,19,2021-09-06_18h48.41.366,rantool2,2021.1.4,Win32,59.57700328,6135e006383e6ea6c3d06a28,61364630d896bf30dc896a02,"[""comma"",""comma""]",0,"[0.1604000000357928,1.947999999999979]",105,0,105,0,1
,,,,,,,612f50c95ff7dace55cc3d9a,,,,,,612f50c95ff7dace55cc3d9a,Kobieta,19,2021-09-06_18h48.41.366,rantool2,2021.1.4,Win32,59.57700328,6135e006383e6ea6c3d06a28,61364630d896bf30dc896a02,0,0,,106,0,106,0,1
,,,,,,,612f50c95ff7dace55cc3d9a,,,,,,612f50c95ff7dace55cc3d9a,Kobieta,19,2021-09-06_18h48.41.366,rantool2,2021.1.4,Win32,59.57700328,6135e006383e6ea6c3d06a28,61364630d896bf30dc896a02,"[""comma""]",0,[0.2074999999999818],107,0,107,0,1
,,,,,,,612f50c95ff7dace55cc3d9a,,,,,,612f50c95ff7dace55cc3d9a,Kobieta,19,2021-09-06_18h48.41.366,rantool2,2021.1.4,Win32,59.57700328,6135e006383e6ea6c3d06a28,61364630d896bf30dc896a02,"[""period""]",0,[0.28150000000005093],108,0,108,0,1
,,,,,,,612f50c95ff7dace55cc3d9a,,,,,,612f50c95ff7dace55cc3d9a,Kobieta,19,2021-09-06_18h48.41.366,rantool2,2021.1.4,Win32,59.57700328,6135e006383e6ea6c3d06a28,61364630d896bf30dc896a02,"[""period""]",0,[0.5675999999642727],109,0,109,0,1
,,,,,,,612f50c95ff7dace55cc3d9a,,,,,,612f50c95ff7dace55cc3d9a,Kobieta,19,2021-09-06_18h48.41.366,rantool2,2021.1.4,Win32,59.57700328,6135e006383e6ea6c3d06a28,61364630d896bf30dc896a02,"[""period""]",0,[0.4986000000238846],110,0,110,0,1
,,,,,,,612f50c95ff7dace55cc3d9a,,,,,,612f50c95ff7dace55cc3d9a,Kobieta,19,2021-09-06_18h48.41.366,rantool2,2021.1.4,Win32,59.57700328,6135e006383e6ea6c3d06a28,61364630d896bf30dc896a02,"[""comma""]",0,[0.28180000001191274],111,0,111,0,1
,,,,,,,612f50c95ff7dace55cc3d9a,,,,,,612f50c95ff7dace55cc3d9a,Kobieta,19,2021-09-06_18h48.41.366,rantool2,2021.1.4,Win32,59.57700328,6135e006383e6ea6c3d06a28,61364630d896bf30dc896a02,"[""period""]",0,[0.33150000000000546],112,0,112,0,1
,,,,,,,612f50c95ff7dace55cc3d9a,,,,,,612f50c95ff7dace55cc3d9a,Kobieta,19,2021-09-06_18h48.41.366,rantool2,2021.1.4,Win32,59.57700328,6135e006383e6ea6c3d06a28,61364630d896bf30dc896a02,"[""comma""]",0,[0.2931000000238555],113,0,113,0,1
,,,,,,,612f50c95ff7dace55cc3d9a,,,,,,612f50c95ff7dace55cc3d9a,Kobieta,19,2021-09-06_18h48.41.366,rantool2,2021.1.4,Win32,59.57700328,6135e006383e6ea6c3d06a28,61364630d896bf30dc896a02,"[""comma""]",0,[0.21669999998806588],114,0,114,0,1
,,,,,,,612f50c95ff7dace55cc3d9a,,,,,,612f50c95ff7dace55cc3d9a,Kobieta,19,2021-09-06_18h48.41.366,rantool2,2021.1.4,Win32,59.57700328,6135e006383e6ea6c3d06a28,61364630d896bf30dc896a02,"[""period""]",0,[0.23399999999998045],115,0,115,0,1
,,,,,,,612f50c95ff7dace55cc3d9a,,,,,,612f50c95ff7dace55cc3d9a,Kobieta,19,2021-09-06_18h48.41.366,rantool2,2021.1.4,Win32,59.57700328,6135e006383e6ea6c3d06a28,61364630d896bf30dc896a02,"[""comma""]",0,[0.20589999997616815],116,0,116,0,1
,,,,,,,612f50c95ff7dace55cc3d9a,,,,,,612f50c95ff7dace55cc3d9a,Kobieta,19,2021-09-06_18h48.41.366,rantool2,2021.1.4,Win32,59.57700328,6135e006383e6ea6c3d06a28,61364630d896bf30dc896a02,"[""period""]",0,[0.301200000047686],117,0,117,0,1
,,,,,,,612f50c95ff7dace55cc3d9a,,,,,,612f50c95ff7dace55cc3d9a,Kobieta,19,2021-09-06_18h48.41.366,rantool2,2021.1.4,Win32,59.57700328,6135e006383e6ea6c3d06a28,61364630d896bf30dc896a02,"[""period""]",0,[0.25],118,0,118,0,1
,,,,,,,612f50c95ff7dace55cc3d9a,,,,,,612f50c95ff7dace55cc3d9a,Kobieta,19,2021-09-06_18h48.41.366,rantool2,2021.1.4,Win32,59.57700328,6135e006383e6ea6c3d06a28,61364630d896bf30dc896a02,"[""comma""]",0,[0.23880000001190638],119,0,119,0,1
