key_resp_7.keys,key_resp_7.rt,trials_2.thisRepN,trials_2.thisTrialN,trials_2.thisN,trials_2.thisIndex,trials_2.ran,id,series_0,series_1,acss_0,acss_1,comparison,id*,Płeć*,Wiek*,date,expName,psychopyVersion,OS,frameRate,STUDY_ID,SESSION_ID,key_resp_5.keys,key_resp_5.corr,key_resp_5.rt,trials.thisRepN,trials.thisTrialN,trials.thisN,trials.thisIndex,trials.ran
f,3.7158,0,0,0,37,1,5f3976475344654ec13820aa,ROORORO,ROORORR,20.42602454,21.57657071,series_1,5f3976475344654ec13820aa,Mężczyzna,22,2021-09-06_19h11.16.970,rantool2,2021.1.4,Win32,59.16809656,6135e006383e6ea6c3d06a28,61364b96505dfd98d5068558,,,,,,,,
f,2.8387,0,1,1,63,1,5f3976475344654ec13820aa,RRRRRRO,RRRRRRR,21.35278725,19.62521613,series_0,5f3976475344654ec13820aa,Mężczyzna,22,2021-09-06_19h11.16.970,rantool2,2021.1.4,Win32,59.16809656,6135e006383e6ea6c3d06a28,61364b96505dfd98d5068558,,,,,,,,
j,2.9955,0,2,2,36,1,5f3976475344654ec13820aa,ROOROOO,ROOROOR,21.07991943,20.9984461,series_0,5f3976475344654ec13820aa,Mężczyzna,22,2021-09-06_19h11.16.970,rantool2,2021.1.4,Win32,59.16809656,6135e006383e6ea6c3d06a28,61364b96505dfd98d5068558,,,,,,,,
f,4.0041,0,3,3,57,1,5f3976475344654ec13820aa,RRROORO,RRROORR,21.82425538,22.07102821,series_1,5f3976475344654ec13820aa,Mężczyzna,22,2021-09-06_19h11.16.970,rantool2,2021.1.4,Win32,59.16809656,6135e006383e6ea6c3d06a28,61364b96505dfd98d5068558,,,,,,,,
f,1.9223,0,4,4,30,1,5f3976475344654ec13820aa,ORRRROO,ORRRROR,22.46748491,22.03072203,series_0,5f3976475344654ec13820aa,Mężczyzna,22,2021-09-06_19h11.16.970,rantool2,2021.1.4,Win32,59.16809656,6135e006383e6ea6c3d06a28,61364b96505dfd98d5068558,,,,,,,,
j,1.4416,0,5,5,59,1,5f3976475344654ec13820aa,RRRORRO,RRRORRR,21.56657303,20.89823192,series_0,5f3976475344654ec13820aa,Mężczyzna,22,2021-09-06_19h11.16.970,rantool2,2021.1.4,Win32,59.16809656,6135e006383e6ea6c3d06a28,61364b96505dfd98d5068558,,,,,,,,
j,1.8754,0,6,6,7,1,5f3976475344654ec13820aa,OOORRRO,OOORRRR,21.6194508,21.899017,series_1,5f3976475344654ec13820aa,Mężczyzna,22,2021-09-06_19h11.16.970,rantool2,2021.1.4,Win32,59.16809656,6135e006383e6ea6c3d06a28,61364b96505dfd98d5068558,,,,,,,,
f,1.5196,0,7,7,41,1,5f3976475344654ec13820aa,ROROORO,ROROORR,20.42602454,21.71443381,series_1,5f3976475344654ec13820aa,Mężczyzna,22,2021-09-06_19h11.16.970,rantool2,2021.1.4,Win32,59.16809656,6135e006383e6ea6c3d06a28,61364b96505dfd98d5068558,,,,,,,,
j,1.1703,0,8,8,28,1,5f3976475344654ec13820aa,ORRROOO,ORRROOR,22.24142883,22.53364006,series_1,5f3976475344654ec13820aa,Mężczyzna,22,2021-09-06_19h11.16.970,rantool2,2021.1.4,Win32,59.16809656,6135e006383e6ea6c3d06a28,61364b96505dfd98d5068558,,,,,,,,
j,1.144,0,9,9,11,1,5f3976475344654ec13820aa,OORORRO,OORORRR,22.18365867,22.6797523,series_1,5f3976475344654ec13820aa,Mężczyzna,22,2021-09-06_19h11.16.970,rantool2,2021.1.4,Win32,59.16809656,6135e006383e6ea6c3d06a28,61364b96505dfd98d5068558,,,,,,,,
j,2.1882,0,10,10,20,1,5f3976475344654ec13820aa,OROROOO,OROROOR,21.31236711,21.90565814,series_1,5f3976475344654ec13820aa,Mężczyzna,22,2021-09-06_19h11.16.970,rantool2,2021.1.4,Win32,59.16809656,6135e006383e6ea6c3d06a28,61364b96505dfd98d5068558,,,,,,,,
f,1.2853,0,11,11,44,1,5f3976475344654ec13820aa,RORROOO,RORROOR,21.66733484,22.02566557,series_1,5f3976475344654ec13820aa,Mężczyzna,22,2021-09-06_19h11.16.970,rantool2,2021.1.4,Win32,59.16809656,6135e006383e6ea6c3d06a28,61364b96505dfd98d5068558,,,,,,,,
j,2.2402,0,12,12,32,1,5f3976475344654ec13820aa,ROOOOOO,ROOOOOR,19.92253567,21.27974287,series_1,5f3976475344654ec13820aa,Mężczyzna,22,2021-09-06_19h11.16.970,rantool2,2021.1.4,Win32,59.16809656,6135e006383e6ea6c3d06a28,61364b96505dfd98d5068558,,,,,,,,
j,1.2551,0,13,13,24,1,5f3976475344654ec13820aa,ORROOOO,ORROOOR,21.12383932,22.07102821,series_1,5f3976475344654ec13820aa,Mężczyzna,22,2021-09-06_19h11.16.970,rantool2,2021.1.4,Win32,59.16809656,6135e006383e6ea6c3d06a28,61364b96505dfd98d5068558,,,,,,,,
f,1.3152,0,14,14,4,1,5f3976475344654ec13820aa,OOOROOO,OOOROOR,19.91402015,21.21223021,series_1,5f3976475344654ec13820aa,Mężczyzna,22,2021-09-06_19h11.16.970,rantool2,2021.1.4,Win32,59.16809656,6135e006383e6ea6c3d06a28,61364b96505dfd98d5068558,,,,,,,,
j,0.8624,0,15,15,51,1,5f3976475344654ec13820aa,RROORRO,RROORRR,21.89852628,22.02786418,series_1,5f3976475344654ec13820aa,Mężczyzna,22,2021-09-06_19h11.16.970,rantool2,2021.1.4,Win32,59.16809656,6135e006383e6ea6c3d06a28,61364b96505dfd98d5068558,,,,,,,,
j,0.9346,0,16,16,5,1,5f3976475344654ec13820aa,OOORORO,OOORORR,20.87963819,21.9921709,series_1,5f3976475344654ec13820aa,Mężczyzna,22,2021-09-06_19h11.16.970,rantool2,2021.1.4,Win32,59.16809656,6135e006383e6ea6c3d06a28,61364b96505dfd98d5068558,,,,,,,,
j,0.8485,0,17,17,34,1,5f3976475344654ec13820aa,ROOOROO,ROOOROR,21.03750787,21.24781509,series_1,5f3976475344654ec13820aa,Mężczyzna,22,2021-09-06_19h11.16.970,rantool2,2021.1.4,Win32,59.16809656,6135e006383e6ea6c3d06a28,61364b96505dfd98d5068558,,,,,,,,
j,1.7393,0,18,18,47,1,5f3976475344654ec13820aa,RORRRRO,RORRRRR,21.81333602,21.02936224,series_0,5f3976475344654ec13820aa,Mężczyzna,22,2021-09-06_19h11.16.970,rantool2,2021.1.4,Win32,59.16809656,6135e006383e6ea6c3d06a28,61364b96505dfd98d5068558,,,,,,,,
f,0.8156,0,19,19,23,1,5f3976475344654ec13820aa,ORORRRO,ORORRRR,22.1285618,21.9921709,series_0,5f3976475344654ec13820aa,Mężczyzna,22,2021-09-06_19h11.16.970,rantool2,2021.1.4,Win32,59.16809656,6135e006383e6ea6c3d06a28,61364b96505dfd98d5068558,,,,,,,,
j,1.1318,0,20,20,8,1,5f3976475344654ec13820aa,OOROOOO,OOROOOR,19.91402015,20.89823192,series_1,5f3976475344654ec13820aa,Mężczyzna,22,2021-09-06_19h11.16.970,rantool2,2021.1.4,Win32,59.16809656,6135e006383e6ea6c3d06a28,61364b96505dfd98d5068558,,,,,,,,
f,0.8092,0,21,21,26,1,5f3976475344654ec13820aa,ORROROO,ORROROR,22.02732763,21.71443381,series_0,5f3976475344654ec13820aa,Mężczyzna,22,2021-09-06_19h11.16.970,rantool2,2021.1.4,Win32,59.16809656,6135e006383e6ea6c3d06a28,61364b96505dfd98d5068558,,,,,,,,
j,0.9026,0,22,22,13,1,5f3976475344654ec13820aa,OORRORO,OORRORR,21.66733484,22.11181017,series_1,5f3976475344654ec13820aa,Mężczyzna,22,2021-09-06_19h11.16.970,rantool2,2021.1.4,Win32,59.16809656,6135e006383e6ea6c3d06a28,61364b96505dfd98d5068558,,,,,,,,
j,0.7047,0,23,23,29,1,5f3976475344654ec13820aa,ORRRORO,ORRRORR,22.00300695,22.12173012,series_1,5f3976475344654ec13820aa,Mężczyzna,22,2021-09-06_19h11.16.970,rantool2,2021.1.4,Win32,59.16809656,6135e006383e6ea6c3d06a28,61364b96505dfd98d5068558,,,,,,,,
f,1.0157,0,24,24,58,1,5f3976475344654ec13820aa,RRROROO,RRROROR,22.1285618,21.37121559,series_0,5f3976475344654ec13820aa,Mężczyzna,22,2021-09-06_19h11.16.970,rantool2,2021.1.4,Win32,59.16809656,6135e006383e6ea6c3d06a28,61364b96505dfd98d5068558,,,,,,,,
j,1.0005,0,25,25,33,1,5f3976475344654ec13820aa,ROOOORO,ROOOORR,20.83779602,22.03072203,series_1,5f3976475344654ec13820aa,Mężczyzna,22,2021-09-06_19h11.16.970,rantool2,2021.1.4,Win32,59.16809656,6135e006383e6ea6c3d06a28,61364b96505dfd98d5068558,,,,,,,,
j,0.8103,0,26,26,62,1,5f3976475344654ec13820aa,RRRRROO,RRRRROR,22.16413392,21.27974287,series_0,5f3976475344654ec13820aa,Mężczyzna,22,2021-09-06_19h11.16.970,rantool2,2021.1.4,Win32,59.16809656,6135e006383e6ea6c3d06a28,61364b96505dfd98d5068558,,,,,,,,
j,1.0253,0,27,27,50,1,5f3976475344654ec13820aa,RROOROO,RROOROR,21.73568164,22.02566557,series_1,5f3976475344654ec13820aa,Mężczyzna,22,2021-09-06_19h11.16.970,rantool2,2021.1.4,Win32,59.16809656,6135e006383e6ea6c3d06a28,61364b96505dfd98d5068558,,,,,,,,
f,1.9268,0,28,28,9,1,5f3976475344654ec13820aa,OOROORO,OOROORR,21.07991943,22.2428857,series_1,5f3976475344654ec13820aa,Mężczyzna,22,2021-09-06_19h11.16.970,rantool2,2021.1.4,Win32,59.16809656,6135e006383e6ea6c3d06a28,61364b96505dfd98d5068558,,,,,,,,
f,0.9914,0,29,29,52,1,5f3976475344654ec13820aa,RROROOO,RROROOR,22.18365867,22.11097995,series_0,5f3976475344654ec13820aa,Mężczyzna,22,2021-09-06_19h11.16.970,rantool2,2021.1.4,Win32,59.16809656,6135e006383e6ea6c3d06a28,61364b96505dfd98d5068558,,,,,,,,
j,1.0106,0,30,30,14,1,5f3976475344654ec13820aa,OORRROO,OORRROR,22.24142883,22.16977179,series_0,5f3976475344654ec13820aa,Mężczyzna,22,2021-09-06_19h11.16.970,rantool2,2021.1.4,Win32,59.16809656,6135e006383e6ea6c3d06a28,61364b96505dfd98d5068558,,,,,,,,
f,0.9887,0,31,31,25,1,5f3976475344654ec13820aa,ORROORO,ORROORR,21.79500819,22.61624387,series_1,5f3976475344654ec13820aa,Mężczyzna,22,2021-09-06_19h11.16.970,rantool2,2021.1.4,Win32,59.16809656,6135e006383e6ea6c3d06a28,61364b96505dfd98d5068558,,,,,,,,
j,1.0293,0,32,32,3,1,5f3976475344654ec13820aa,OOOORRO,OOOORRR,20.90986523,21.74922619,series_1,5f3976475344654ec13820aa,Mężczyzna,22,2021-09-06_19h11.16.970,rantool2,2021.1.4,Win32,59.16809656,6135e006383e6ea6c3d06a28,61364b96505dfd98d5068558,,,,,,,,
j,1.376,0,33,33,21,1,5f3976475344654ec13820aa,ORORORO,ORORORR,20.39515459,22.06781359,series_1,5f3976475344654ec13820aa,Mężczyzna,22,2021-09-06_19h11.16.970,rantool2,2021.1.4,Win32,59.16809656,6135e006383e6ea6c3d06a28,61364b96505dfd98d5068558,,,,,,,,
j,1.0827,0,34,34,31,1,5f3976475344654ec13820aa,ORRRRRO,ORRRRRR,22.16413392,20.74050628,series_0,5f3976475344654ec13820aa,Mężczyzna,22,2021-09-06_19h11.16.970,rantool2,2021.1.4,Win32,59.16809656,6135e006383e6ea6c3d06a28,61364b96505dfd98d5068558,,,,,,,,
j,1.0785,0,35,35,19,1,5f3976475344654ec13820aa,OROORRO,OROORRR,21.73568164,22.11181017,series_1,5f3976475344654ec13820aa,Mężczyzna,22,2021-09-06_19h11.16.970,rantool2,2021.1.4,Win32,59.16809656,6135e006383e6ea6c3d06a28,61364b96505dfd98d5068558,,,,,,,,
j,0.9253,0,36,36,6,1,5f3976475344654ec13820aa,OOORROO,OOORROR,21.12383932,21.38562617,series_1,5f3976475344654ec13820aa,Mężczyzna,22,2021-09-06_19h11.16.970,rantool2,2021.1.4,Win32,59.16809656,6135e006383e6ea6c3d06a28,61364b96505dfd98d5068558,,,,,,,,
f,1.3822,0,37,37,38,1,5f3976475344654ec13820aa,ROORROO,ROORROR,21.79500819,21.36812781,series_0,5f3976475344654ec13820aa,Mężczyzna,22,2021-09-06_19h11.16.970,rantool2,2021.1.4,Win32,59.16809656,6135e006383e6ea6c3d06a28,61364b96505dfd98d5068558,,,,,,,,
j,0.7562,0,38,38,46,1,5f3976475344654ec13820aa,RORRROO,RORRROR,22.00300695,21.24781509,series_0,5f3976475344654ec13820aa,Mężczyzna,22,2021-09-06_19h11.16.970,rantool2,2021.1.4,Win32,59.16809656,6135e006383e6ea6c3d06a28,61364b96505dfd98d5068558,,,,,,,,
f,1.0502,0,39,39,49,1,5f3976475344654ec13820aa,RROOORO,RROOORR,21.76276513,22.53364006,series_1,5f3976475344654ec13820aa,Mężczyzna,22,2021-09-06_19h11.16.970,rantool2,2021.1.4,Win32,59.16809656,6135e006383e6ea6c3d06a28,61364b96505dfd98d5068558,,,,,,,,
j,0.7855,0,40,40,40,1,5f3976475344654ec13820aa,ROROOOO,ROROOOR,20.87963819,21.37121559,series_1,5f3976475344654ec13820aa,Mężczyzna,22,2021-09-06_19h11.16.970,rantool2,2021.1.4,Win32,59.16809656,6135e006383e6ea6c3d06a28,61364b96505dfd98d5068558,,,,,,,,
f,0.8274,0,41,41,16,1,5f3976475344654ec13820aa,OROOOOO,OROOOOR,20.43051175,21.17347734,series_1,5f3976475344654ec13820aa,Mężczyzna,22,2021-09-06_19h11.16.970,rantool2,2021.1.4,Win32,59.16809656,6135e006383e6ea6c3d06a28,61364b96505dfd98d5068558,,,,,,,,
f,1.8488,0,42,42,45,1,5f3976475344654ec13820aa,RORRORO,RORRORR,20.78182524,21.22513037,series_1,5f3976475344654ec13820aa,Mężczyzna,22,2021-09-06_19h11.16.970,rantool2,2021.1.4,Win32,59.16809656,6135e006383e6ea6c3d06a28,61364b96505dfd98d5068558,,,,,,,,
f,1.0184,0,43,43,10,1,5f3976475344654ec13820aa,OOROROO,OOROROR,21.31236711,21.07490964,series_0,5f3976475344654ec13820aa,Mężczyzna,22,2021-09-06_19h11.16.970,rantool2,2021.1.4,Win32,59.16809656,6135e006383e6ea6c3d06a28,61364b96505dfd98d5068558,,,,,,,,
j,0.7885,0,44,44,48,1,5f3976475344654ec13820aa,RROOOOO,RROOOOR,20.90986523,22.15934078,series_1,5f3976475344654ec13820aa,Mężczyzna,22,2021-09-06_19h11.16.970,rantool2,2021.1.4,Win32,59.16809656,6135e006383e6ea6c3d06a28,61364b96505dfd98d5068558,,,,,,,,
f,1.0664,0,45,45,22,1,5f3976475344654ec13820aa,ORORROO,ORORROR,22.02732763,21.57657071,series_0,5f3976475344654ec13820aa,Mężczyzna,22,2021-09-06_19h11.16.970,rantool2,2021.1.4,Win32,59.16809656,6135e006383e6ea6c3d06a28,61364b96505dfd98d5068558,,,,,,,,
j,0.8215,0,46,46,2,1,5f3976475344654ec13820aa,OOOOROO,OOOOROR,20.43051175,21.02936224,series_1,5f3976475344654ec13820aa,Mężczyzna,22,2021-09-06_19h11.16.970,rantool2,2021.1.4,Win32,59.16809656,6135e006383e6ea6c3d06a28,61364b96505dfd98d5068558,,,,,,,,
j,0.8099,0,47,47,39,1,5f3976475344654ec13820aa,ROORRRO,ROORRRR,21.82425538,21.38562617,series_0,5f3976475344654ec13820aa,Mężczyzna,22,2021-09-06_19h11.16.970,rantool2,2021.1.4,Win32,59.16809656,6135e006383e6ea6c3d06a28,61364b96505dfd98d5068558,,,,,,,,
j,1.1224,0,48,48,55,1,5f3976475344654ec13820aa,RRORRRO,RRORRRR,21.56657303,21.21223021,series_0,5f3976475344654ec13820aa,Mężczyzna,22,2021-09-06_19h11.16.970,rantool2,2021.1.4,Win32,59.16809656,6135e006383e6ea6c3d06a28,61364b96505dfd98d5068558,,,,,,,,
j,0.6997,0,49,49,43,1,5f3976475344654ec13820aa,RORORRO,RORORRR,20.71309134,21.07490964,series_1,5f3976475344654ec13820aa,Mężczyzna,22,2021-09-06_19h11.16.970,rantool2,2021.1.4,Win32,59.16809656,6135e006383e6ea6c3d06a28,61364b96505dfd98d5068558,,,,,,,,
j,0.7862,0,50,50,12,1,5f3976475344654ec13820aa,OORROOO,OORROOR,21.30250474,22.02786418,series_1,5f3976475344654ec13820aa,Mężczyzna,22,2021-09-06_19h11.16.970,rantool2,2021.1.4,Win32,59.16809656,6135e006383e6ea6c3d06a28,61364b96505dfd98d5068558,,,,,,,,
j,1.1252,0,51,51,1,1,5f3976475344654ec13820aa,OOOOORO,OOOOORR,19.92253567,20.74050628,series_1,5f3976475344654ec13820aa,Mężczyzna,22,2021-09-06_19h11.16.970,rantool2,2021.1.4,Win32,59.16809656,6135e006383e6ea6c3d06a28,61364b96505dfd98d5068558,,,,,,,,
j,1.0621,0,52,52,0,1,5f3976475344654ec13820aa,OOOOOOO,OOOOOOR,18.52739004,19.62521613,series_1,5f3976475344654ec13820aa,Mężczyzna,22,2021-09-06_19h11.16.970,rantool2,2021.1.4,Win32,59.16809656,6135e006383e6ea6c3d06a28,61364b96505dfd98d5068558,,,,,,,,
f,0.8185,0,53,53,35,1,5f3976475344654ec13820aa,ROOORRO,ROOORRR,21.76276513,22.16977179,series_1,5f3976475344654ec13820aa,Mężczyzna,22,2021-09-06_19h11.16.970,rantool2,2021.1.4,Win32,59.16809656,6135e006383e6ea6c3d06a28,61364b96505dfd98d5068558,,,,,,,,
f,0.7695,0,54,54,60,1,5f3976475344654ec13820aa,RRRROOO,RRRROOR,22.10108823,22.15934078,series_1,5f3976475344654ec13820aa,Mężczyzna,22,2021-09-06_19h11.16.970,rantool2,2021.1.4,Win32,59.16809656,6135e006383e6ea6c3d06a28,61364b96505dfd98d5068558,,,,,,,,
j,0.9106,0,55,55,17,1,5f3976475344654ec13820aa,OROOORO,OROOORR,21.03750787,22.12173012,series_1,5f3976475344654ec13820aa,Mężczyzna,22,2021-09-06_19h11.16.970,rantool2,2021.1.4,Win32,59.16809656,6135e006383e6ea6c3d06a28,61364b96505dfd98d5068558,,,,,,,,
f,0.8169,0,56,56,61,1,5f3976475344654ec13820aa,RRRRORO,RRRRORR,21.81333602,21.17347734,series_0,5f3976475344654ec13820aa,Mężczyzna,22,2021-09-06_19h11.16.970,rantool2,2021.1.4,Win32,59.16809656,6135e006383e6ea6c3d06a28,61364b96505dfd98d5068558,,,,,,,,
j,0.5988,0,57,57,56,1,5f3976475344654ec13820aa,RRROOOO,RRROOOR,21.6194508,22.31681875,series_1,5f3976475344654ec13820aa,Mężczyzna,22,2021-09-06_19h11.16.970,rantool2,2021.1.4,Win32,59.16809656,6135e006383e6ea6c3d06a28,61364b96505dfd98d5068558,,,,,,,,
j,0.7595,0,58,58,53,1,5f3976475344654ec13820aa,RRORORO,RRORORR,20.71309134,21.90565814,series_1,5f3976475344654ec13820aa,Mężczyzna,22,2021-09-06_19h11.16.970,rantool2,2021.1.4,Win32,59.16809656,6135e006383e6ea6c3d06a28,61364b96505dfd98d5068558,,,,,,,,
j,0.6227,0,59,59,18,1,5f3976475344654ec13820aa,OROOROO,OROOROR,20.84860893,21.22513037,series_1,5f3976475344654ec13820aa,Mężczyzna,22,2021-09-06_19h11.16.970,rantool2,2021.1.4,Win32,59.16809656,6135e006383e6ea6c3d06a28,61364b96505dfd98d5068558,,,,,,,,
f,1.0182,0,60,60,15,1,5f3976475344654ec13820aa,OORRRRO,OORRRRR,22.10108823,21.74922619,series_0,5f3976475344654ec13820aa,Mężczyzna,22,2021-09-06_19h11.16.970,rantool2,2021.1.4,Win32,59.16809656,6135e006383e6ea6c3d06a28,61364b96505dfd98d5068558,,,,,,,,
f,0.8989,0,61,61,27,1,5f3976475344654ec13820aa,ORRORRO,ORRORRR,21.55250791,22.2428857,series_1,5f3976475344654ec13820aa,Mężczyzna,22,2021-09-06_19h11.16.970,rantool2,2021.1.4,Win32,59.16809656,6135e006383e6ea6c3d06a28,61364b96505dfd98d5068558,,,,,,,,
j,0.7649,0,62,62,54,1,5f3976475344654ec13820aa,RRORROO,RRORROR,21.55250791,20.9984461,series_0,5f3976475344654ec13820aa,Mężczyzna,22,2021-09-06_19h11.16.970,rantool2,2021.1.4,Win32,59.16809656,6135e006383e6ea6c3d06a28,61364b96505dfd98d5068558,,,,,,,,
j,0.8407,0,63,63,42,1,5f3976475344654ec13820aa,ROROROO,ROROROR,20.39515459,19.8361834,series_0,5f3976475344654ec13820aa,Mężczyzna,22,2021-09-06_19h11.16.970,rantool2,2021.1.4,Win32,59.16809656,6135e006383e6ea6c3d06a28,61364b96505dfd98d5068558,,,,,,,,
,,,,,,,5f3976475344654ec13820aa,,,,,,5f3976475344654ec13820aa,Mężczyzna,22,2021-09-06_19h11.16.970,rantool2,2021.1.4,Win32,59.16809656,6135e006383e6ea6c3d06a28,61364b96505dfd98d5068558,"[""comma""]",0,[1.8786000000089302],0,0,0,0,1
,,,,,,,5f3976475344654ec13820aa,,,,,,5f3976475344654ec13820aa,Mężczyzna,22,2021-09-06_19h11.16.970,rantool2,2021.1.4,Win32,59.16809656,6135e006383e6ea6c3d06a28,61364b96505dfd98d5068558,0,0,,1,0,1,0,1
,,,,,,,5f3976475344654ec13820aa,,,,,,5f3976475344654ec13820aa,Mężczyzna,22,2021-09-06_19h11.16.970,rantool2,2021.1.4,Win32,59.16809656,6135e006383e6ea6c3d06a28,61364b96505dfd98d5068558,"[""comma"",""comma""]",0,"[0.05640000000596501,1.8420999999940477]",2,0,2,0,1
,,,,,,,5f3976475344654ec13820aa,,,,,,5f3976475344654ec13820aa,Mężczyzna,22,2021-09-06_19h11.16.970,rantool2,2021.1.4,Win32,59.16809656,6135e006383e6ea6c3d06a28,61364b96505dfd98d5068558,"[""period""]",0,[1.5540999999940368],3,0,3,0,1
,,,,,,,5f3976475344654ec13820aa,,,,,,5f3976475344654ec13820aa,Mężczyzna,22,2021-09-06_19h11.16.970,rantool2,2021.1.4,Win32,59.16809656,6135e006383e6ea6c3d06a28,61364b96505dfd98d5068558,"[""period""]",0,[1.734700000002988],4,0,4,0,1
,,,,,,,5f3976475344654ec13820aa,,,,,,5f3976475344654ec13820aa,Mężczyzna,22,2021-09-06_19h11.16.970,rantool2,2021.1.4,Win32,59.16809656,6135e006383e6ea6c3d06a28,61364b96505dfd98d5068558,"[""period""]",0,[1.7441000000089275],5,0,5,0,1
,,,,,,,5f3976475344654ec13820aa,,,,,,5f3976475344654ec13820aa,Mężczyzna,22,2021-09-06_19h11.16.970,rantool2,2021.1.4,Win32,59.16809656,6135e006383e6ea6c3d06a28,61364b96505dfd98d5068558,"[""comma""]",0,[1.6229000000059841],6,0,6,0,1
,,,,,,,5f3976475344654ec13820aa,,,,,,5f3976475344654ec13820aa,Mężczyzna,22,2021-09-06_19h11.16.970,rantool2,2021.1.4,Win32,59.16809656,6135e006383e6ea6c3d06a28,61364b96505dfd98d5068558,"[""period""]",0,[1.41519999998809],7,0,7,0,1
,,,,,,,5f3976475344654ec13820aa,,,,,,5f3976475344654ec13820aa,Mężczyzna,22,2021-09-06_19h11.16.970,rantool2,2021.1.4,Win32,59.16809656,6135e006383e6ea6c3d06a28,61364b96505dfd98d5068558,"[""comma""]",0,[1.289999999999992],8,0,8,0,1
,,,,,,,5f3976475344654ec13820aa,,,,,,5f3976475344654ec13820aa,Mężczyzna,22,2021-09-06_19h11.16.970,rantool2,2021.1.4,Win32,59.16809656,6135e006383e6ea6c3d06a28,61364b96505dfd98d5068558,0,0,,9,0,9,0,1
,,,,,,,5f3976475344654ec13820aa,,,,,,5f3976475344654ec13820aa,Mężczyzna,22,2021-09-06_19h11.16.970,rantool2,2021.1.4,Win32,59.16809656,6135e006383e6ea6c3d06a28,61364b96505dfd98d5068558,"[""comma"",""comma""]",0,"[0.09989999999106658,1.449099999994047]",10,0,10,0,1
,,,,,,,5f3976475344654ec13820aa,,,,,,5f3976475344654ec13820aa,Mężczyzna,22,2021-09-06_19h11.16.970,rantool2,2021.1.4,Win32,59.16809656,6135e006383e6ea6c3d06a28,61364b96505dfd98d5068558,"[""comma""]",0,[1.3743999999910557],11,0,11,0,1
,,,,,,,5f3976475344654ec13820aa,,,,,,5f3976475344654ec13820aa,Mężczyzna,22,2021-09-06_19h11.16.970,rantool2,2021.1.4,Win32,59.16809656,6135e006383e6ea6c3d06a28,61364b96505dfd98d5068558,"[""period""]",0,[1.2271999999880734],12,0,12,0,1
,,,,,,,5f3976475344654ec13820aa,,,,,,5f3976475344654ec13820aa,Mężczyzna,22,2021-09-06_19h11.16.970,rantool2,2021.1.4,Win32,59.16809656,6135e006383e6ea6c3d06a28,61364b96505dfd98d5068558,"[""period""]",0,[1.3258999999910657],13,0,13,0,1
,,,,,,,5f3976475344654ec13820aa,,,,,,5f3976475344654ec13820aa,Mężczyzna,22,2021-09-06_19h11.16.970,rantool2,2021.1.4,Win32,59.16809656,6135e006383e6ea6c3d06a28,61364b96505dfd98d5068558,"[""comma""]",0,[1.1687000000029855],14,0,14,0,1
,,,,,,,5f3976475344654ec13820aa,,,,,,5f3976475344654ec13820aa,Mężczyzna,22,2021-09-06_19h11.16.970,rantool2,2021.1.4,Win32,59.16809656,6135e006383e6ea6c3d06a28,61364b96505dfd98d5068558,"[""comma""]",0,[0.9725999999940314],15,0,15,0,1
,,,,,,,5f3976475344654ec13820aa,,,,,,5f3976475344654ec13820aa,Mężczyzna,22,2021-09-06_19h11.16.970,rantool2,2021.1.4,Win32,59.16809656,6135e006383e6ea6c3d06a28,61364b96505dfd98d5068558,"[""comma""]",0,[1.0662000000029934],16,0,16,0,1
,,,,,,,5f3976475344654ec13820aa,,,,,,5f3976475344654ec13820aa,Mężczyzna,22,2021-09-06_19h11.16.970,rantool2,2021.1.4,Win32,59.16809656,6135e006383e6ea6c3d06a28,61364b96505dfd98d5068558,"[""period""]",0,[1.0760000000000218],17,0,17,0,1
,,,,,,,5f3976475344654ec13820aa,,,,,,5f3976475344654ec13820aa,Mężczyzna,22,2021-09-06_19h11.16.970,rantool2,2021.1.4,Win32,59.16809656,6135e006383e6ea6c3d06a28,61364b96505dfd98d5068558,"[""comma""]",0,[1.0396000000089316],18,0,18,0,1
,,,,,,,5f3976475344654ec13820aa,,,,,,5f3976475344654ec13820aa,Mężczyzna,22,2021-09-06_19h11.16.970,rantool2,2021.1.4,Win32,59.16809656,6135e006383e6ea6c3d06a28,61364b96505dfd98d5068558,"[""period""]",0,[0.9994000000059771],19,0,19,0,1
,,,,,,,5f3976475344654ec13820aa,,,,,,5f3976475344654ec13820aa,Mężczyzna,22,2021-09-06_19h11.16.970,rantool2,2021.1.4,Win32,59.16809656,6135e006383e6ea6c3d06a28,61364b96505dfd98d5068558,"[""period""]",0,[1.071599999994021],20,0,20,0,1
,,,,,,,5f3976475344654ec13820aa,,,,,,5f3976475344654ec13820aa,Mężczyzna,22,2021-09-06_19h11.16.970,rantool2,2021.1.4,Win32,59.16809656,6135e006383e6ea6c3d06a28,61364b96505dfd98d5068558,"[""period""]",0,[1.0579000000059864],21,0,21,0,1
,,,,,,,5f3976475344654ec13820aa,,,,,,5f3976475344654ec13820aa,Mężczyzna,22,2021-09-06_19h11.16.970,rantool2,2021.1.4,Win32,59.16809656,6135e006383e6ea6c3d06a28,61364b96505dfd98d5068558,"[""period""]",0,[1.066900000005944],22,0,22,0,1
,,,,,,,5f3976475344654ec13820aa,,,,,,5f3976475344654ec13820aa,Mężczyzna,22,2021-09-06_19h11.16.970,rantool2,2021.1.4,Win32,59.16809656,6135e006383e6ea6c3d06a28,61364b96505dfd98d5068558,"[""period""]",0,[1.0032000000029768],23,0,23,0,1
,,,,,,,5f3976475344654ec13820aa,,,,,,5f3976475344654ec13820aa,Mężczyzna,22,2021-09-06_19h11.16.970,rantool2,2021.1.4,Win32,59.16809656,6135e006383e6ea6c3d06a28,61364b96505dfd98d5068558,"[""comma""]",0,[1.0322000000029732],24,0,24,0,1
,,,,,,,5f3976475344654ec13820aa,,,,,,5f3976475344654ec13820aa,Mężczyzna,22,2021-09-06_19h11.16.970,rantool2,2021.1.4,Win32,59.16809656,6135e006383e6ea6c3d06a28,61364b96505dfd98d5068558,"[""period""]",0,[1.0037999999970282],25,0,25,0,1
,,,,,,,5f3976475344654ec13820aa,,,,,,5f3976475344654ec13820aa,Mężczyzna,22,2021-09-06_19h11.16.970,rantool2,2021.1.4,Win32,59.16809656,6135e006383e6ea6c3d06a28,61364b96505dfd98d5068558,"[""period""]",0,[1.0852000000029989],26,0,26,0,1
,,,,,,,5f3976475344654ec13820aa,,,,,,5f3976475344654ec13820aa,Mężczyzna,22,2021-09-06_19h11.16.970,rantool2,2021.1.4,Win32,59.16809656,6135e006383e6ea6c3d06a28,61364b96505dfd98d5068558,"[""comma""]",0,[1.0377000000029852],27,0,27,0,1
,,,,,,,5f3976475344654ec13820aa,,,,,,5f3976475344654ec13820aa,Mężczyzna,22,2021-09-06_19h11.16.970,rantool2,2021.1.4,Win32,59.16809656,6135e006383e6ea6c3d06a28,61364b96505dfd98d5068558,"[""comma""]",0,[1.078000000000003],28,0,28,0,1
,,,,,,,5f3976475344654ec13820aa,,,,,,5f3976475344654ec13820aa,Mężczyzna,22,2021-09-06_19h11.16.970,rantool2,2021.1.4,Win32,59.16809656,6135e006383e6ea6c3d06a28,61364b96505dfd98d5068558,"[""comma""]",0,[1.121100000008937],29,0,29,0,1
,,,,,,,5f3976475344654ec13820aa,,,,,,5f3976475344654ec13820aa,Mężczyzna,22,2021-09-06_19h11.16.970,rantool2,2021.1.4,Win32,59.16809656,6135e006383e6ea6c3d06a28,61364b96505dfd98d5068558,"[""period""]",0,[1.0648000000119282],30,0,30,0,1
,,,,,,,5f3976475344654ec13820aa,,,,,,5f3976475344654ec13820aa,Mężczyzna,22,2021-09-06_19h11.16.970,rantool2,2021.1.4,Win32,59.16809656,6135e006383e6ea6c3d06a28,61364b96505dfd98d5068558,"[""period""]",0,[1.1197000000029789],31,0,31,0,1
,,,,,,,5f3976475344654ec13820aa,,,,,,5f3976475344654ec13820aa,Mężczyzna,22,2021-09-06_19h11.16.970,rantool2,2021.1.4,Win32,59.16809656,6135e006383e6ea6c3d06a28,61364b96505dfd98d5068558,"[""comma""]",0,[1.0087999999970236],32,0,32,0,1
,,,,,,,5f3976475344654ec13820aa,,,,,,5f3976475344654ec13820aa,Mężczyzna,22,2021-09-06_19h11.16.970,rantool2,2021.1.4,Win32,59.16809656,6135e006383e6ea6c3d06a28,61364b96505dfd98d5068558,"[""comma""]",0,[1.194500000000005],33,0,33,0,1
,,,,,,,5f3976475344654ec13820aa,,,,,,5f3976475344654ec13820aa,Mężczyzna,22,2021-09-06_19h11.16.970,rantool2,2021.1.4,Win32,59.16809656,6135e006383e6ea6c3d06a28,61364b96505dfd98d5068558,"[""comma""]",0,[1.1505000000000223],34,0,34,0,1
,,,,,,,5f3976475344654ec13820aa,,,,,,5f3976475344654ec13820aa,Mężczyzna,22,2021-09-06_19h11.16.970,rantool2,2021.1.4,Win32,59.16809656,6135e006383e6ea6c3d06a28,61364b96505dfd98d5068558,"[""period""]",0,[1.050900000005953],35,0,35,0,1
,,,,,,,5f3976475344654ec13820aa,,,,,,5f3976475344654ec13820aa,Mężczyzna,22,2021-09-06_19h11.16.970,rantool2,2021.1.4,Win32,59.16809656,6135e006383e6ea6c3d06a28,61364b96505dfd98d5068558,"[""period""]",0,[1.3133999999910486],36,0,36,0,1
,,,,,,,5f3976475344654ec13820aa,,,,,,5f3976475344654ec13820aa,Mężczyzna,22,2021-09-06_19h11.16.970,rantool2,2021.1.4,Win32,59.16809656,6135e006383e6ea6c3d06a28,61364b96505dfd98d5068558,"[""period""]",0,[1.0395999999940386],37,0,37,0,1
,,,,,,,5f3976475344654ec13820aa,,,,,,5f3976475344654ec13820aa,Mężczyzna,22,2021-09-06_19h11.16.970,rantool2,2021.1.4,Win32,59.16809656,6135e006383e6ea6c3d06a28,61364b96505dfd98d5068558,"[""period""]",0,[1.1086000000089484],38,0,38,0,1
,,,,,,,5f3976475344654ec13820aa,,,,,,5f3976475344654ec13820aa,Mężczyzna,22,2021-09-06_19h11.16.970,rantool2,2021.1.4,Win32,59.16809656,6135e006383e6ea6c3d06a28,61364b96505dfd98d5068558,"[""comma""]",0,[1.0667999999970164],39,0,39,0,1
,,,,,,,5f3976475344654ec13820aa,,,,,,5f3976475344654ec13820aa,Mężczyzna,22,2021-09-06_19h11.16.970,rantool2,2021.1.4,Win32,59.16809656,6135e006383e6ea6c3d06a28,61364b96505dfd98d5068558,"[""comma""]",0,[1.0989999999999895],40,0,40,0,1
,,,,,,,5f3976475344654ec13820aa,,,,,,5f3976475344654ec13820aa,Mężczyzna,22,2021-09-06_19h11.16.970,rantool2,2021.1.4,Win32,59.16809656,6135e006383e6ea6c3d06a28,61364b96505dfd98d5068558,"[""period""]",0,[0.8043999999910625],41,0,41,0,1
,,,,,,,5f3976475344654ec13820aa,,,,,,5f3976475344654ec13820aa,Mężczyzna,22,2021-09-06_19h11.16.970,rantool2,2021.1.4,Win32,59.16809656,6135e006383e6ea6c3d06a28,61364b96505dfd98d5068558,"[""comma"",""comma"",""comma""]",0,"[1.2096000000089475,1.4001000000089334,1.5526000000089084]",42,0,42,0,1
,,,,,,,5f3976475344654ec13820aa,,,,,,5f3976475344654ec13820aa,Mężczyzna,22,2021-09-06_19h11.16.970,rantool2,2021.1.4,Win32,59.16809656,6135e006383e6ea6c3d06a28,61364b96505dfd98d5068558,"[""comma""]",0,[1.2902999999970461],43,0,43,0,1
,,,,,,,5f3976475344654ec13820aa,,,,,,5f3976475344654ec13820aa,Mężczyzna,22,2021-09-06_19h11.16.970,rantool2,2021.1.4,Win32,59.16809656,6135e006383e6ea6c3d06a28,61364b96505dfd98d5068558,"[""comma""]",0,[1.3253000000119073],44,0,44,0,1
,,,,,,,5f3976475344654ec13820aa,,,,,,5f3976475344654ec13820aa,Mężczyzna,22,2021-09-06_19h11.16.970,rantool2,2021.1.4,Win32,59.16809656,6135e006383e6ea6c3d06a28,61364b96505dfd98d5068558,"[""period""]",0,[1.1999999999999886],45,0,45,0,1
,,,,,,,5f3976475344654ec13820aa,,,,,,5f3976475344654ec13820aa,Mężczyzna,22,2021-09-06_19h11.16.970,rantool2,2021.1.4,Win32,59.16809656,6135e006383e6ea6c3d06a28,61364b96505dfd98d5068558,"[""period""]",0,[1.12590000000597],46,0,46,0,1
,,,,,,,5f3976475344654ec13820aa,,,,,,5f3976475344654ec13820aa,Mężczyzna,22,2021-09-06_19h11.16.970,rantool2,2021.1.4,Win32,59.16809656,6135e006383e6ea6c3d06a28,61364b96505dfd98d5068558,"[""period""]",0,[0.9852999999970393],47,0,47,0,1
,,,,,,,5f3976475344654ec13820aa,,,,,,5f3976475344654ec13820aa,Mężczyzna,22,2021-09-06_19h11.16.970,rantool2,2021.1.4,Win32,59.16809656,6135e006383e6ea6c3d06a28,61364b96505dfd98d5068558,"[""comma""]",0,[1.3426000000089857],48,0,48,0,1
,,,,,,,5f3976475344654ec13820aa,,,,,,5f3976475344654ec13820aa,Mężczyzna,22,2021-09-06_19h11.16.970,rantool2,2021.1.4,Win32,59.16809656,6135e006383e6ea6c3d06a28,61364b96505dfd98d5068558,"[""period""]",0,[1.0832000000029893],49,0,49,0,1
,,,,,,,5f3976475344654ec13820aa,,,,,,5f3976475344654ec13820aa,Mężczyzna,22,2021-09-06_19h11.16.970,rantool2,2021.1.4,Win32,59.16809656,6135e006383e6ea6c3d06a28,61364b96505dfd98d5068558,"[""comma""]",0,[0.8612999999970157],50,0,50,0,1
,,,,,,,5f3976475344654ec13820aa,,,,,,5f3976475344654ec13820aa,Mężczyzna,22,2021-09-06_19h11.16.970,rantool2,2021.1.4,Win32,59.16809656,6135e006383e6ea6c3d06a28,61364b96505dfd98d5068558,"[""period""]",0,[0.9255999999940059],51,0,51,0,1
,,,,,,,5f3976475344654ec13820aa,,,,,,5f3976475344654ec13820aa,Mężczyzna,22,2021-09-06_19h11.16.970,rantool2,2021.1.4,Win32,59.16809656,6135e006383e6ea6c3d06a28,61364b96505dfd98d5068558,"[""period""]",0,[1.0097999999970284],52,0,52,0,1
,,,,,,,5f3976475344654ec13820aa,,,,,,5f3976475344654ec13820aa,Mężczyzna,22,2021-09-06_19h11.16.970,rantool2,2021.1.4,Win32,59.16809656,6135e006383e6ea6c3d06a28,61364b96505dfd98d5068558,"[""period""]",0,[1.0105999999940423],53,0,53,0,1
,,,,,,,5f3976475344654ec13820aa,,,,,,5f3976475344654ec13820aa,Mężczyzna,22,2021-09-06_19h11.16.970,rantool2,2021.1.4,Win32,59.16809656,6135e006383e6ea6c3d06a28,61364b96505dfd98d5068558,"[""comma""]",0,[0.8988999999911016],54,0,54,0,1
,,,,,,,5f3976475344654ec13820aa,,,,,,5f3976475344654ec13820aa,Mężczyzna,22,2021-09-06_19h11.16.970,rantool2,2021.1.4,Win32,59.16809656,6135e006383e6ea6c3d06a28,61364b96505dfd98d5068558,"[""comma""]",0,[0.9932000000030143],55,0,55,0,1
,,,,,,,5f3976475344654ec13820aa,,,,,,5f3976475344654ec13820aa,Mężczyzna,22,2021-09-06_19h11.16.970,rantool2,2021.1.4,Win32,59.16809656,6135e006383e6ea6c3d06a28,61364b96505dfd98d5068558,"[""period""]",0,[1.0400999999940268],56,0,56,0,1
,,,,,,,5f3976475344654ec13820aa,,,,,,5f3976475344654ec13820aa,Mężczyzna,22,2021-09-06_19h11.16.970,rantool2,2021.1.4,Win32,59.16809656,6135e006383e6ea6c3d06a28,61364b96505dfd98d5068558,"[""comma""]",0,[1.1382000000029961],57,0,57,0,1
,,,,,,,5f3976475344654ec13820aa,,,,,,5f3976475344654ec13820aa,Mężczyzna,22,2021-09-06_19h11.16.970,rantool2,2021.1.4,Win32,59.16809656,6135e006383e6ea6c3d06a28,61364b96505dfd98d5068558,"[""period""]",0,[0.4002000000029966],58,0,58,0,1
,,,,,,,5f3976475344654ec13820aa,,,,,,5f3976475344654ec13820aa,Mężczyzna,22,2021-09-06_19h11.16.970,rantool2,2021.1.4,Win32,59.16809656,6135e006383e6ea6c3d06a28,61364b96505dfd98d5068558,"[""comma""]",0,[0.88240000000593],59,0,59,0,1
,,,,,,,5f3976475344654ec13820aa,,,,,,5f3976475344654ec13820aa,Mężczyzna,22,2021-09-06_19h11.16.970,rantool2,2021.1.4,Win32,59.16809656,6135e006383e6ea6c3d06a28,61364b96505dfd98d5068558,"[""comma""]",0,[0.97380000001192],60,0,60,0,1
,,,,,,,5f3976475344654ec13820aa,,,,,,5f3976475344654ec13820aa,Mężczyzna,22,2021-09-06_19h11.16.970,rantool2,2021.1.4,Win32,59.16809656,6135e006383e6ea6c3d06a28,61364b96505dfd98d5068558,"[""period""]",0,[1.0282000000029825],61,0,61,0,1
,,,,,,,5f3976475344654ec13820aa,,,,,,5f3976475344654ec13820aa,Mężczyzna,22,2021-09-06_19h11.16.970,rantool2,2021.1.4,Win32,59.16809656,6135e006383e6ea6c3d06a28,61364b96505dfd98d5068558,"[""comma""]",0,[1.0535000000000423],62,0,62,0,1
,,,,,,,5f3976475344654ec13820aa,,,,,,5f3976475344654ec13820aa,Mężczyzna,22,2021-09-06_19h11.16.970,rantool2,2021.1.4,Win32,59.16809656,6135e006383e6ea6c3d06a28,61364b96505dfd98d5068558,"[""comma""]",0,[0.9992999999970493],63,0,63,0,1
,,,,,,,5f3976475344654ec13820aa,,,,,,5f3976475344654ec13820aa,Mężczyzna,22,2021-09-06_19h11.16.970,rantool2,2021.1.4,Win32,59.16809656,6135e006383e6ea6c3d06a28,61364b96505dfd98d5068558,"[""period""]",0,[1.4157000000029711],64,0,64,0,1
,,,,,,,5f3976475344654ec13820aa,,,,,,5f3976475344654ec13820aa,Mężczyzna,22,2021-09-06_19h11.16.970,rantool2,2021.1.4,Win32,59.16809656,6135e006383e6ea6c3d06a28,61364b96505dfd98d5068558,"[""period""]",0,[1.0854999999999677],65,0,65,0,1
,,,,,,,5f3976475344654ec13820aa,,,,,,5f3976475344654ec13820aa,Mężczyzna,22,2021-09-06_19h11.16.970,rantool2,2021.1.4,Win32,59.16809656,6135e006383e6ea6c3d06a28,61364b96505dfd98d5068558,"[""period""]",0,[1.0087999999969952],66,0,66,0,1
,,,,,,,5f3976475344654ec13820aa,,,,,,5f3976475344654ec13820aa,Mężczyzna,22,2021-09-06_19h11.16.970,rantool2,2021.1.4,Win32,59.16809656,6135e006383e6ea6c3d06a28,61364b96505dfd98d5068558,"[""comma""]",0,[1.0622999999969807],67,0,67,0,1
,,,,,,,5f3976475344654ec13820aa,,,,,,5f3976475344654ec13820aa,Mężczyzna,22,2021-09-06_19h11.16.970,rantool2,2021.1.4,Win32,59.16809656,6135e006383e6ea6c3d06a28,61364b96505dfd98d5068558,"[""comma""]",0,[1.2497000000030312],68,0,68,0,1
,,,,,,,5f3976475344654ec13820aa,,,,,,5f3976475344654ec13820aa,Mężczyzna,22,2021-09-06_19h11.16.970,rantool2,2021.1.4,Win32,59.16809656,6135e006383e6ea6c3d06a28,61364b96505dfd98d5068558,"[""comma""]",0,[1.0554000000059887],69,0,69,0,1
,,,,,,,5f3976475344654ec13820aa,,,,,,5f3976475344654ec13820aa,Mężczyzna,22,2021-09-06_19h11.16.970,rantool2,2021.1.4,Win32,59.16809656,6135e006383e6ea6c3d06a28,61364b96505dfd98d5068558,"[""period""]",0,[1.059399999991058],70,0,70,0,1
,,,,,,,5f3976475344654ec13820aa,,,,,,5f3976475344654ec13820aa,Mężczyzna,22,2021-09-06_19h11.16.970,rantool2,2021.1.4,Win32,59.16809656,6135e006383e6ea6c3d06a28,61364b96505dfd98d5068558,"[""period""]",0,[1.1222000000029766],71,0,71,0,1
,,,,,,,5f3976475344654ec13820aa,,,,,,5f3976475344654ec13820aa,Mężczyzna,22,2021-09-06_19h11.16.970,rantool2,2021.1.4,Win32,59.16809656,6135e006383e6ea6c3d06a28,61364b96505dfd98d5068558,"[""period""]",0,[1.4368000000118855],72,0,72,0,1
,,,,,,,5f3976475344654ec13820aa,,,,,,5f3976475344654ec13820aa,Mężczyzna,22,2021-09-06_19h11.16.970,rantool2,2021.1.4,Win32,59.16809656,6135e006383e6ea6c3d06a28,61364b96505dfd98d5068558,"[""period""]",0,[1.3282000000029939],73,0,73,0,1
,,,,,,,5f3976475344654ec13820aa,,,,,,5f3976475344654ec13820aa,Mężczyzna,22,2021-09-06_19h11.16.970,rantool2,2021.1.4,Win32,59.16809656,6135e006383e6ea6c3d06a28,61364b96505dfd98d5068558,"[""period""]",0,[1.191500000000019],74,0,74,0,1
,,,,,,,5f3976475344654ec13820aa,,,,,,5f3976475344654ec13820aa,Mężczyzna,22,2021-09-06_19h11.16.970,rantool2,2021.1.4,Win32,59.16809656,6135e006383e6ea6c3d06a28,61364b96505dfd98d5068558,"[""comma""]",0,[1.2369999999999663],75,0,75,0,1
,,,,,,,5f3976475344654ec13820aa,,,,,,5f3976475344654ec13820aa,Mężczyzna,22,2021-09-06_19h11.16.970,rantool2,2021.1.4,Win32,59.16809656,6135e006383e6ea6c3d06a28,61364b96505dfd98d5068558,"[""period""]",0,[1.2558999999910725],76,0,76,0,1
,,,,,,,5f3976475344654ec13820aa,,,,,,5f3976475344654ec13820aa,Mężczyzna,22,2021-09-06_19h11.16.970,rantool2,2021.1.4,Win32,59.16809656,6135e006383e6ea6c3d06a28,61364b96505dfd98d5068558,"[""comma""]",0,[1.366300000011904],77,0,77,0,1
,,,,,,,5f3976475344654ec13820aa,,,,,,5f3976475344654ec13820aa,Mężczyzna,22,2021-09-06_19h11.16.970,rantool2,2021.1.4,Win32,59.16809656,6135e006383e6ea6c3d06a28,61364b96505dfd98d5068558,"[""period""]",0,[1.115900000005979],78,0,78,0,1
,,,,,,,5f3976475344654ec13820aa,,,,,,5f3976475344654ec13820aa,Mężczyzna,22,2021-09-06_19h11.16.970,rantool2,2021.1.4,Win32,59.16809656,6135e006383e6ea6c3d06a28,61364b96505dfd98d5068558,"[""period""]",0,[1.2981000000089011],79,0,79,0,1
,,,,,,,5f3976475344654ec13820aa,,,,,,5f3976475344654ec13820aa,Mężczyzna,22,2021-09-06_19h11.16.970,rantool2,2021.1.4,Win32,59.16809656,6135e006383e6ea6c3d06a28,61364b96505dfd98d5068558,"[""period""]",0,[1.2779000000059568],80,0,80,0,1
,,,,,,,5f3976475344654ec13820aa,,,,,,5f3976475344654ec13820aa,Mężczyzna,22,2021-09-06_19h11.16.970,rantool2,2021.1.4,Win32,59.16809656,6135e006383e6ea6c3d06a28,61364b96505dfd98d5068558,"[""period""]",0,[0.9644000000059805],81,0,81,0,1
,,,,,,,5f3976475344654ec13820aa,,,,,,5f3976475344654ec13820aa,Mężczyzna,22,2021-09-06_19h11.16.970,rantool2,2021.1.4,Win32,59.16809656,6135e006383e6ea6c3d06a28,61364b96505dfd98d5068558,"[""period""]",0,[1.1812999999970089],82,0,82,0,1
,,,,,,,5f3976475344654ec13820aa,,,,,,5f3976475344654ec13820aa,Mężczyzna,22,2021-09-06_19h11.16.970,rantool2,2021.1.4,Win32,59.16809656,6135e006383e6ea6c3d06a28,61364b96505dfd98d5068558,"[""comma""]",0,[0.5967000000029543],83,0,83,0,1
,,,,,,,5f3976475344654ec13820aa,,,,,,5f3976475344654ec13820aa,Mężczyzna,22,2021-09-06_19h11.16.970,rantool2,2021.1.4,Win32,59.16809656,6135e006383e6ea6c3d06a28,61364b96505dfd98d5068558,"[""comma""]",0,[0.5455000000000041],84,0,84,0,1
,,,,,,,5f3976475344654ec13820aa,,,,,,5f3976475344654ec13820aa,Mężczyzna,22,2021-09-06_19h11.16.970,rantool2,2021.1.4,Win32,59.16809656,6135e006383e6ea6c3d06a28,61364b96505dfd98d5068558,"[""period""]",0,[0.9517000000029725],85,0,85,0,1
,,,,,,,5f3976475344654ec13820aa,,,,,,5f3976475344654ec13820aa,Mężczyzna,22,2021-09-06_19h11.16.970,rantool2,2021.1.4,Win32,59.16809656,6135e006383e6ea6c3d06a28,61364b96505dfd98d5068558,"[""period""]",0,[0.6494000000059827],86,0,86,0,1
,,,,,,,5f3976475344654ec13820aa,,,,,,5f3976475344654ec13820aa,Mężczyzna,22,2021-09-06_19h11.16.970,rantool2,2021.1.4,Win32,59.16809656,6135e006383e6ea6c3d06a28,61364b96505dfd98d5068558,"[""comma""]",0,[0.9830000000000041],87,0,87,0,1
,,,,,,,5f3976475344654ec13820aa,,,,,,5f3976475344654ec13820aa,Mężczyzna,22,2021-09-06_19h11.16.970,rantool2,2021.1.4,Win32,59.16809656,6135e006383e6ea6c3d06a28,61364b96505dfd98d5068558,"[""period""]",0,[1.1825999999940109],88,0,88,0,1
,,,,,,,5f3976475344654ec13820aa,,,,,,5f3976475344654ec13820aa,Mężczyzna,22,2021-09-06_19h11.16.970,rantool2,2021.1.4,Win32,59.16809656,6135e006383e6ea6c3d06a28,61364b96505dfd98d5068558,"[""comma""]",0,[1.0115999999940186],89,0,89,0,1
,,,,,,,5f3976475344654ec13820aa,,,,,,5f3976475344654ec13820aa,Mężczyzna,22,2021-09-06_19h11.16.970,rantool2,2021.1.4,Win32,59.16809656,6135e006383e6ea6c3d06a28,61364b96505dfd98d5068558,"[""comma""]",0,[0.9992000000029861],90,0,90,0,1
,,,,,,,5f3976475344654ec13820aa,,,,,,5f3976475344654ec13820aa,Mężczyzna,22,2021-09-06_19h11.16.970,rantool2,2021.1.4,Win32,59.16809656,6135e006383e6ea6c3d06a28,61364b96505dfd98d5068558,"[""comma""]",0,[1.1917000000029816],91,0,91,0,1
,,,,,,,5f3976475344654ec13820aa,,,,,,5f3976475344654ec13820aa,Mężczyzna,22,2021-09-06_19h11.16.970,rantool2,2021.1.4,Win32,59.16809656,6135e006383e6ea6c3d06a28,61364b96505dfd98d5068558,"[""comma""]",0,[1.4617999999970266],92,0,92,0,1
,,,,,,,5f3976475344654ec13820aa,,,,,,5f3976475344654ec13820aa,Mężczyzna,22,2021-09-06_19h11.16.970,rantool2,2021.1.4,Win32,59.16809656,6135e006383e6ea6c3d06a28,61364b96505dfd98d5068558,"[""comma""]",0,[1.255199999988065],93,0,93,0,1
,,,,,,,5f3976475344654ec13820aa,,,,,,5f3976475344654ec13820aa,Mężczyzna,22,2021-09-06_19h11.16.970,rantool2,2021.1.4,Win32,59.16809656,6135e006383e6ea6c3d06a28,61364b96505dfd98d5068558,"[""period""]",0,[1.1283999999910748],94,0,94,0,1
,,,,,,,5f3976475344654ec13820aa,,,,,,5f3976475344654ec13820aa,Mężczyzna,22,2021-09-06_19h11.16.970,rantool2,2021.1.4,Win32,59.16809656,6135e006383e6ea6c3d06a28,61364b96505dfd98d5068558,"[""period""]",0,[1.091799999997022],95,0,95,0,1
,,,,,,,5f3976475344654ec13820aa,,,,,,5f3976475344654ec13820aa,Mężczyzna,22,2021-09-06_19h11.16.970,rantool2,2021.1.4,Win32,59.16809656,6135e006383e6ea6c3d06a28,61364b96505dfd98d5068558,"[""period""]",0,[1.0282999999969888],96,0,96,0,1
,,,,,,,5f3976475344654ec13820aa,,,,,,5f3976475344654ec13820aa,Mężczyzna,22,2021-09-06_19h11.16.970,rantool2,2021.1.4,Win32,59.16809656,6135e006383e6ea6c3d06a28,61364b96505dfd98d5068558,"[""comma""]",0,[0.9569999999999936],97,0,97,0,1
,,,,,,,5f3976475344654ec13820aa,,,,,,5f3976475344654ec13820aa,Mężczyzna,22,2021-09-06_19h11.16.970,rantool2,2021.1.4,Win32,59.16809656,6135e006383e6ea6c3d06a28,61364b96505dfd98d5068558,"[""comma""]",0,[0.9936000000089393],98,0,98,0,1
,,,,,,,5f3976475344654ec13820aa,,,,,,5f3976475344654ec13820aa,Mężczyzna,22,2021-09-06_19h11.16.970,rantool2,2021.1.4,Win32,59.16809656,6135e006383e6ea6c3d06a28,61364b96505dfd98d5068558,"[""comma""]",0,[1.0385999999940054],99,0,99,0,1
,,,,,,,5f3976475344654ec13820aa,,,,,,5f3976475344654ec13820aa,Mężczyzna,22,2021-09-06_19h11.16.970,rantool2,2021.1.4,Win32,59.16809656,6135e006383e6ea6c3d06a28,61364b96505dfd98d5068558,"[""period""]",0,[1.2839000000059855],100,0,100,0,1
,,,,,,,5f3976475344654ec13820aa,,,,,,5f3976475344654ec13820aa,Mężczyzna,22,2021-09-06_19h11.16.970,rantool2,2021.1.4,Win32,59.16809656,6135e006383e6ea6c3d06a28,61364b96505dfd98d5068558,"[""comma""]",0,[1.0738999999910561],101,0,101,0,1
,,,,,,,5f3976475344654ec13820aa,,,,,,5f3976475344654ec13820aa,Mężczyzna,22,2021-09-06_19h11.16.970,rantool2,2021.1.4,Win32,59.16809656,6135e006383e6ea6c3d06a28,61364b96505dfd98d5068558,"[""comma""]",0,[1.3344000000059282],102,0,102,0,1
,,,,,,,5f3976475344654ec13820aa,,,,,,5f3976475344654ec13820aa,Mężczyzna,22,2021-09-06_19h11.16.970,rantool2,2021.1.4,Win32,59.16809656,6135e006383e6ea6c3d06a28,61364b96505dfd98d5068558,"[""comma""]",0,[1.1107999999969707],103,0,103,0,1
,,,,,,,5f3976475344654ec13820aa,,,,,,5f3976475344654ec13820aa,Mężczyzna,22,2021-09-06_19h11.16.970,rantool2,2021.1.4,Win32,59.16809656,6135e006383e6ea6c3d06a28,61364b96505dfd98d5068558,"[""period""]",0,[1.369800000011935],104,0,104,0,1
,,,,,,,5f3976475344654ec13820aa,,,,,,5f3976475344654ec13820aa,Mężczyzna,22,2021-09-06_19h11.16.970,rantool2,2021.1.4,Win32,59.16809656,6135e006383e6ea6c3d06a28,61364b96505dfd98d5068558,"[""period""]",0,[1.294199999988109],105,0,105,0,1
,,,,,,,5f3976475344654ec13820aa,,,,,,5f3976475344654ec13820aa,Mężczyzna,22,2021-09-06_19h11.16.970,rantool2,2021.1.4,Win32,59.16809656,6135e006383e6ea6c3d06a28,61364b96505dfd98d5068558,"[""comma""]",0,[1.3812000000029343],106,0,106,0,1
,,,,,,,5f3976475344654ec13820aa,,,,,,5f3976475344654ec13820aa,Mężczyzna,22,2021-09-06_19h11.16.970,rantool2,2021.1.4,Win32,59.16809656,6135e006383e6ea6c3d06a28,61364b96505dfd98d5068558,"[""comma""]",0,[0.9934000000059768],107,0,107,0,1
,,,,,,,5f3976475344654ec13820aa,,,,,,5f3976475344654ec13820aa,Mężczyzna,22,2021-09-06_19h11.16.970,rantool2,2021.1.4,Win32,59.16809656,6135e006383e6ea6c3d06a28,61364b96505dfd98d5068558,"[""period""]",0,[1.8331000000089261],108,0,108,0,1
,,,,,,,5f3976475344654ec13820aa,,,,,,5f3976475344654ec13820aa,Mężczyzna,22,2021-09-06_19h11.16.970,rantool2,2021.1.4,Win32,59.16809656,6135e006383e6ea6c3d06a28,61364b96505dfd98d5068558,"[""comma""]",0,[1.1704000000059978],109,0,109,0,1
,,,,,,,5f3976475344654ec13820aa,,,,,,5f3976475344654ec13820aa,Mężczyzna,22,2021-09-06_19h11.16.970,rantool2,2021.1.4,Win32,59.16809656,6135e006383e6ea6c3d06a28,61364b96505dfd98d5068558,"[""period""]",0,[1.0231000000089807],110,0,110,0,1
,,,,,,,5f3976475344654ec13820aa,,,,,,5f3976475344654ec13820aa,Mężczyzna,22,2021-09-06_19h11.16.970,rantool2,2021.1.4,Win32,59.16809656,6135e006383e6ea6c3d06a28,61364b96505dfd98d5068558,"[""comma""]",0,[1.03359999999401],111,0,111,0,1
,,,,,,,5f3976475344654ec13820aa,,,,,,5f3976475344654ec13820aa,Mężczyzna,22,2021-09-06_19h11.16.970,rantool2,2021.1.4,Win32,59.16809656,6135e006383e6ea6c3d06a28,61364b96505dfd98d5068558,"[""comma""]",0,[0.9922999999970443],112,0,112,0,1
,,,,,,,5f3976475344654ec13820aa,,,,,,5f3976475344654ec13820aa,Mężczyzna,22,2021-09-06_19h11.16.970,rantool2,2021.1.4,Win32,59.16809656,6135e006383e6ea6c3d06a28,61364b96505dfd98d5068558,"[""comma""]",0,[0.9834000000059291],113,0,113,0,1
,,,,,,,5f3976475344654ec13820aa,,,,,,5f3976475344654ec13820aa,Mężczyzna,22,2021-09-06_19h11.16.970,rantool2,2021.1.4,Win32,59.16809656,6135e006383e6ea6c3d06a28,61364b96505dfd98d5068558,"[""comma""]",0,[0.9314000000059082],114,0,114,0,1
,,,,,,,5f3976475344654ec13820aa,,,,,,5f3976475344654ec13820aa,Mężczyzna,22,2021-09-06_19h11.16.970,rantool2,2021.1.4,Win32,59.16809656,6135e006383e6ea6c3d06a28,61364b96505dfd98d5068558,"[""period""]",0,[0.8454999999999586],115,0,115,0,1
,,,,,,,5f3976475344654ec13820aa,,,,,,5f3976475344654ec13820aa,Mężczyzna,22,2021-09-06_19h11.16.970,rantool2,2021.1.4,Win32,59.16809656,6135e006383e6ea6c3d06a28,61364b96505dfd98d5068558,"[""period""]",0,[0.8237000000029866],116,0,116,0,1
,,,,,,,5f3976475344654ec13820aa,,,,,,5f3976475344654ec13820aa,Mężczyzna,22,2021-09-06_19h11.16.970,rantool2,2021.1.4,Win32,59.16809656,6135e006383e6ea6c3d06a28,61364b96505dfd98d5068558,"[""comma""]",0,[0.9334000000059746],117,0,117,0,1
,,,,,,,5f3976475344654ec13820aa,,,,,,5f3976475344654ec13820aa,Mężczyzna,22,2021-09-06_19h11.16.970,rantool2,2021.1.4,Win32,59.16809656,6135e006383e6ea6c3d06a28,61364b96505dfd98d5068558,"[""comma""]",0,[1.031399999991038],118,0,118,0,1
,,,,,,,5f3976475344654ec13820aa,,,,,,5f3976475344654ec13820aa,Mężczyzna,22,2021-09-06_19h11.16.970,rantool2,2021.1.4,Win32,59.16809656,6135e006383e6ea6c3d06a28,61364b96505dfd98d5068558,"[""period""]",0,[0.9995000000000118],119,0,119,0,1
