key_resp_5.keys,key_resp_5.corr,key_resp_5.rt,trials.thisRepN,trials.thisTrialN,trials.thisN,trials.thisIndex,trials.ran,id*,Płeć*,Wiek*,date,expName,psychopyVersion,OS,frameRate,id,STUDY_ID,SESSION_ID,key_resp_7.keys,key_resp_7.rt,trials_2.thisRepN,trials_2.thisTrialN,trials_2.thisN,trials_2.thisIndex,trials_2.ran,series_0,series_1,acss_0,acss_1,comparison
0,,,0,0,0,0,1,60bbb94b1a0f3a4a5fd8cb75,Mężczyzna,26,2021-07-13_21h57.40.534,rantool2,2021.1.4,Win32,59.97001499,60bbb94b1a0f3a4a5fd8cb75,60d9d14f4a8a35a482e0d9bf,60edead384545ffd229b9d66,,,,,,,,,,,,
"[""comma""]",0,[0.3346000000019558],1,0,1,0,1,60bbb94b1a0f3a4a5fd8cb75,Mężczyzna,26,2021-07-13_21h57.40.534,rantool2,2021.1.4,Win32,59.97001499,60bbb94b1a0f3a4a5fd8cb75,60d9d14f4a8a35a482e0d9bf,60edead384545ffd229b9d66,,,,,,,,,,,,
"[""period""]",0,[0.26267499999084976],2,0,2,0,1,60bbb94b1a0f3a4a5fd8cb75,Mężczyzna,26,2021-07-13_21h57.40.534,rantool2,2021.1.4,Win32,59.97001499,60bbb94b1a0f3a4a5fd8cb75,60d9d14f4a8a35a482e0d9bf,60edead384545ffd229b9d66,,,,,,,,,,,,
"[""comma""]",0,[0.25110500000300817],3,0,3,0,1,60bbb94b1a0f3a4a5fd8cb75,Mężczyzna,26,2021-07-13_21h57.40.534,rantool2,2021.1.4,Win32,59.97001499,60bbb94b1a0f3a4a5fd8cb75,60d9d14f4a8a35a482e0d9bf,60edead384545ffd229b9d66,,,,,,,,,,,,
"[""comma""]",0,[0.6318150000006426],4,0,4,0,1,60bbb94b1a0f3a4a5fd8cb75,Mężczyzna,26,2021-07-13_21h57.40.534,rantool2,2021.1.4,Win32,59.97001499,60bbb94b1a0f3a4a5fd8cb75,60d9d14f4a8a35a482e0d9bf,60edead384545ffd229b9d66,,,,,,,,,,,,
"[""comma""]",0,[0.38468999999167863],5,0,5,0,1,60bbb94b1a0f3a4a5fd8cb75,Mężczyzna,26,2021-07-13_21h57.40.534,rantool2,2021.1.4,Win32,59.97001499,60bbb94b1a0f3a4a5fd8cb75,60d9d14f4a8a35a482e0d9bf,60edead384545ffd229b9d66,,,,,,,,,,,,
"[""period""]",0,[0.048494999995455146],6,0,6,0,1,60bbb94b1a0f3a4a5fd8cb75,Mężczyzna,26,2021-07-13_21h57.40.534,rantool2,2021.1.4,Win32,59.97001499,60bbb94b1a0f3a4a5fd8cb75,60d9d14f4a8a35a482e0d9bf,60edead384545ffd229b9d66,,,,,,,,,,,,
"[""comma""]",0,[0.3090700000029756],7,0,7,0,1,60bbb94b1a0f3a4a5fd8cb75,Mężczyzna,26,2021-07-13_21h57.40.534,rantool2,2021.1.4,Win32,59.97001499,60bbb94b1a0f3a4a5fd8cb75,60d9d14f4a8a35a482e0d9bf,60edead384545ffd229b9d66,,,,,,,,,,,,
"[""period""]",0,[0.10048000000824686],8,0,8,0,1,60bbb94b1a0f3a4a5fd8cb75,Mężczyzna,26,2021-07-13_21h57.40.534,rantool2,2021.1.4,Win32,59.97001499,60bbb94b1a0f3a4a5fd8cb75,60d9d14f4a8a35a482e0d9bf,60edead384545ffd229b9d66,,,,,,,,,,,,
"[""comma""]",0,[0.16778000000340398],9,0,9,0,1,60bbb94b1a0f3a4a5fd8cb75,Mężczyzna,26,2021-07-13_21h57.40.534,rantool2,2021.1.4,Win32,59.97001499,60bbb94b1a0f3a4a5fd8cb75,60d9d14f4a8a35a482e0d9bf,60edead384545ffd229b9d66,,,,,,,,,,,,
"[""period""]",0,[0.06812999999965541],10,0,10,0,1,60bbb94b1a0f3a4a5fd8cb75,Mężczyzna,26,2021-07-13_21h57.40.534,rantool2,2021.1.4,Win32,59.97001499,60bbb94b1a0f3a4a5fd8cb75,60d9d14f4a8a35a482e0d9bf,60edead384545ffd229b9d66,,,,,,,,,,,,
"[""period"",""period""]",0,"[0.007419999994453974,1.8472099999926286]",11,0,11,0,1,60bbb94b1a0f3a4a5fd8cb75,Mężczyzna,26,2021-07-13_21h57.40.534,rantool2,2021.1.4,Win32,59.97001499,60bbb94b1a0f3a4a5fd8cb75,60d9d14f4a8a35a482e0d9bf,60edead384545ffd229b9d66,,,,,,,,,,,,
0,0,,12,0,12,0,1,60bbb94b1a0f3a4a5fd8cb75,Mężczyzna,26,2021-07-13_21h57.40.534,rantool2,2021.1.4,Win32,59.97001499,60bbb94b1a0f3a4a5fd8cb75,60d9d14f4a8a35a482e0d9bf,60edead384545ffd229b9d66,,,,,,,,,,,,
"[""comma"",""period""]",0,"[0.23969499999657273,1.9677949999895645]",13,0,13,0,1,60bbb94b1a0f3a4a5fd8cb75,Mężczyzna,26,2021-07-13_21h57.40.534,rantool2,2021.1.4,Win32,59.97001499,60bbb94b1a0f3a4a5fd8cb75,60d9d14f4a8a35a482e0d9bf,60edead384545ffd229b9d66,,,,,,,,,,,,
0,0,,14,0,14,0,1,60bbb94b1a0f3a4a5fd8cb75,Mężczyzna,26,2021-07-13_21h57.40.534,rantool2,2021.1.4,Win32,59.97001499,60bbb94b1a0f3a4a5fd8cb75,60d9d14f4a8a35a482e0d9bf,60edead384545ffd229b9d66,,,,,,,,,,,,
"[""comma""]",0,[0.2677200000034645],15,0,15,0,1,60bbb94b1a0f3a4a5fd8cb75,Mężczyzna,26,2021-07-13_21h57.40.534,rantool2,2021.1.4,Win32,59.97001499,60bbb94b1a0f3a4a5fd8cb75,60d9d14f4a8a35a482e0d9bf,60edead384545ffd229b9d66,,,,,,,,,,,,
"[""comma""]",0,[0.35033000000112224],16,0,16,0,1,60bbb94b1a0f3a4a5fd8cb75,Mężczyzna,26,2021-07-13_21h57.40.534,rantool2,2021.1.4,Win32,59.97001499,60bbb94b1a0f3a4a5fd8cb75,60d9d14f4a8a35a482e0d9bf,60edead384545ffd229b9d66,,,,,,,,,,,,
"[""comma""]",0,[0.2176000000035856],17,0,17,0,1,60bbb94b1a0f3a4a5fd8cb75,Mężczyzna,26,2021-07-13_21h57.40.534,rantool2,2021.1.4,Win32,59.97001499,60bbb94b1a0f3a4a5fd8cb75,60d9d14f4a8a35a482e0d9bf,60edead384545ffd229b9d66,,,,,,,,,,,,
"[""period"",""comma""]",0,"[0.16754500000388362,1.926965000006021]",18,0,18,0,1,60bbb94b1a0f3a4a5fd8cb75,Mężczyzna,26,2021-07-13_21h57.40.534,rantool2,2021.1.4,Win32,59.97001499,60bbb94b1a0f3a4a5fd8cb75,60d9d14f4a8a35a482e0d9bf,60edead384545ffd229b9d66,,,,,,,,,,,,
"[""period""]",0,[1.740140000008978],19,0,19,0,1,60bbb94b1a0f3a4a5fd8cb75,Mężczyzna,26,2021-07-13_21h57.40.534,rantool2,2021.1.4,Win32,59.97001499,60bbb94b1a0f3a4a5fd8cb75,60d9d14f4a8a35a482e0d9bf,60edead384545ffd229b9d66,,,,,,,,,,,,
0,0,,20,0,20,0,1,60bbb94b1a0f3a4a5fd8cb75,Mężczyzna,26,2021-07-13_21h57.40.534,rantool2,2021.1.4,Win32,59.97001499,60bbb94b1a0f3a4a5fd8cb75,60d9d14f4a8a35a482e0d9bf,60edead384545ffd229b9d66,,,,,,,,,,,,
"[""comma""]",0,[0.28403499998967163],21,0,21,0,1,60bbb94b1a0f3a4a5fd8cb75,Mężczyzna,26,2021-07-13_21h57.40.534,rantool2,2021.1.4,Win32,59.97001499,60bbb94b1a0f3a4a5fd8cb75,60d9d14f4a8a35a482e0d9bf,60edead384545ffd229b9d66,,,,,,,,,,,,
"[""period""]",0,[0.28448499999649357],22,0,22,0,1,60bbb94b1a0f3a4a5fd8cb75,Mężczyzna,26,2021-07-13_21h57.40.534,rantool2,2021.1.4,Win32,59.97001499,60bbb94b1a0f3a4a5fd8cb75,60d9d14f4a8a35a482e0d9bf,60edead384545ffd229b9d66,,,,,,,,,,,,
"[""comma""]",0,[0.26967499998863786],23,0,23,0,1,60bbb94b1a0f3a4a5fd8cb75,Mężczyzna,26,2021-07-13_21h57.40.534,rantool2,2021.1.4,Win32,59.97001499,60bbb94b1a0f3a4a5fd8cb75,60d9d14f4a8a35a482e0d9bf,60edead384545ffd229b9d66,,,,,,,,,,,,
"[""period""]",0,[0.29760499999974854],24,0,24,0,1,60bbb94b1a0f3a4a5fd8cb75,Mężczyzna,26,2021-07-13_21h57.40.534,rantool2,2021.1.4,Win32,59.97001499,60bbb94b1a0f3a4a5fd8cb75,60d9d14f4a8a35a482e0d9bf,60edead384545ffd229b9d66,,,,,,,,,,,,
"[""comma""]",0,[0.23010499999509193],25,0,25,0,1,60bbb94b1a0f3a4a5fd8cb75,Mężczyzna,26,2021-07-13_21h57.40.534,rantool2,2021.1.4,Win32,59.97001499,60bbb94b1a0f3a4a5fd8cb75,60d9d14f4a8a35a482e0d9bf,60edead384545ffd229b9d66,,,,,,,,,,,,
"[""period""]",0,[0.19430999999167398],26,0,26,0,1,60bbb94b1a0f3a4a5fd8cb75,Mężczyzna,26,2021-07-13_21h57.40.534,rantool2,2021.1.4,Win32,59.97001499,60bbb94b1a0f3a4a5fd8cb75,60d9d14f4a8a35a482e0d9bf,60edead384545ffd229b9d66,,,,,,,,,,,,
"[""period"",""comma""]",0,"[0.1846300000033807,1.9679199999955017]",27,0,27,0,1,60bbb94b1a0f3a4a5fd8cb75,Mężczyzna,26,2021-07-13_21h57.40.534,rantool2,2021.1.4,Win32,59.97001499,60bbb94b1a0f3a4a5fd8cb75,60d9d14f4a8a35a482e0d9bf,60edead384545ffd229b9d66,,,,,,,,,,,,
"[""period""]",0,[1.9027399999904446],28,0,28,0,1,60bbb94b1a0f3a4a5fd8cb75,Mężczyzna,26,2021-07-13_21h57.40.534,rantool2,2021.1.4,Win32,59.97001499,60bbb94b1a0f3a4a5fd8cb75,60d9d14f4a8a35a482e0d9bf,60edead384545ffd229b9d66,,,,,,,,,,,,
0,0,,29,0,29,0,1,60bbb94b1a0f3a4a5fd8cb75,Mężczyzna,26,2021-07-13_21h57.40.534,rantool2,2021.1.4,Win32,59.97001499,60bbb94b1a0f3a4a5fd8cb75,60d9d14f4a8a35a482e0d9bf,60edead384545ffd229b9d66,,,,,,,,,,,,
"[""comma""]",0,[0.4346349999977974],30,0,30,0,1,60bbb94b1a0f3a4a5fd8cb75,Mężczyzna,26,2021-07-13_21h57.40.534,rantool2,2021.1.4,Win32,59.97001499,60bbb94b1a0f3a4a5fd8cb75,60d9d14f4a8a35a482e0d9bf,60edead384545ffd229b9d66,,,,,,,,,,,,
"[""comma""]",0,[0.4494949999934761],31,0,31,0,1,60bbb94b1a0f3a4a5fd8cb75,Mężczyzna,26,2021-07-13_21h57.40.534,rantool2,2021.1.4,Win32,59.97001499,60bbb94b1a0f3a4a5fd8cb75,60d9d14f4a8a35a482e0d9bf,60edead384545ffd229b9d66,,,,,,,,,,,,
"[""period""]",0,[0.46994500000437256],32,0,32,0,1,60bbb94b1a0f3a4a5fd8cb75,Mężczyzna,26,2021-07-13_21h57.40.534,rantool2,2021.1.4,Win32,59.97001499,60bbb94b1a0f3a4a5fd8cb75,60d9d14f4a8a35a482e0d9bf,60edead384545ffd229b9d66,,,,,,,,,,,,
"[""comma""]",0,[0.09846500000276137],33,0,33,0,1,60bbb94b1a0f3a4a5fd8cb75,Mężczyzna,26,2021-07-13_21h57.40.534,rantool2,2021.1.4,Win32,59.97001499,60bbb94b1a0f3a4a5fd8cb75,60d9d14f4a8a35a482e0d9bf,60edead384545ffd229b9d66,,,,,,,,,,,,
"[""period""]",0,[0.05100999999558553],34,0,34,0,1,60bbb94b1a0f3a4a5fd8cb75,Mężczyzna,26,2021-07-13_21h57.40.534,rantool2,2021.1.4,Win32,59.97001499,60bbb94b1a0f3a4a5fd8cb75,60d9d14f4a8a35a482e0d9bf,60edead384545ffd229b9d66,,,,,,,,,,,,
"[""period""]",0,[0.4107150000054389],35,0,35,0,1,60bbb94b1a0f3a4a5fd8cb75,Mężczyzna,26,2021-07-13_21h57.40.534,rantool2,2021.1.4,Win32,59.97001499,60bbb94b1a0f3a4a5fd8cb75,60d9d14f4a8a35a482e0d9bf,60edead384545ffd229b9d66,,,,,,,,,,,,
"[""comma""]",0,[0.2844899999909103],36,0,36,0,1,60bbb94b1a0f3a4a5fd8cb75,Mężczyzna,26,2021-07-13_21h57.40.534,rantool2,2021.1.4,Win32,59.97001499,60bbb94b1a0f3a4a5fd8cb75,60d9d14f4a8a35a482e0d9bf,60edead384545ffd229b9d66,,,,,,,,,,,,
"[""period""]",0,[0.034459999995306134],37,0,37,0,1,60bbb94b1a0f3a4a5fd8cb75,Mężczyzna,26,2021-07-13_21h57.40.534,rantool2,2021.1.4,Win32,59.97001499,60bbb94b1a0f3a4a5fd8cb75,60d9d14f4a8a35a482e0d9bf,60edead384545ffd229b9d66,,,,,,,,,,,,
"[""comma""]",0,[0.10082500000135042],38,0,38,0,1,60bbb94b1a0f3a4a5fd8cb75,Mężczyzna,26,2021-07-13_21h57.40.534,rantool2,2021.1.4,Win32,59.97001499,60bbb94b1a0f3a4a5fd8cb75,60d9d14f4a8a35a482e0d9bf,60edead384545ffd229b9d66,,,,,,,,,,,,
"[""period""]",0,[0.28549999999813735],39,0,39,0,1,60bbb94b1a0f3a4a5fd8cb75,Mężczyzna,26,2021-07-13_21h57.40.534,rantool2,2021.1.4,Win32,59.97001499,60bbb94b1a0f3a4a5fd8cb75,60d9d14f4a8a35a482e0d9bf,60edead384545ffd229b9d66,,,,,,,,,,,,
"[""comma""]",0,[0.9707399999897461],40,0,40,0,1,60bbb94b1a0f3a4a5fd8cb75,Mężczyzna,26,2021-07-13_21h57.40.534,rantool2,2021.1.4,Win32,59.97001499,60bbb94b1a0f3a4a5fd8cb75,60d9d14f4a8a35a482e0d9bf,60edead384545ffd229b9d66,,,,,,,,,,,,
"[""comma""]",0,[0.4018249999935506],41,0,41,0,1,60bbb94b1a0f3a4a5fd8cb75,Mężczyzna,26,2021-07-13_21h57.40.534,rantool2,2021.1.4,Win32,59.97001499,60bbb94b1a0f3a4a5fd8cb75,60d9d14f4a8a35a482e0d9bf,60edead384545ffd229b9d66,,,,,,,,,,,,
"[""comma""]",0,[0.2012150000082329],42,0,42,0,1,60bbb94b1a0f3a4a5fd8cb75,Mężczyzna,26,2021-07-13_21h57.40.534,rantool2,2021.1.4,Win32,59.97001499,60bbb94b1a0f3a4a5fd8cb75,60d9d14f4a8a35a482e0d9bf,60edead384545ffd229b9d66,,,,,,,,,,,,
"[""period""]",0,[0.1513649999978952],43,0,43,0,1,60bbb94b1a0f3a4a5fd8cb75,Mężczyzna,26,2021-07-13_21h57.40.534,rantool2,2021.1.4,Win32,59.97001499,60bbb94b1a0f3a4a5fd8cb75,60d9d14f4a8a35a482e0d9bf,60edead384545ffd229b9d66,,,,,,,,,,,,
"[""period"",""comma""]",0,"[0.8022950000013225,1.851715000011609]",44,0,44,0,1,60bbb94b1a0f3a4a5fd8cb75,Mężczyzna,26,2021-07-13_21h57.40.534,rantool2,2021.1.4,Win32,59.97001499,60bbb94b1a0f3a4a5fd8cb75,60d9d14f4a8a35a482e0d9bf,60edead384545ffd229b9d66,,,,,,,,,,,,
0,0,,45,0,45,0,1,60bbb94b1a0f3a4a5fd8cb75,Mężczyzna,26,2021-07-13_21h57.40.534,rantool2,2021.1.4,Win32,59.97001499,60bbb94b1a0f3a4a5fd8cb75,60d9d14f4a8a35a482e0d9bf,60edead384545ffd229b9d66,,,,,,,,,,,,
"[""period""]",0,[0.4288200000009965],46,0,46,0,1,60bbb94b1a0f3a4a5fd8cb75,Mężczyzna,26,2021-07-13_21h57.40.534,rantool2,2021.1.4,Win32,59.97001499,60bbb94b1a0f3a4a5fd8cb75,60d9d14f4a8a35a482e0d9bf,60edead384545ffd229b9d66,,,,,,,,,,,,
"[""comma""]",0,[0.5854749999998603],47,0,47,0,1,60bbb94b1a0f3a4a5fd8cb75,Mężczyzna,26,2021-07-13_21h57.40.534,rantool2,2021.1.4,Win32,59.97001499,60bbb94b1a0f3a4a5fd8cb75,60d9d14f4a8a35a482e0d9bf,60edead384545ffd229b9d66,,,,,,,,,,,,
"[""period""]",0,[0.3576900000043679],48,0,48,0,1,60bbb94b1a0f3a4a5fd8cb75,Mężczyzna,26,2021-07-13_21h57.40.534,rantool2,2021.1.4,Win32,59.97001499,60bbb94b1a0f3a4a5fd8cb75,60d9d14f4a8a35a482e0d9bf,60edead384545ffd229b9d66,,,,,,,,,,,,
"[""comma""]",0,[0.2825099999899976],49,0,49,0,1,60bbb94b1a0f3a4a5fd8cb75,Mężczyzna,26,2021-07-13_21h57.40.534,rantool2,2021.1.4,Win32,59.97001499,60bbb94b1a0f3a4a5fd8cb75,60d9d14f4a8a35a482e0d9bf,60edead384545ffd229b9d66,,,,,,,,,,,,
"[""period""]",0,[0.21513500000583008],50,0,50,0,1,60bbb94b1a0f3a4a5fd8cb75,Mężczyzna,26,2021-07-13_21h57.40.534,rantool2,2021.1.4,Win32,59.97001499,60bbb94b1a0f3a4a5fd8cb75,60d9d14f4a8a35a482e0d9bf,60edead384545ffd229b9d66,,,,,,,,,,,,
"[""comma""]",0,[0.33937000000150874],51,0,51,0,1,60bbb94b1a0f3a4a5fd8cb75,Mężczyzna,26,2021-07-13_21h57.40.534,rantool2,2021.1.4,Win32,59.97001499,60bbb94b1a0f3a4a5fd8cb75,60d9d14f4a8a35a482e0d9bf,60edead384545ffd229b9d66,,,,,,,,,,,,
"[""period""]",0,[0.36817500001052395],52,0,52,0,1,60bbb94b1a0f3a4a5fd8cb75,Mężczyzna,26,2021-07-13_21h57.40.534,rantool2,2021.1.4,Win32,59.97001499,60bbb94b1a0f3a4a5fd8cb75,60d9d14f4a8a35a482e0d9bf,60edead384545ffd229b9d66,,,,,,,,,,,,
"[""comma""]",0,[0.32391500000085216],53,0,53,0,1,60bbb94b1a0f3a4a5fd8cb75,Mężczyzna,26,2021-07-13_21h57.40.534,rantool2,2021.1.4,Win32,59.97001499,60bbb94b1a0f3a4a5fd8cb75,60d9d14f4a8a35a482e0d9bf,60edead384545ffd229b9d66,,,,,,,,,,,,
"[""period""]",0,[0.28096499999810476],54,0,54,0,1,60bbb94b1a0f3a4a5fd8cb75,Mężczyzna,26,2021-07-13_21h57.40.534,rantool2,2021.1.4,Win32,59.97001499,60bbb94b1a0f3a4a5fd8cb75,60d9d14f4a8a35a482e0d9bf,60edead384545ffd229b9d66,,,,,,,,,,,,
"[""comma""]",0,[0.26979999999457505],55,0,55,0,1,60bbb94b1a0f3a4a5fd8cb75,Mężczyzna,26,2021-07-13_21h57.40.534,rantool2,2021.1.4,Win32,59.97001499,60bbb94b1a0f3a4a5fd8cb75,60d9d14f4a8a35a482e0d9bf,60edead384545ffd229b9d66,,,,,,,,,,,,
"[""period""]",0,[0.08965500000340398],56,0,56,0,1,60bbb94b1a0f3a4a5fd8cb75,Mężczyzna,26,2021-07-13_21h57.40.534,rantool2,2021.1.4,Win32,59.97001499,60bbb94b1a0f3a4a5fd8cb75,60d9d14f4a8a35a482e0d9bf,60edead384545ffd229b9d66,,,,,,,,,,,,
"[""comma"",""period""]",0,"[0.27820999998948537,1.8212249999924097]",57,0,57,0,1,60bbb94b1a0f3a4a5fd8cb75,Mężczyzna,26,2021-07-13_21h57.40.534,rantool2,2021.1.4,Win32,59.97001499,60bbb94b1a0f3a4a5fd8cb75,60d9d14f4a8a35a482e0d9bf,60edead384545ffd229b9d66,,,,,,,,,,,,
0,0,,58,0,58,0,1,60bbb94b1a0f3a4a5fd8cb75,Mężczyzna,26,2021-07-13_21h57.40.534,rantool2,2021.1.4,Win32,59.97001499,60bbb94b1a0f3a4a5fd8cb75,60d9d14f4a8a35a482e0d9bf,60edead384545ffd229b9d66,,,,,,,,,,,,
"[""comma""]",0,[0.3274399999936577],59,0,59,0,1,60bbb94b1a0f3a4a5fd8cb75,Mężczyzna,26,2021-07-13_21h57.40.534,rantool2,2021.1.4,Win32,59.97001499,60bbb94b1a0f3a4a5fd8cb75,60d9d14f4a8a35a482e0d9bf,60edead384545ffd229b9d66,,,,,,,,,,,,
"[""period""]",0,[0.32404500000120606],60,0,60,0,1,60bbb94b1a0f3a4a5fd8cb75,Mężczyzna,26,2021-07-13_21h57.40.534,rantool2,2021.1.4,Win32,59.97001499,60bbb94b1a0f3a4a5fd8cb75,60d9d14f4a8a35a482e0d9bf,60edead384545ffd229b9d66,,,,,,,,,,,,
"[""comma""]",0,[0.3040949999995064],61,0,61,0,1,60bbb94b1a0f3a4a5fd8cb75,Mężczyzna,26,2021-07-13_21h57.40.534,rantool2,2021.1.4,Win32,59.97001499,60bbb94b1a0f3a4a5fd8cb75,60d9d14f4a8a35a482e0d9bf,60edead384545ffd229b9d66,,,,,,,,,,,,
"[""period""]",0,[0.2452049999992596],62,0,62,0,1,60bbb94b1a0f3a4a5fd8cb75,Mężczyzna,26,2021-07-13_21h57.40.534,rantool2,2021.1.4,Win32,59.97001499,60bbb94b1a0f3a4a5fd8cb75,60d9d14f4a8a35a482e0d9bf,60edead384545ffd229b9d66,,,,,,,,,,,,
"[""comma""]",0,[0.16978999999992084],63,0,63,0,1,60bbb94b1a0f3a4a5fd8cb75,Mężczyzna,26,2021-07-13_21h57.40.534,rantool2,2021.1.4,Win32,59.97001499,60bbb94b1a0f3a4a5fd8cb75,60d9d14f4a8a35a482e0d9bf,60edead384545ffd229b9d66,,,,,,,,,,,,
"[""period""]",0,[0.2178950000088662],64,0,64,0,1,60bbb94b1a0f3a4a5fd8cb75,Mężczyzna,26,2021-07-13_21h57.40.534,rantool2,2021.1.4,Win32,59.97001499,60bbb94b1a0f3a4a5fd8cb75,60d9d14f4a8a35a482e0d9bf,60edead384545ffd229b9d66,,,,,,,,,,,,
"[""comma""]",0,[0.2677949999924749],65,0,65,0,1,60bbb94b1a0f3a4a5fd8cb75,Mężczyzna,26,2021-07-13_21h57.40.534,rantool2,2021.1.4,Win32,59.97001499,60bbb94b1a0f3a4a5fd8cb75,60d9d14f4a8a35a482e0d9bf,60edead384545ffd229b9d66,,,,,,,,,,,,
"[""period""]",0,[0.18445000000065193],66,0,66,0,1,60bbb94b1a0f3a4a5fd8cb75,Mężczyzna,26,2021-07-13_21h57.40.534,rantool2,2021.1.4,Win32,59.97001499,60bbb94b1a0f3a4a5fd8cb75,60d9d14f4a8a35a482e0d9bf,60edead384545ffd229b9d66,,,,,,,,,,,,
"[""comma"",""period""]",0,"[0.13169500000367407,1.7957900000037625]",67,0,67,0,1,60bbb94b1a0f3a4a5fd8cb75,Mężczyzna,26,2021-07-13_21h57.40.534,rantool2,2021.1.4,Win32,59.97001499,60bbb94b1a0f3a4a5fd8cb75,60d9d14f4a8a35a482e0d9bf,60edead384545ffd229b9d66,,,,,,,,,,,,
0,0,,68,0,68,0,1,60bbb94b1a0f3a4a5fd8cb75,Mężczyzna,26,2021-07-13_21h57.40.534,rantool2,2021.1.4,Win32,59.97001499,60bbb94b1a0f3a4a5fd8cb75,60d9d14f4a8a35a482e0d9bf,60edead384545ffd229b9d66,,,,,,,,,,,,
"[""comma""]",0,[0.26037499999802094],69,0,69,0,1,60bbb94b1a0f3a4a5fd8cb75,Mężczyzna,26,2021-07-13_21h57.40.534,rantool2,2021.1.4,Win32,59.97001499,60bbb94b1a0f3a4a5fd8cb75,60d9d14f4a8a35a482e0d9bf,60edead384545ffd229b9d66,,,,,,,,,,,,
"[""period""]",0,[0.23284499999135733],70,0,70,0,1,60bbb94b1a0f3a4a5fd8cb75,Mężczyzna,26,2021-07-13_21h57.40.534,rantool2,2021.1.4,Win32,59.97001499,60bbb94b1a0f3a4a5fd8cb75,60d9d14f4a8a35a482e0d9bf,60edead384545ffd229b9d66,,,,,,,,,,,,
"[""comma""]",0,[0.19015500000386965],71,0,71,0,1,60bbb94b1a0f3a4a5fd8cb75,Mężczyzna,26,2021-07-13_21h57.40.534,rantool2,2021.1.4,Win32,59.97001499,60bbb94b1a0f3a4a5fd8cb75,60d9d14f4a8a35a482e0d9bf,60edead384545ffd229b9d66,,,,,,,,,,,,
"[""period""]",0,[0.31776499999978114],72,0,72,0,1,60bbb94b1a0f3a4a5fd8cb75,Mężczyzna,26,2021-07-13_21h57.40.534,rantool2,2021.1.4,Win32,59.97001499,60bbb94b1a0f3a4a5fd8cb75,60d9d14f4a8a35a482e0d9bf,60edead384545ffd229b9d66,,,,,,,,,,,,
"[""comma""]",0,[0.2711200000048848],73,0,73,0,1,60bbb94b1a0f3a4a5fd8cb75,Mężczyzna,26,2021-07-13_21h57.40.534,rantool2,2021.1.4,Win32,59.97001499,60bbb94b1a0f3a4a5fd8cb75,60d9d14f4a8a35a482e0d9bf,60edead384545ffd229b9d66,,,,,,,,,,,,
"[""period""]",0,[0.2682149999891408],74,0,74,0,1,60bbb94b1a0f3a4a5fd8cb75,Mężczyzna,26,2021-07-13_21h57.40.534,rantool2,2021.1.4,Win32,59.97001499,60bbb94b1a0f3a4a5fd8cb75,60d9d14f4a8a35a482e0d9bf,60edead384545ffd229b9d66,,,,,,,,,,,,
"[""comma""]",0,[0.21584000000439119],75,0,75,0,1,60bbb94b1a0f3a4a5fd8cb75,Mężczyzna,26,2021-07-13_21h57.40.534,rantool2,2021.1.4,Win32,59.97001499,60bbb94b1a0f3a4a5fd8cb75,60d9d14f4a8a35a482e0d9bf,60edead384545ffd229b9d66,,,,,,,,,,,,
"[""period""]",0,[0.22049500000139233],76,0,76,0,1,60bbb94b1a0f3a4a5fd8cb75,Mężczyzna,26,2021-07-13_21h57.40.534,rantool2,2021.1.4,Win32,59.97001499,60bbb94b1a0f3a4a5fd8cb75,60d9d14f4a8a35a482e0d9bf,60edead384545ffd229b9d66,,,,,,,,,,,,
"[""comma""]",0,[0.2846750000026077],77,0,77,0,1,60bbb94b1a0f3a4a5fd8cb75,Mężczyzna,26,2021-07-13_21h57.40.534,rantool2,2021.1.4,Win32,59.97001499,60bbb94b1a0f3a4a5fd8cb75,60d9d14f4a8a35a482e0d9bf,60edead384545ffd229b9d66,,,,,,,,,,,,
"[""period""]",0,[0.22084500000346452],78,0,78,0,1,60bbb94b1a0f3a4a5fd8cb75,Mężczyzna,26,2021-07-13_21h57.40.534,rantool2,2021.1.4,Win32,59.97001499,60bbb94b1a0f3a4a5fd8cb75,60d9d14f4a8a35a482e0d9bf,60edead384545ffd229b9d66,,,,,,,,,,,,
"[""comma""]",0,[0.35118000001239125],79,0,79,0,1,60bbb94b1a0f3a4a5fd8cb75,Mężczyzna,26,2021-07-13_21h57.40.534,rantool2,2021.1.4,Win32,59.97001499,60bbb94b1a0f3a4a5fd8cb75,60d9d14f4a8a35a482e0d9bf,60edead384545ffd229b9d66,,,,,,,,,,,,
"[""period""]",0,[0.351875000007567],80,0,80,0,1,60bbb94b1a0f3a4a5fd8cb75,Mężczyzna,26,2021-07-13_21h57.40.534,rantool2,2021.1.4,Win32,59.97001499,60bbb94b1a0f3a4a5fd8cb75,60d9d14f4a8a35a482e0d9bf,60edead384545ffd229b9d66,,,,,,,,,,,,
"[""comma"",""period""]",0,"[0.41810500000428874,1.6190449999994598]",81,0,81,0,1,60bbb94b1a0f3a4a5fd8cb75,Mężczyzna,26,2021-07-13_21h57.40.534,rantool2,2021.1.4,Win32,59.97001499,60bbb94b1a0f3a4a5fd8cb75,60d9d14f4a8a35a482e0d9bf,60edead384545ffd229b9d66,,,,,,,,,,,,
0,0,,82,0,82,0,1,60bbb94b1a0f3a4a5fd8cb75,Mężczyzna,26,2021-07-13_21h57.40.534,rantool2,2021.1.4,Win32,59.97001499,60bbb94b1a0f3a4a5fd8cb75,60d9d14f4a8a35a482e0d9bf,60edead384545ffd229b9d66,,,,,,,,,,,,
"[""comma""]",0,[0.34725000000617],83,0,83,0,1,60bbb94b1a0f3a4a5fd8cb75,Mężczyzna,26,2021-07-13_21h57.40.534,rantool2,2021.1.4,Win32,59.97001499,60bbb94b1a0f3a4a5fd8cb75,60d9d14f4a8a35a482e0d9bf,60edead384545ffd229b9d66,,,,,,,,,,,,
"[""period""]",0,[0.23454499999934342],84,0,84,0,1,60bbb94b1a0f3a4a5fd8cb75,Mężczyzna,26,2021-07-13_21h57.40.534,rantool2,2021.1.4,Win32,59.97001499,60bbb94b1a0f3a4a5fd8cb75,60d9d14f4a8a35a482e0d9bf,60edead384545ffd229b9d66,,,,,,,,,,,,
"[""comma""]",0,[0.317815000002156],85,0,85,0,1,60bbb94b1a0f3a4a5fd8cb75,Mężczyzna,26,2021-07-13_21h57.40.534,rantool2,2021.1.4,Win32,59.97001499,60bbb94b1a0f3a4a5fd8cb75,60d9d14f4a8a35a482e0d9bf,60edead384545ffd229b9d66,,,,,,,,,,,,
"[""period"",""comma""]",0,"[0.2412049999984447,1.9455650000018068]",86,0,86,0,1,60bbb94b1a0f3a4a5fd8cb75,Mężczyzna,26,2021-07-13_21h57.40.534,rantool2,2021.1.4,Win32,59.97001499,60bbb94b1a0f3a4a5fd8cb75,60d9d14f4a8a35a482e0d9bf,60edead384545ffd229b9d66,,,,,,,,,,,,
"[""period""]",0,[1.91686500000651],87,0,87,0,1,60bbb94b1a0f3a4a5fd8cb75,Mężczyzna,26,2021-07-13_21h57.40.534,rantool2,2021.1.4,Win32,59.97001499,60bbb94b1a0f3a4a5fd8cb75,60d9d14f4a8a35a482e0d9bf,60edead384545ffd229b9d66,,,,,,,,,,,,
"[""comma""]",0,[1.8543100000097184],88,0,88,0,1,60bbb94b1a0f3a4a5fd8cb75,Mężczyzna,26,2021-07-13_21h57.40.534,rantool2,2021.1.4,Win32,59.97001499,60bbb94b1a0f3a4a5fd8cb75,60d9d14f4a8a35a482e0d9bf,60edead384545ffd229b9d66,,,,,,,,,,,,
"[""period""]",0,[1.8069300000061048],89,0,89,0,1,60bbb94b1a0f3a4a5fd8cb75,Mężczyzna,26,2021-07-13_21h57.40.534,rantool2,2021.1.4,Win32,59.97001499,60bbb94b1a0f3a4a5fd8cb75,60d9d14f4a8a35a482e0d9bf,60edead384545ffd229b9d66,,,,,,,,,,,,
0,0,,90,0,90,0,1,60bbb94b1a0f3a4a5fd8cb75,Mężczyzna,26,2021-07-13_21h57.40.534,rantool2,2021.1.4,Win32,59.97001499,60bbb94b1a0f3a4a5fd8cb75,60d9d14f4a8a35a482e0d9bf,60edead384545ffd229b9d66,,,,,,,,,,,,
"[""comma""]",0,[0.21759499999461696],91,0,91,0,1,60bbb94b1a0f3a4a5fd8cb75,Mężczyzna,26,2021-07-13_21h57.40.534,rantool2,2021.1.4,Win32,59.97001499,60bbb94b1a0f3a4a5fd8cb75,60d9d14f4a8a35a482e0d9bf,60edead384545ffd229b9d66,,,,,,,,,,,,
"[""period""]",0,[0.3846050000138348],92,0,92,0,1,60bbb94b1a0f3a4a5fd8cb75,Mężczyzna,26,2021-07-13_21h57.40.534,rantool2,2021.1.4,Win32,59.97001499,60bbb94b1a0f3a4a5fd8cb75,60d9d14f4a8a35a482e0d9bf,60edead384545ffd229b9d66,,,,,,,,,,,,
"[""comma""]",0,[0.23430999999982305],93,0,93,0,1,60bbb94b1a0f3a4a5fd8cb75,Mężczyzna,26,2021-07-13_21h57.40.534,rantool2,2021.1.4,Win32,59.97001499,60bbb94b1a0f3a4a5fd8cb75,60d9d14f4a8a35a482e0d9bf,60edead384545ffd229b9d66,,,,,,,,,,,,
"[""period""]",0,[0.16746000001148786],94,0,94,0,1,60bbb94b1a0f3a4a5fd8cb75,Mężczyzna,26,2021-07-13_21h57.40.534,rantool2,2021.1.4,Win32,59.97001499,60bbb94b1a0f3a4a5fd8cb75,60d9d14f4a8a35a482e0d9bf,60edead384545ffd229b9d66,,,,,,,,,,,,
"[""comma""]",0,[0.3347749999957159],95,0,95,0,1,60bbb94b1a0f3a4a5fd8cb75,Mężczyzna,26,2021-07-13_21h57.40.534,rantool2,2021.1.4,Win32,59.97001499,60bbb94b1a0f3a4a5fd8cb75,60d9d14f4a8a35a482e0d9bf,60edead384545ffd229b9d66,,,,,,,,,,,,
"[""period""]",0,[0.3190949999989243],96,0,96,0,1,60bbb94b1a0f3a4a5fd8cb75,Mężczyzna,26,2021-07-13_21h57.40.534,rantool2,2021.1.4,Win32,59.97001499,60bbb94b1a0f3a4a5fd8cb75,60d9d14f4a8a35a482e0d9bf,60edead384545ffd229b9d66,,,,,,,,,,,,
"[""comma""]",0,[0.28435000000172295],97,0,97,0,1,60bbb94b1a0f3a4a5fd8cb75,Mężczyzna,26,2021-07-13_21h57.40.534,rantool2,2021.1.4,Win32,59.97001499,60bbb94b1a0f3a4a5fd8cb75,60d9d14f4a8a35a482e0d9bf,60edead384545ffd229b9d66,,,,,,,,,,,,
"[""period""]",0,[0.2716749999963213],98,0,98,0,1,60bbb94b1a0f3a4a5fd8cb75,Mężczyzna,26,2021-07-13_21h57.40.534,rantool2,2021.1.4,Win32,59.97001499,60bbb94b1a0f3a4a5fd8cb75,60d9d14f4a8a35a482e0d9bf,60edead384545ffd229b9d66,,,,,,,,,,,,
"[""comma""]",0,[0.4514999999955762],99,0,99,0,1,60bbb94b1a0f3a4a5fd8cb75,Mężczyzna,26,2021-07-13_21h57.40.534,rantool2,2021.1.4,Win32,59.97001499,60bbb94b1a0f3a4a5fd8cb75,60d9d14f4a8a35a482e0d9bf,60edead384545ffd229b9d66,,,,,,,,,,,,
"[""period""]",0,[0.29614500000025146],100,0,100,0,1,60bbb94b1a0f3a4a5fd8cb75,Mężczyzna,26,2021-07-13_21h57.40.534,rantool2,2021.1.4,Win32,59.97001499,60bbb94b1a0f3a4a5fd8cb75,60d9d14f4a8a35a482e0d9bf,60edead384545ffd229b9d66,,,,,,,,,,,,
"[""comma""]",0,[0.41840500000398606],101,0,101,0,1,60bbb94b1a0f3a4a5fd8cb75,Mężczyzna,26,2021-07-13_21h57.40.534,rantool2,2021.1.4,Win32,59.97001499,60bbb94b1a0f3a4a5fd8cb75,60d9d14f4a8a35a482e0d9bf,60edead384545ffd229b9d66,,,,,,,,,,,,
"[""period""]",0,[0.5055149999971036],102,0,102,0,1,60bbb94b1a0f3a4a5fd8cb75,Mężczyzna,26,2021-07-13_21h57.40.534,rantool2,2021.1.4,Win32,59.97001499,60bbb94b1a0f3a4a5fd8cb75,60d9d14f4a8a35a482e0d9bf,60edead384545ffd229b9d66,,,,,,,,,,,,
"[""comma""]",0,[0.3848500000021886],103,0,103,0,1,60bbb94b1a0f3a4a5fd8cb75,Mężczyzna,26,2021-07-13_21h57.40.534,rantool2,2021.1.4,Win32,59.97001499,60bbb94b1a0f3a4a5fd8cb75,60d9d14f4a8a35a482e0d9bf,60edead384545ffd229b9d66,,,,,,,,,,,,
"[""period""]",0,[0.29816000000573695],104,0,104,0,1,60bbb94b1a0f3a4a5fd8cb75,Mężczyzna,26,2021-07-13_21h57.40.534,rantool2,2021.1.4,Win32,59.97001499,60bbb94b1a0f3a4a5fd8cb75,60d9d14f4a8a35a482e0d9bf,60edead384545ffd229b9d66,,,,,,,,,,,,
"[""comma""]",0,[0.3681899999937741],105,0,105,0,1,60bbb94b1a0f3a4a5fd8cb75,Mężczyzna,26,2021-07-13_21h57.40.534,rantool2,2021.1.4,Win32,59.97001499,60bbb94b1a0f3a4a5fd8cb75,60d9d14f4a8a35a482e0d9bf,60edead384545ffd229b9d66,,,,,,,,,,,,
"[""period""]",0,[0.2679949999874225],106,0,106,0,1,60bbb94b1a0f3a4a5fd8cb75,Mężczyzna,26,2021-07-13_21h57.40.534,rantool2,2021.1.4,Win32,59.97001499,60bbb94b1a0f3a4a5fd8cb75,60d9d14f4a8a35a482e0d9bf,60edead384545ffd229b9d66,,,,,,,,,,,,
"[""comma""]",0,[0.3177600000053644],107,0,107,0,1,60bbb94b1a0f3a4a5fd8cb75,Mężczyzna,26,2021-07-13_21h57.40.534,rantool2,2021.1.4,Win32,59.97001499,60bbb94b1a0f3a4a5fd8cb75,60d9d14f4a8a35a482e0d9bf,60edead384545ffd229b9d66,,,,,,,,,,,,
"[""period""]",0,[0.3011699999915436],108,0,108,0,1,60bbb94b1a0f3a4a5fd8cb75,Mężczyzna,26,2021-07-13_21h57.40.534,rantool2,2021.1.4,Win32,59.97001499,60bbb94b1a0f3a4a5fd8cb75,60d9d14f4a8a35a482e0d9bf,60edead384545ffd229b9d66,,,,,,,,,,,,
"[""comma""]",0,[0.34496000000217464],109,0,109,0,1,60bbb94b1a0f3a4a5fd8cb75,Mężczyzna,26,2021-07-13_21h57.40.534,rantool2,2021.1.4,Win32,59.97001499,60bbb94b1a0f3a4a5fd8cb75,60d9d14f4a8a35a482e0d9bf,60edead384545ffd229b9d66,,,,,,,,,,,,
"[""period""]",0,[0.7022500000020955],110,0,110,0,1,60bbb94b1a0f3a4a5fd8cb75,Mężczyzna,26,2021-07-13_21h57.40.534,rantool2,2021.1.4,Win32,59.97001499,60bbb94b1a0f3a4a5fd8cb75,60d9d14f4a8a35a482e0d9bf,60edead384545ffd229b9d66,,,,,,,,,,,,
"[""comma""]",0,[0.48496000000159256],111,0,111,0,1,60bbb94b1a0f3a4a5fd8cb75,Mężczyzna,26,2021-07-13_21h57.40.534,rantool2,2021.1.4,Win32,59.97001499,60bbb94b1a0f3a4a5fd8cb75,60d9d14f4a8a35a482e0d9bf,60edead384545ffd229b9d66,,,,,,,,,,,,
"[""period""]",0,[0.2383599999884609],112,0,112,0,1,60bbb94b1a0f3a4a5fd8cb75,Mężczyzna,26,2021-07-13_21h57.40.534,rantool2,2021.1.4,Win32,59.97001499,60bbb94b1a0f3a4a5fd8cb75,60d9d14f4a8a35a482e0d9bf,60edead384545ffd229b9d66,,,,,,,,,,,,
"[""comma""]",0,[0.3148499999952037],113,0,113,0,1,60bbb94b1a0f3a4a5fd8cb75,Mężczyzna,26,2021-07-13_21h57.40.534,rantool2,2021.1.4,Win32,59.97001499,60bbb94b1a0f3a4a5fd8cb75,60d9d14f4a8a35a482e0d9bf,60edead384545ffd229b9d66,,,,,,,,,,,,
"[""period""]",0,[0.23106499999994412],114,0,114,0,1,60bbb94b1a0f3a4a5fd8cb75,Mężczyzna,26,2021-07-13_21h57.40.534,rantool2,2021.1.4,Win32,59.97001499,60bbb94b1a0f3a4a5fd8cb75,60d9d14f4a8a35a482e0d9bf,60edead384545ffd229b9d66,,,,,,,,,,,,
"[""comma""]",0,[0.31791499999235384],115,0,115,0,1,60bbb94b1a0f3a4a5fd8cb75,Mężczyzna,26,2021-07-13_21h57.40.534,rantool2,2021.1.4,Win32,59.97001499,60bbb94b1a0f3a4a5fd8cb75,60d9d14f4a8a35a482e0d9bf,60edead384545ffd229b9d66,,,,,,,,,,,,
"[""period""]",0,[0.3014450000046054],116,0,116,0,1,60bbb94b1a0f3a4a5fd8cb75,Mężczyzna,26,2021-07-13_21h57.40.534,rantool2,2021.1.4,Win32,59.97001499,60bbb94b1a0f3a4a5fd8cb75,60d9d14f4a8a35a482e0d9bf,60edead384545ffd229b9d66,,,,,,,,,,,,
"[""comma""]",0,[0.3015049999958137],117,0,117,0,1,60bbb94b1a0f3a4a5fd8cb75,Mężczyzna,26,2021-07-13_21h57.40.534,rantool2,2021.1.4,Win32,59.97001499,60bbb94b1a0f3a4a5fd8cb75,60d9d14f4a8a35a482e0d9bf,60edead384545ffd229b9d66,,,,,,,,,,,,
"[""period""]",0,[0.3293249999987893],118,0,118,0,1,60bbb94b1a0f3a4a5fd8cb75,Mężczyzna,26,2021-07-13_21h57.40.534,rantool2,2021.1.4,Win32,59.97001499,60bbb94b1a0f3a4a5fd8cb75,60d9d14f4a8a35a482e0d9bf,60edead384545ffd229b9d66,,,,,,,,,,,,
"[""period"",""comma""]",0,"[0.6690749999979744,0.7692999999999302]",119,0,119,0,1,60bbb94b1a0f3a4a5fd8cb75,Mężczyzna,26,2021-07-13_21h57.40.534,rantool2,2021.1.4,Win32,59.97001499,60bbb94b1a0f3a4a5fd8cb75,60d9d14f4a8a35a482e0d9bf,60edead384545ffd229b9d66,,,,,,,,,,,,
,,,,,,,,60bbb94b1a0f3a4a5fd8cb75,Mężczyzna,26,2021-07-13_21h57.40.534,rantool2,2021.1.4,Win32,59.97001499,60bbb94b1a0f3a4a5fd8cb75,60d9d14f4a8a35a482e0d9bf,60edead384545ffd229b9d66,j,4.694055,0,0,0,44,1,RORROOO,RORROOR,21.66733484,22.02566557,series_1
,,,,,,,,60bbb94b1a0f3a4a5fd8cb75,Mężczyzna,26,2021-07-13_21h57.40.534,rantool2,2021.1.4,Win32,59.97001499,60bbb94b1a0f3a4a5fd8cb75,60d9d14f4a8a35a482e0d9bf,60edead384545ffd229b9d66,,,0,1,1,13,1,OORRORO,OORRORR,21.66733484,22.11181017,series_1
,,,,,,,,60bbb94b1a0f3a4a5fd8cb75,Mężczyzna,26,2021-07-13_21h57.40.534,rantool2,2021.1.4,Win32,59.97001499,60bbb94b1a0f3a4a5fd8cb75,60d9d14f4a8a35a482e0d9bf,60edead384545ffd229b9d66,f,0.09737,0,2,2,19,1,OROORRO,OROORRR,21.73568164,22.11181017,series_1
,,,,,,,,60bbb94b1a0f3a4a5fd8cb75,Mężczyzna,26,2021-07-13_21h57.40.534,rantool2,2021.1.4,Win32,59.97001499,60bbb94b1a0f3a4a5fd8cb75,60d9d14f4a8a35a482e0d9bf,60edead384545ffd229b9d66,j,2.84524,0,3,3,9,1,OOROORO,OOROORR,21.07991943,22.2428857,series_1
,,,,,,,,60bbb94b1a0f3a4a5fd8cb75,Mężczyzna,26,2021-07-13_21h57.40.534,rantool2,2021.1.4,Win32,59.97001499,60bbb94b1a0f3a4a5fd8cb75,60d9d14f4a8a35a482e0d9bf,60edead384545ffd229b9d66,f,3.22232,0,4,4,0,1,OOOOOOO,OOOOOOR,18.52739004,19.62521613,series_1
,,,,,,,,60bbb94b1a0f3a4a5fd8cb75,Mężczyzna,26,2021-07-13_21h57.40.534,rantool2,2021.1.4,Win32,59.97001499,60bbb94b1a0f3a4a5fd8cb75,60d9d14f4a8a35a482e0d9bf,60edead384545ffd229b9d66,j,1.76669,0,5,5,63,1,RRRRRRO,RRRRRRR,21.35278725,19.62521613,series_0
,,,,,,,,60bbb94b1a0f3a4a5fd8cb75,Mężczyzna,26,2021-07-13_21h57.40.534,rantool2,2021.1.4,Win32,59.97001499,60bbb94b1a0f3a4a5fd8cb75,60d9d14f4a8a35a482e0d9bf,60edead384545ffd229b9d66,j,3.67707,0,6,6,10,1,OOROROO,OOROROR,21.31236711,21.07490964,series_0
,,,,,,,,60bbb94b1a0f3a4a5fd8cb75,Mężczyzna,26,2021-07-13_21h57.40.534,rantool2,2021.1.4,Win32,59.97001499,60bbb94b1a0f3a4a5fd8cb75,60d9d14f4a8a35a482e0d9bf,60edead384545ffd229b9d66,f,3.82706,0,7,7,58,1,RRROROO,RRROROR,22.1285618,21.37121559,series_0
,,,,,,,,60bbb94b1a0f3a4a5fd8cb75,Mężczyzna,26,2021-07-13_21h57.40.534,rantool2,2021.1.4,Win32,59.97001499,60bbb94b1a0f3a4a5fd8cb75,60d9d14f4a8a35a482e0d9bf,60edead384545ffd229b9d66,j,3.562115,0,8,8,54,1,RRORROO,RRORROR,21.55250791,20.9984461,series_0
,,,,,,,,60bbb94b1a0f3a4a5fd8cb75,Mężczyzna,26,2021-07-13_21h57.40.534,rantool2,2021.1.4,Win32,59.97001499,60bbb94b1a0f3a4a5fd8cb75,60d9d14f4a8a35a482e0d9bf,60edead384545ffd229b9d66,j,3.997375,0,9,9,41,1,ROROORO,ROROORR,20.42602454,21.71443381,series_1
,,,,,,,,60bbb94b1a0f3a4a5fd8cb75,Mężczyzna,26,2021-07-13_21h57.40.534,rantool2,2021.1.4,Win32,59.97001499,60bbb94b1a0f3a4a5fd8cb75,60d9d14f4a8a35a482e0d9bf,60edead384545ffd229b9d66,j,2.622175,0,10,10,11,1,OORORRO,OORORRR,22.18365867,22.6797523,series_1
,,,,,,,,60bbb94b1a0f3a4a5fd8cb75,Mężczyzna,26,2021-07-13_21h57.40.534,rantool2,2021.1.4,Win32,59.97001499,60bbb94b1a0f3a4a5fd8cb75,60d9d14f4a8a35a482e0d9bf,60edead384545ffd229b9d66,f,1.991965,0,11,11,25,1,ORROORO,ORROORR,21.79500819,22.61624387,series_1
,,,,,,,,60bbb94b1a0f3a4a5fd8cb75,Mężczyzna,26,2021-07-13_21h57.40.534,rantool2,2021.1.4,Win32,59.97001499,60bbb94b1a0f3a4a5fd8cb75,60d9d14f4a8a35a482e0d9bf,60edead384545ffd229b9d66,f,3.379865,0,12,12,22,1,ORORROO,ORORROR,22.02732763,21.57657071,series_0
,,,,,,,,60bbb94b1a0f3a4a5fd8cb75,Mężczyzna,26,2021-07-13_21h57.40.534,rantool2,2021.1.4,Win32,59.97001499,60bbb94b1a0f3a4a5fd8cb75,60d9d14f4a8a35a482e0d9bf,60edead384545ffd229b9d66,f,2.287125,0,13,13,2,1,OOOOROO,OOOOROR,20.43051175,21.02936224,series_1
,,,,,,,,60bbb94b1a0f3a4a5fd8cb75,Mężczyzna,26,2021-07-13_21h57.40.534,rantool2,2021.1.4,Win32,59.97001499,60bbb94b1a0f3a4a5fd8cb75,60d9d14f4a8a35a482e0d9bf,60edead384545ffd229b9d66,f,2.550925,0,14,14,14,1,OORRROO,OORRROR,22.24142883,22.16977179,series_0
,,,,,,,,60bbb94b1a0f3a4a5fd8cb75,Mężczyzna,26,2021-07-13_21h57.40.534,rantool2,2021.1.4,Win32,59.97001499,60bbb94b1a0f3a4a5fd8cb75,60d9d14f4a8a35a482e0d9bf,60edead384545ffd229b9d66,f,2.155575,0,15,15,8,1,OOROOOO,OOROOOR,19.91402015,20.89823192,series_1
,,,,,,,,60bbb94b1a0f3a4a5fd8cb75,Mężczyzna,26,2021-07-13_21h57.40.534,rantool2,2021.1.4,Win32,59.97001499,60bbb94b1a0f3a4a5fd8cb75,60d9d14f4a8a35a482e0d9bf,60edead384545ffd229b9d66,f,3.74529,0,16,16,39,1,ROORRRO,ROORRRR,21.82425538,21.38562617,series_0
,,,,,,,,60bbb94b1a0f3a4a5fd8cb75,Mężczyzna,26,2021-07-13_21h57.40.534,rantool2,2021.1.4,Win32,59.97001499,60bbb94b1a0f3a4a5fd8cb75,60d9d14f4a8a35a482e0d9bf,60edead384545ffd229b9d66,f,4.00567,0,17,17,55,1,RRORRRO,RRORRRR,21.56657303,21.21223021,series_0
,,,,,,,,60bbb94b1a0f3a4a5fd8cb75,Mężczyzna,26,2021-07-13_21h57.40.534,rantool2,2021.1.4,Win32,59.97001499,60bbb94b1a0f3a4a5fd8cb75,60d9d14f4a8a35a482e0d9bf,60edead384545ffd229b9d66,f,4.38261,0,18,18,15,1,OORRRRO,OORRRRR,22.10108823,21.74922619,series_0
,,,,,,,,60bbb94b1a0f3a4a5fd8cb75,Mężczyzna,26,2021-07-13_21h57.40.534,rantool2,2021.1.4,Win32,59.97001499,60bbb94b1a0f3a4a5fd8cb75,60d9d14f4a8a35a482e0d9bf,60edead384545ffd229b9d66,j,4.309065,0,19,19,4,1,OOOROOO,OOOROOR,19.91402015,21.21223021,series_1
,,,,,,,,60bbb94b1a0f3a4a5fd8cb75,Mężczyzna,26,2021-07-13_21h57.40.534,rantool2,2021.1.4,Win32,59.97001499,60bbb94b1a0f3a4a5fd8cb75,60d9d14f4a8a35a482e0d9bf,60edead384545ffd229b9d66,j,3.875185,0,20,20,27,1,ORRORRO,ORRORRR,21.55250791,22.2428857,series_1
,,,,,,,,60bbb94b1a0f3a4a5fd8cb75,Mężczyzna,26,2021-07-13_21h57.40.534,rantool2,2021.1.4,Win32,59.97001499,60bbb94b1a0f3a4a5fd8cb75,60d9d14f4a8a35a482e0d9bf,60edead384545ffd229b9d66,f,4.82647,0,21,21,51,1,RROORRO,RROORRR,21.89852628,22.02786418,series_1
,,,,,,,,60bbb94b1a0f3a4a5fd8cb75,Mężczyzna,26,2021-07-13_21h57.40.534,rantool2,2021.1.4,Win32,59.97001499,60bbb94b1a0f3a4a5fd8cb75,60d9d14f4a8a35a482e0d9bf,60edead384545ffd229b9d66,f,3.123365,0,22,22,34,1,ROOOROO,ROOOROR,21.03750787,21.24781509,series_1
,,,,,,,,60bbb94b1a0f3a4a5fd8cb75,Mężczyzna,26,2021-07-13_21h57.40.534,rantool2,2021.1.4,Win32,59.97001499,60bbb94b1a0f3a4a5fd8cb75,60d9d14f4a8a35a482e0d9bf,60edead384545ffd229b9d66,j,4.793495,0,23,23,46,1,RORRROO,RORRROR,22.00300695,21.24781509,series_0
,,,,,,,,60bbb94b1a0f3a4a5fd8cb75,Mężczyzna,26,2021-07-13_21h57.40.534,rantool2,2021.1.4,Win32,59.97001499,60bbb94b1a0f3a4a5fd8cb75,60d9d14f4a8a35a482e0d9bf,60edead384545ffd229b9d66,f,3.10705,0,24,24,49,1,RROOORO,RROOORR,21.76276513,22.53364006,series_1
,,,,,,,,60bbb94b1a0f3a4a5fd8cb75,Mężczyzna,26,2021-07-13_21h57.40.534,rantool2,2021.1.4,Win32,59.97001499,60bbb94b1a0f3a4a5fd8cb75,60d9d14f4a8a35a482e0d9bf,60edead384545ffd229b9d66,f,2.856245,0,25,25,32,1,ROOOOOO,ROOOOOR,19.92253567,21.27974287,series_1
,,,,,,,,60bbb94b1a0f3a4a5fd8cb75,Mężczyzna,26,2021-07-13_21h57.40.534,rantool2,2021.1.4,Win32,59.97001499,60bbb94b1a0f3a4a5fd8cb75,60d9d14f4a8a35a482e0d9bf,60edead384545ffd229b9d66,f,4.20797,0,26,26,26,1,ORROROO,ORROROR,22.02732763,21.71443381,series_0
,,,,,,,,60bbb94b1a0f3a4a5fd8cb75,Mężczyzna,26,2021-07-13_21h57.40.534,rantool2,2021.1.4,Win32,59.97001499,60bbb94b1a0f3a4a5fd8cb75,60d9d14f4a8a35a482e0d9bf,60edead384545ffd229b9d66,,,0,27,27,33,1,ROOOORO,ROOOORR,20.83779602,22.03072203,series_1
,,,,,,,,60bbb94b1a0f3a4a5fd8cb75,Mężczyzna,26,2021-07-13_21h57.40.534,rantool2,2021.1.4,Win32,59.97001499,60bbb94b1a0f3a4a5fd8cb75,60d9d14f4a8a35a482e0d9bf,60edead384545ffd229b9d66,f,2.542775,0,28,28,17,1,OROOORO,OROOORR,21.03750787,22.12173012,series_1
,,,,,,,,60bbb94b1a0f3a4a5fd8cb75,Mężczyzna,26,2021-07-13_21h57.40.534,rantool2,2021.1.4,Win32,59.97001499,60bbb94b1a0f3a4a5fd8cb75,60d9d14f4a8a35a482e0d9bf,60edead384545ffd229b9d66,f,4.787205,0,29,29,20,1,OROROOO,OROROOR,21.31236711,21.90565814,series_1
,,,,,,,,60bbb94b1a0f3a4a5fd8cb75,Mężczyzna,26,2021-07-13_21h57.40.534,rantool2,2021.1.4,Win32,59.97001499,60bbb94b1a0f3a4a5fd8cb75,60d9d14f4a8a35a482e0d9bf,60edead384545ffd229b9d66,j,2.138565,0,30,30,18,1,OROOROO,OROOROR,20.84860893,21.22513037,series_1
,,,,,,,,60bbb94b1a0f3a4a5fd8cb75,Mężczyzna,26,2021-07-13_21h57.40.534,rantool2,2021.1.4,Win32,59.97001499,60bbb94b1a0f3a4a5fd8cb75,60d9d14f4a8a35a482e0d9bf,60edead384545ffd229b9d66,f,3.3447,0,31,31,3,1,OOOORRO,OOOORRR,20.90986523,21.74922619,series_1
,,,,,,,,60bbb94b1a0f3a4a5fd8cb75,Mężczyzna,26,2021-07-13_21h57.40.534,rantool2,2021.1.4,Win32,59.97001499,60bbb94b1a0f3a4a5fd8cb75,60d9d14f4a8a35a482e0d9bf,60edead384545ffd229b9d66,f,1.379355,0,32,32,12,1,OORROOO,OORROOR,21.30250474,22.02786418,series_1
,,,,,,,,60bbb94b1a0f3a4a5fd8cb75,Mężczyzna,26,2021-07-13_21h57.40.534,rantool2,2021.1.4,Win32,59.97001499,60bbb94b1a0f3a4a5fd8cb75,60d9d14f4a8a35a482e0d9bf,60edead384545ffd229b9d66,j,2.27179,0,33,33,60,1,RRRROOO,RRRROOR,22.10108823,22.15934078,series_1
,,,,,,,,60bbb94b1a0f3a4a5fd8cb75,Mężczyzna,26,2021-07-13_21h57.40.534,rantool2,2021.1.4,Win32,59.97001499,60bbb94b1a0f3a4a5fd8cb75,60d9d14f4a8a35a482e0d9bf,60edead384545ffd229b9d66,f,3.657465,0,34,34,1,1,OOOOORO,OOOOORR,19.92253567,20.74050628,series_1
,,,,,,,,60bbb94b1a0f3a4a5fd8cb75,Mężczyzna,26,2021-07-13_21h57.40.534,rantool2,2021.1.4,Win32,59.97001499,60bbb94b1a0f3a4a5fd8cb75,60d9d14f4a8a35a482e0d9bf,60edead384545ffd229b9d66,f,2.57234,0,35,35,38,1,ROORROO,ROORROR,21.79500819,21.36812781,series_0
,,,,,,,,60bbb94b1a0f3a4a5fd8cb75,Mężczyzna,26,2021-07-13_21h57.40.534,rantool2,2021.1.4,Win32,59.97001499,60bbb94b1a0f3a4a5fd8cb75,60d9d14f4a8a35a482e0d9bf,60edead384545ffd229b9d66,f,1.587365,0,36,36,56,1,RRROOOO,RRROOOR,21.6194508,22.31681875,series_1
,,,,,,,,60bbb94b1a0f3a4a5fd8cb75,Mężczyzna,26,2021-07-13_21h57.40.534,rantool2,2021.1.4,Win32,59.97001499,60bbb94b1a0f3a4a5fd8cb75,60d9d14f4a8a35a482e0d9bf,60edead384545ffd229b9d66,j,4.423995,0,37,37,24,1,ORROOOO,ORROOOR,21.12383932,22.07102821,series_1
,,,,,,,,60bbb94b1a0f3a4a5fd8cb75,Mężczyzna,26,2021-07-13_21h57.40.534,rantool2,2021.1.4,Win32,59.97001499,60bbb94b1a0f3a4a5fd8cb75,60d9d14f4a8a35a482e0d9bf,60edead384545ffd229b9d66,j,1.767685,0,38,38,30,1,ORRRROO,ORRRROR,22.46748491,22.03072203,series_0
,,,,,,,,60bbb94b1a0f3a4a5fd8cb75,Mężczyzna,26,2021-07-13_21h57.40.534,rantool2,2021.1.4,Win32,59.97001499,60bbb94b1a0f3a4a5fd8cb75,60d9d14f4a8a35a482e0d9bf,60edead384545ffd229b9d66,j,3.824665,0,39,39,53,1,RRORORO,RRORORR,20.71309134,21.90565814,series_1
,,,,,,,,60bbb94b1a0f3a4a5fd8cb75,Mężczyzna,26,2021-07-13_21h57.40.534,rantool2,2021.1.4,Win32,59.97001499,60bbb94b1a0f3a4a5fd8cb75,60d9d14f4a8a35a482e0d9bf,60edead384545ffd229b9d66,j,4.34181,0,40,40,45,1,RORRORO,RORRORR,20.78182524,21.22513037,series_1
,,,,,,,,60bbb94b1a0f3a4a5fd8cb75,Mężczyzna,26,2021-07-13_21h57.40.534,rantool2,2021.1.4,Win32,59.97001499,60bbb94b1a0f3a4a5fd8cb75,60d9d14f4a8a35a482e0d9bf,60edead384545ffd229b9d66,f,2.40526,0,41,41,36,1,ROOROOO,ROOROOR,21.07991943,20.9984461,series_0
,,,,,,,,60bbb94b1a0f3a4a5fd8cb75,Mężczyzna,26,2021-07-13_21h57.40.534,rantool2,2021.1.4,Win32,59.97001499,60bbb94b1a0f3a4a5fd8cb75,60d9d14f4a8a35a482e0d9bf,60edead384545ffd229b9d66,f,3.75452,0,42,42,57,1,RRROORO,RRROORR,21.82425538,22.07102821,series_1
,,,,,,,,60bbb94b1a0f3a4a5fd8cb75,Mężczyzna,26,2021-07-13_21h57.40.534,rantool2,2021.1.4,Win32,59.97001499,60bbb94b1a0f3a4a5fd8cb75,60d9d14f4a8a35a482e0d9bf,60edead384545ffd229b9d66,f,1.38751,0,43,43,42,1,ROROROO,ROROROR,20.39515459,19.8361834,series_0
,,,,,,,,60bbb94b1a0f3a4a5fd8cb75,Mężczyzna,26,2021-07-13_21h57.40.534,rantool2,2021.1.4,Win32,59.97001499,60bbb94b1a0f3a4a5fd8cb75,60d9d14f4a8a35a482e0d9bf,60edead384545ffd229b9d66,j,3.873365,0,44,44,23,1,ORORRRO,ORORRRR,22.1285618,21.9921709,series_0
,,,,,,,,60bbb94b1a0f3a4a5fd8cb75,Mężczyzna,26,2021-07-13_21h57.40.534,rantool2,2021.1.4,Win32,59.97001499,60bbb94b1a0f3a4a5fd8cb75,60d9d14f4a8a35a482e0d9bf,60edead384545ffd229b9d66,f,2.19856,0,45,45,7,1,OOORRRO,OOORRRR,21.6194508,21.899017,series_1
,,,,,,,,60bbb94b1a0f3a4a5fd8cb75,Mężczyzna,26,2021-07-13_21h57.40.534,rantool2,2021.1.4,Win32,59.97001499,60bbb94b1a0f3a4a5fd8cb75,60d9d14f4a8a35a482e0d9bf,60edead384545ffd229b9d66,f,2.18865,0,46,46,43,1,RORORRO,RORORRR,20.71309134,21.07490964,series_1
,,,,,,,,60bbb94b1a0f3a4a5fd8cb75,Mężczyzna,26,2021-07-13_21h57.40.534,rantool2,2021.1.4,Win32,59.97001499,60bbb94b1a0f3a4a5fd8cb75,60d9d14f4a8a35a482e0d9bf,60edead384545ffd229b9d66,j,4.709895,0,47,47,6,1,OOORROO,OOORROR,21.12383932,21.38562617,series_1
,,,,,,,,60bbb94b1a0f3a4a5fd8cb75,Mężczyzna,26,2021-07-13_21h57.40.534,rantool2,2021.1.4,Win32,59.97001499,60bbb94b1a0f3a4a5fd8cb75,60d9d14f4a8a35a482e0d9bf,60edead384545ffd229b9d66,j,1.93573,0,48,48,37,1,ROORORO,ROORORR,20.42602454,21.57657071,series_1
,,,,,,,,60bbb94b1a0f3a4a5fd8cb75,Mężczyzna,26,2021-07-13_21h57.40.534,rantool2,2021.1.4,Win32,59.97001499,60bbb94b1a0f3a4a5fd8cb75,60d9d14f4a8a35a482e0d9bf,60edead384545ffd229b9d66,f,4.52663,0,49,49,52,1,RROROOO,RROROOR,22.18365867,22.11097995,series_0
,,,,,,,,60bbb94b1a0f3a4a5fd8cb75,Mężczyzna,26,2021-07-13_21h57.40.534,rantool2,2021.1.4,Win32,59.97001499,60bbb94b1a0f3a4a5fd8cb75,60d9d14f4a8a35a482e0d9bf,60edead384545ffd229b9d66,j,1.70377,0,50,50,31,1,ORRRRRO,ORRRRRR,22.16413392,20.74050628,series_0
,,,,,,,,60bbb94b1a0f3a4a5fd8cb75,Mężczyzna,26,2021-07-13_21h57.40.534,rantool2,2021.1.4,Win32,59.97001499,60bbb94b1a0f3a4a5fd8cb75,60d9d14f4a8a35a482e0d9bf,60edead384545ffd229b9d66,f,1.256825,0,51,51,62,1,RRRRROO,RRRRROR,22.16413392,21.27974287,series_0
,,,,,,,,60bbb94b1a0f3a4a5fd8cb75,Mężczyzna,26,2021-07-13_21h57.40.534,rantool2,2021.1.4,Win32,59.97001499,60bbb94b1a0f3a4a5fd8cb75,60d9d14f4a8a35a482e0d9bf,60edead384545ffd229b9d66,j,0.875405,0,52,52,48,1,RROOOOO,RROOOOR,20.90986523,22.15934078,series_1
,,,,,,,,60bbb94b1a0f3a4a5fd8cb75,Mężczyzna,26,2021-07-13_21h57.40.534,rantool2,2021.1.4,Win32,59.97001499,60bbb94b1a0f3a4a5fd8cb75,60d9d14f4a8a35a482e0d9bf,60edead384545ffd229b9d66,f,3.00645,0,53,53,47,1,RORRRRO,RORRRRR,21.81333602,21.02936224,series_0
,,,,,,,,60bbb94b1a0f3a4a5fd8cb75,Mężczyzna,26,2021-07-13_21h57.40.534,rantool2,2021.1.4,Win32,59.97001499,60bbb94b1a0f3a4a5fd8cb75,60d9d14f4a8a35a482e0d9bf,60edead384545ffd229b9d66,f,1.24747,0,54,54,28,1,ORRROOO,ORRROOR,22.24142883,22.53364006,series_1
,,,,,,,,60bbb94b1a0f3a4a5fd8cb75,Mężczyzna,26,2021-07-13_21h57.40.534,rantool2,2021.1.4,Win32,59.97001499,60bbb94b1a0f3a4a5fd8cb75,60d9d14f4a8a35a482e0d9bf,60edead384545ffd229b9d66,f,1.436775,0,55,55,50,1,RROOROO,RROOROR,21.73568164,22.02566557,series_1
,,,,,,,,60bbb94b1a0f3a4a5fd8cb75,Mężczyzna,26,2021-07-13_21h57.40.534,rantool2,2021.1.4,Win32,59.97001499,60bbb94b1a0f3a4a5fd8cb75,60d9d14f4a8a35a482e0d9bf,60edead384545ffd229b9d66,f,1.60481,0,56,56,35,1,ROOORRO,ROOORRR,21.76276513,22.16977179,series_1
,,,,,,,,60bbb94b1a0f3a4a5fd8cb75,Mężczyzna,26,2021-07-13_21h57.40.534,rantool2,2021.1.4,Win32,59.97001499,60bbb94b1a0f3a4a5fd8cb75,60d9d14f4a8a35a482e0d9bf,60edead384545ffd229b9d66,j,1.05803,0,57,57,40,1,ROROOOO,ROROOOR,20.87963819,21.37121559,series_1
,,,,,,,,60bbb94b1a0f3a4a5fd8cb75,Mężczyzna,26,2021-07-13_21h57.40.534,rantool2,2021.1.4,Win32,59.97001499,60bbb94b1a0f3a4a5fd8cb75,60d9d14f4a8a35a482e0d9bf,60edead384545ffd229b9d66,f,1.01942,0,58,58,59,1,RRRORRO,RRRORRR,21.56657303,20.89823192,series_0
,,,,,,,,60bbb94b1a0f3a4a5fd8cb75,Mężczyzna,26,2021-07-13_21h57.40.534,rantool2,2021.1.4,Win32,59.97001499,60bbb94b1a0f3a4a5fd8cb75,60d9d14f4a8a35a482e0d9bf,60edead384545ffd229b9d66,f,2.037915,0,59,59,16,1,OROOOOO,OROOOOR,20.43051175,21.17347734,series_1
,,,,,,,,60bbb94b1a0f3a4a5fd8cb75,Mężczyzna,26,2021-07-13_21h57.40.534,rantool2,2021.1.4,Win32,59.97001499,60bbb94b1a0f3a4a5fd8cb75,60d9d14f4a8a35a482e0d9bf,60edead384545ffd229b9d66,f,2.443905,0,60,60,29,1,ORRRORO,ORRRORR,22.00300695,22.12173012,series_1
,,,,,,,,60bbb94b1a0f3a4a5fd8cb75,Mężczyzna,26,2021-07-13_21h57.40.534,rantool2,2021.1.4,Win32,59.97001499,60bbb94b1a0f3a4a5fd8cb75,60d9d14f4a8a35a482e0d9bf,60edead384545ffd229b9d66,f,1.636975,0,61,61,21,1,ORORORO,ORORORR,20.39515459,22.06781359,series_1
,,,,,,,,60bbb94b1a0f3a4a5fd8cb75,Mężczyzna,26,2021-07-13_21h57.40.534,rantool2,2021.1.4,Win32,59.97001499,60bbb94b1a0f3a4a5fd8cb75,60d9d14f4a8a35a482e0d9bf,60edead384545ffd229b9d66,j,2.338195,0,62,62,5,1,OOORORO,OOORORR,20.87963819,21.9921709,series_1
,,,,,,,,60bbb94b1a0f3a4a5fd8cb75,Mężczyzna,26,2021-07-13_21h57.40.534,rantool2,2021.1.4,Win32,59.97001499,60bbb94b1a0f3a4a5fd8cb75,60d9d14f4a8a35a482e0d9bf,60edead384545ffd229b9d66,f,2.2718,0,63,63,61,1,RRRRORO,RRRRORR,21.81333602,21.17347734,series_0
