key_resp_7.keys,key_resp_7.rt,trials_2.thisRepN,trials_2.thisTrialN,trials_2.thisN,trials_2.thisIndex,trials_2.ran,id,series_0,series_1,acss_0,acss_1,comparison,id*,Płeć*,Wiek*,date,expName,psychopyVersion,OS,frameRate,STUDY_ID,SESSION_ID,key_resp_5.keys,key_resp_5.corr,key_resp_5.rt,trials.thisRepN,trials.thisTrialN,trials.thisN,trials.thisIndex,trials.ran
f,2.5805,0,0,0,17,1,6017c9139ab598a3d61b6c64,OROOORO,OROOORR,21.03750787,22.12173012,series_1,6017c9139ab598a3d61b6c64,Mężczyzna,19,2021-09-06_19h17.36.166,rantool2,2021.1.4,Win32,59.94125757,6135e006383e6ea6c3d06a28,61364d16f4218dcbf4a5b230,,,,,,,,
j,3.2519,0,1,1,5,1,6017c9139ab598a3d61b6c64,OOORORO,OOORORR,20.87963819,21.9921709,series_1,6017c9139ab598a3d61b6c64,Mężczyzna,19,2021-09-06_19h17.36.166,rantool2,2021.1.4,Win32,59.94125757,6135e006383e6ea6c3d06a28,61364d16f4218dcbf4a5b230,,,,,,,,
j,3.9334,0,2,2,49,1,6017c9139ab598a3d61b6c64,RROOORO,RROOORR,21.76276513,22.53364006,series_1,6017c9139ab598a3d61b6c64,Mężczyzna,19,2021-09-06_19h17.36.166,rantool2,2021.1.4,Win32,59.94125757,6135e006383e6ea6c3d06a28,61364d16f4218dcbf4a5b230,,,,,,,,
f,4.1325,0,3,3,3,1,6017c9139ab598a3d61b6c64,OOOORRO,OOOORRR,20.90986523,21.74922619,series_1,6017c9139ab598a3d61b6c64,Mężczyzna,19,2021-09-06_19h17.36.166,rantool2,2021.1.4,Win32,59.94125757,6135e006383e6ea6c3d06a28,61364d16f4218dcbf4a5b230,,,,,,,,
f,1.8844,0,4,4,54,1,6017c9139ab598a3d61b6c64,RRORROO,RRORROR,21.55250791,20.9984461,series_0,6017c9139ab598a3d61b6c64,Mężczyzna,19,2021-09-06_19h17.36.166,rantool2,2021.1.4,Win32,59.94125757,6135e006383e6ea6c3d06a28,61364d16f4218dcbf4a5b230,,,,,,,,
j,2.5085,0,5,5,39,1,6017c9139ab598a3d61b6c64,ROORRRO,ROORRRR,21.82425538,21.38562617,series_0,6017c9139ab598a3d61b6c64,Mężczyzna,19,2021-09-06_19h17.36.166,rantool2,2021.1.4,Win32,59.94125757,6135e006383e6ea6c3d06a28,61364d16f4218dcbf4a5b230,,,,,,,,
j,2.417,0,6,6,55,1,6017c9139ab598a3d61b6c64,RRORRRO,RRORRRR,21.56657303,21.21223021,series_0,6017c9139ab598a3d61b6c64,Mężczyzna,19,2021-09-06_19h17.36.166,rantool2,2021.1.4,Win32,59.94125757,6135e006383e6ea6c3d06a28,61364d16f4218dcbf4a5b230,,,,,,,,
j,4.1296,0,7,7,30,1,6017c9139ab598a3d61b6c64,ORRRROO,ORRRROR,22.46748491,22.03072203,series_0,6017c9139ab598a3d61b6c64,Mężczyzna,19,2021-09-06_19h17.36.166,rantool2,2021.1.4,Win32,59.94125757,6135e006383e6ea6c3d06a28,61364d16f4218dcbf4a5b230,,,,,,,,
f,2.5167,0,8,8,57,1,6017c9139ab598a3d61b6c64,RRROORO,RRROORR,21.82425538,22.07102821,series_1,6017c9139ab598a3d61b6c64,Mężczyzna,19,2021-09-06_19h17.36.166,rantool2,2021.1.4,Win32,59.94125757,6135e006383e6ea6c3d06a28,61364d16f4218dcbf4a5b230,,,,,,,,
j,2.686,0,9,9,42,1,6017c9139ab598a3d61b6c64,ROROROO,ROROROR,20.39515459,19.8361834,series_0,6017c9139ab598a3d61b6c64,Mężczyzna,19,2021-09-06_19h17.36.166,rantool2,2021.1.4,Win32,59.94125757,6135e006383e6ea6c3d06a28,61364d16f4218dcbf4a5b230,,,,,,,,
j,1.559,0,10,10,34,1,6017c9139ab598a3d61b6c64,ROOOROO,ROOOROR,21.03750787,21.24781509,series_1,6017c9139ab598a3d61b6c64,Mężczyzna,19,2021-09-06_19h17.36.166,rantool2,2021.1.4,Win32,59.94125757,6135e006383e6ea6c3d06a28,61364d16f4218dcbf4a5b230,,,,,,,,
f,3.0202,0,11,11,45,1,6017c9139ab598a3d61b6c64,RORRORO,RORRORR,20.78182524,21.22513037,series_1,6017c9139ab598a3d61b6c64,Mężczyzna,19,2021-09-06_19h17.36.166,rantool2,2021.1.4,Win32,59.94125757,6135e006383e6ea6c3d06a28,61364d16f4218dcbf4a5b230,,,,,,,,
f,2.1579,0,12,12,44,1,6017c9139ab598a3d61b6c64,RORROOO,RORROOR,21.66733484,22.02566557,series_1,6017c9139ab598a3d61b6c64,Mężczyzna,19,2021-09-06_19h17.36.166,rantool2,2021.1.4,Win32,59.94125757,6135e006383e6ea6c3d06a28,61364d16f4218dcbf4a5b230,,,,,,,,
f,4.1634,0,13,13,63,1,6017c9139ab598a3d61b6c64,RRRRRRO,RRRRRRR,21.35278725,19.62521613,series_0,6017c9139ab598a3d61b6c64,Mężczyzna,19,2021-09-06_19h17.36.166,rantool2,2021.1.4,Win32,59.94125757,6135e006383e6ea6c3d06a28,61364d16f4218dcbf4a5b230,,,,,,,,
j,1.876,0,14,14,50,1,6017c9139ab598a3d61b6c64,RROOROO,RROOROR,21.73568164,22.02566557,series_1,6017c9139ab598a3d61b6c64,Mężczyzna,19,2021-09-06_19h17.36.166,rantool2,2021.1.4,Win32,59.94125757,6135e006383e6ea6c3d06a28,61364d16f4218dcbf4a5b230,,,,,,,,
f,3.6859,0,15,15,62,1,6017c9139ab598a3d61b6c64,RRRRROO,RRRRROR,22.16413392,21.27974287,series_0,6017c9139ab598a3d61b6c64,Mężczyzna,19,2021-09-06_19h17.36.166,rantool2,2021.1.4,Win32,59.94125757,6135e006383e6ea6c3d06a28,61364d16f4218dcbf4a5b230,,,,,,,,
f,1.6415,0,16,16,47,1,6017c9139ab598a3d61b6c64,RORRRRO,RORRRRR,21.81333602,21.02936224,series_0,6017c9139ab598a3d61b6c64,Mężczyzna,19,2021-09-06_19h17.36.166,rantool2,2021.1.4,Win32,59.94125757,6135e006383e6ea6c3d06a28,61364d16f4218dcbf4a5b230,,,,,,,,
j,2.218,0,17,17,27,1,6017c9139ab598a3d61b6c64,ORRORRO,ORRORRR,21.55250791,22.2428857,series_1,6017c9139ab598a3d61b6c64,Mężczyzna,19,2021-09-06_19h17.36.166,rantool2,2021.1.4,Win32,59.94125757,6135e006383e6ea6c3d06a28,61364d16f4218dcbf4a5b230,,,,,,,,
j,3.1573,0,18,18,6,1,6017c9139ab598a3d61b6c64,OOORROO,OOORROR,21.12383932,21.38562617,series_1,6017c9139ab598a3d61b6c64,Mężczyzna,19,2021-09-06_19h17.36.166,rantool2,2021.1.4,Win32,59.94125757,6135e006383e6ea6c3d06a28,61364d16f4218dcbf4a5b230,,,,,,,,
f,3.2421,0,19,19,61,1,6017c9139ab598a3d61b6c64,RRRRORO,RRRRORR,21.81333602,21.17347734,series_0,6017c9139ab598a3d61b6c64,Mężczyzna,19,2021-09-06_19h17.36.166,rantool2,2021.1.4,Win32,59.94125757,6135e006383e6ea6c3d06a28,61364d16f4218dcbf4a5b230,,,,,,,,
j,2.8245,0,20,20,41,1,6017c9139ab598a3d61b6c64,ROROORO,ROROORR,20.42602454,21.71443381,series_1,6017c9139ab598a3d61b6c64,Mężczyzna,19,2021-09-06_19h17.36.166,rantool2,2021.1.4,Win32,59.94125757,6135e006383e6ea6c3d06a28,61364d16f4218dcbf4a5b230,,,,,,,,
j,2.4192,0,21,21,53,1,6017c9139ab598a3d61b6c64,RRORORO,RRORORR,20.71309134,21.90565814,series_1,6017c9139ab598a3d61b6c64,Mężczyzna,19,2021-09-06_19h17.36.166,rantool2,2021.1.4,Win32,59.94125757,6135e006383e6ea6c3d06a28,61364d16f4218dcbf4a5b230,,,,,,,,
f,2.7925,0,22,22,33,1,6017c9139ab598a3d61b6c64,ROOOORO,ROOOORR,20.83779602,22.03072203,series_1,6017c9139ab598a3d61b6c64,Mężczyzna,19,2021-09-06_19h17.36.166,rantool2,2021.1.4,Win32,59.94125757,6135e006383e6ea6c3d06a28,61364d16f4218dcbf4a5b230,,,,,,,,
j,3.1674,0,23,23,0,1,6017c9139ab598a3d61b6c64,OOOOOOO,OOOOOOR,18.52739004,19.62521613,series_1,6017c9139ab598a3d61b6c64,Mężczyzna,19,2021-09-06_19h17.36.166,rantool2,2021.1.4,Win32,59.94125757,6135e006383e6ea6c3d06a28,61364d16f4218dcbf4a5b230,,,,,,,,
j,2.3935,0,24,24,14,1,6017c9139ab598a3d61b6c64,OORRROO,OORRROR,22.24142883,22.16977179,series_0,6017c9139ab598a3d61b6c64,Mężczyzna,19,2021-09-06_19h17.36.166,rantool2,2021.1.4,Win32,59.94125757,6135e006383e6ea6c3d06a28,61364d16f4218dcbf4a5b230,,,,,,,,
f,3.0839,0,25,25,21,1,6017c9139ab598a3d61b6c64,ORORORO,ORORORR,20.39515459,22.06781359,series_1,6017c9139ab598a3d61b6c64,Mężczyzna,19,2021-09-06_19h17.36.166,rantool2,2021.1.4,Win32,59.94125757,6135e006383e6ea6c3d06a28,61364d16f4218dcbf4a5b230,,,,,,,,
j,2.9439,0,26,26,2,1,6017c9139ab598a3d61b6c64,OOOOROO,OOOOROR,20.43051175,21.02936224,series_1,6017c9139ab598a3d61b6c64,Mężczyzna,19,2021-09-06_19h17.36.166,rantool2,2021.1.4,Win32,59.94125757,6135e006383e6ea6c3d06a28,61364d16f4218dcbf4a5b230,,,,,,,,
f,2.7854,0,27,27,38,1,6017c9139ab598a3d61b6c64,ROORROO,ROORROR,21.79500819,21.36812781,series_0,6017c9139ab598a3d61b6c64,Mężczyzna,19,2021-09-06_19h17.36.166,rantool2,2021.1.4,Win32,59.94125757,6135e006383e6ea6c3d06a28,61364d16f4218dcbf4a5b230,,,,,,,,
j,2.9573,0,28,28,8,1,6017c9139ab598a3d61b6c64,OOROOOO,OOROOOR,19.91402015,20.89823192,series_1,6017c9139ab598a3d61b6c64,Mężczyzna,19,2021-09-06_19h17.36.166,rantool2,2021.1.4,Win32,59.94125757,6135e006383e6ea6c3d06a28,61364d16f4218dcbf4a5b230,,,,,,,,
j,3.1003,0,29,29,46,1,6017c9139ab598a3d61b6c64,RORRROO,RORRROR,22.00300695,21.24781509,series_0,6017c9139ab598a3d61b6c64,Mężczyzna,19,2021-09-06_19h17.36.166,rantool2,2021.1.4,Win32,59.94125757,6135e006383e6ea6c3d06a28,61364d16f4218dcbf4a5b230,,,,,,,,
f,2.9718,0,30,30,26,1,6017c9139ab598a3d61b6c64,ORROROO,ORROROR,22.02732763,21.71443381,series_0,6017c9139ab598a3d61b6c64,Mężczyzna,19,2021-09-06_19h17.36.166,rantool2,2021.1.4,Win32,59.94125757,6135e006383e6ea6c3d06a28,61364d16f4218dcbf4a5b230,,,,,,,,
f,3.7515,0,31,31,43,1,6017c9139ab598a3d61b6c64,RORORRO,RORORRR,20.71309134,21.07490964,series_1,6017c9139ab598a3d61b6c64,Mężczyzna,19,2021-09-06_19h17.36.166,rantool2,2021.1.4,Win32,59.94125757,6135e006383e6ea6c3d06a28,61364d16f4218dcbf4a5b230,,,,,,,,
j,1.9503,0,32,32,24,1,6017c9139ab598a3d61b6c64,ORROOOO,ORROOOR,21.12383932,22.07102821,series_1,6017c9139ab598a3d61b6c64,Mężczyzna,19,2021-09-06_19h17.36.166,rantool2,2021.1.4,Win32,59.94125757,6135e006383e6ea6c3d06a28,61364d16f4218dcbf4a5b230,,,,,,,,
j,2.4185,0,33,33,19,1,6017c9139ab598a3d61b6c64,OROORRO,OROORRR,21.73568164,22.11181017,series_1,6017c9139ab598a3d61b6c64,Mężczyzna,19,2021-09-06_19h17.36.166,rantool2,2021.1.4,Win32,59.94125757,6135e006383e6ea6c3d06a28,61364d16f4218dcbf4a5b230,,,,,,,,
f,3.188,0,34,34,48,1,6017c9139ab598a3d61b6c64,RROOOOO,RROOOOR,20.90986523,22.15934078,series_1,6017c9139ab598a3d61b6c64,Mężczyzna,19,2021-09-06_19h17.36.166,rantool2,2021.1.4,Win32,59.94125757,6135e006383e6ea6c3d06a28,61364d16f4218dcbf4a5b230,,,,,,,,
f,2.6336,0,35,35,13,1,6017c9139ab598a3d61b6c64,OORRORO,OORRORR,21.66733484,22.11181017,series_1,6017c9139ab598a3d61b6c64,Mężczyzna,19,2021-09-06_19h17.36.166,rantool2,2021.1.4,Win32,59.94125757,6135e006383e6ea6c3d06a28,61364d16f4218dcbf4a5b230,,,,,,,,
j,1.9004,0,36,36,4,1,6017c9139ab598a3d61b6c64,OOOROOO,OOOROOR,19.91402015,21.21223021,series_1,6017c9139ab598a3d61b6c64,Mężczyzna,19,2021-09-06_19h17.36.166,rantool2,2021.1.4,Win32,59.94125757,6135e006383e6ea6c3d06a28,61364d16f4218dcbf4a5b230,,,,,,,,
j,2.8999,0,37,37,12,1,6017c9139ab598a3d61b6c64,OORROOO,OORROOR,21.30250474,22.02786418,series_1,6017c9139ab598a3d61b6c64,Mężczyzna,19,2021-09-06_19h17.36.166,rantool2,2021.1.4,Win32,59.94125757,6135e006383e6ea6c3d06a28,61364d16f4218dcbf4a5b230,,,,,,,,
f,2.3109,0,38,38,11,1,6017c9139ab598a3d61b6c64,OORORRO,OORORRR,22.18365867,22.6797523,series_1,6017c9139ab598a3d61b6c64,Mężczyzna,19,2021-09-06_19h17.36.166,rantool2,2021.1.4,Win32,59.94125757,6135e006383e6ea6c3d06a28,61364d16f4218dcbf4a5b230,,,,,,,,
j,3.067,0,39,39,35,1,6017c9139ab598a3d61b6c64,ROOORRO,ROOORRR,21.76276513,22.16977179,series_1,6017c9139ab598a3d61b6c64,Mężczyzna,19,2021-09-06_19h17.36.166,rantool2,2021.1.4,Win32,59.94125757,6135e006383e6ea6c3d06a28,61364d16f4218dcbf4a5b230,,,,,,,,
f,3.0614,0,40,40,20,1,6017c9139ab598a3d61b6c64,OROROOO,OROROOR,21.31236711,21.90565814,series_1,6017c9139ab598a3d61b6c64,Mężczyzna,19,2021-09-06_19h17.36.166,rantool2,2021.1.4,Win32,59.94125757,6135e006383e6ea6c3d06a28,61364d16f4218dcbf4a5b230,,,,,,,,
f,2.467,0,41,41,51,1,6017c9139ab598a3d61b6c64,RROORRO,RROORRR,21.89852628,22.02786418,series_1,6017c9139ab598a3d61b6c64,Mężczyzna,19,2021-09-06_19h17.36.166,rantool2,2021.1.4,Win32,59.94125757,6135e006383e6ea6c3d06a28,61364d16f4218dcbf4a5b230,,,,,,,,
j,4.1385,0,42,42,52,1,6017c9139ab598a3d61b6c64,RROROOO,RROROOR,22.18365867,22.11097995,series_0,6017c9139ab598a3d61b6c64,Mężczyzna,19,2021-09-06_19h17.36.166,rantool2,2021.1.4,Win32,59.94125757,6135e006383e6ea6c3d06a28,61364d16f4218dcbf4a5b230,,,,,,,,
f,3.304,0,43,43,1,1,6017c9139ab598a3d61b6c64,OOOOORO,OOOOORR,19.92253567,20.74050628,series_1,6017c9139ab598a3d61b6c64,Mężczyzna,19,2021-09-06_19h17.36.166,rantool2,2021.1.4,Win32,59.94125757,6135e006383e6ea6c3d06a28,61364d16f4218dcbf4a5b230,,,,,,,,
f,3.2334,0,44,44,22,1,6017c9139ab598a3d61b6c64,ORORROO,ORORROR,22.02732763,21.57657071,series_0,6017c9139ab598a3d61b6c64,Mężczyzna,19,2021-09-06_19h17.36.166,rantool2,2021.1.4,Win32,59.94125757,6135e006383e6ea6c3d06a28,61364d16f4218dcbf4a5b230,,,,,,,,
j,1.8169,0,45,45,9,1,6017c9139ab598a3d61b6c64,OOROORO,OOROORR,21.07991943,22.2428857,series_1,6017c9139ab598a3d61b6c64,Mężczyzna,19,2021-09-06_19h17.36.166,rantool2,2021.1.4,Win32,59.94125757,6135e006383e6ea6c3d06a28,61364d16f4218dcbf4a5b230,,,,,,,,
j,2.6169,0,46,46,18,1,6017c9139ab598a3d61b6c64,OROOROO,OROOROR,20.84860893,21.22513037,series_1,6017c9139ab598a3d61b6c64,Mężczyzna,19,2021-09-06_19h17.36.166,rantool2,2021.1.4,Win32,59.94125757,6135e006383e6ea6c3d06a28,61364d16f4218dcbf4a5b230,,,,,,,,
f,2.7339,0,47,47,31,1,6017c9139ab598a3d61b6c64,ORRRRRO,ORRRRRR,22.16413392,20.74050628,series_0,6017c9139ab598a3d61b6c64,Mężczyzna,19,2021-09-06_19h17.36.166,rantool2,2021.1.4,Win32,59.94125757,6135e006383e6ea6c3d06a28,61364d16f4218dcbf4a5b230,,,,,,,,
j,2.0435,0,48,48,32,1,6017c9139ab598a3d61b6c64,ROOOOOO,ROOOOOR,19.92253567,21.27974287,series_1,6017c9139ab598a3d61b6c64,Mężczyzna,19,2021-09-06_19h17.36.166,rantool2,2021.1.4,Win32,59.94125757,6135e006383e6ea6c3d06a28,61364d16f4218dcbf4a5b230,,,,,,,,
f,3.5435,0,49,49,15,1,6017c9139ab598a3d61b6c64,OORRRRO,OORRRRR,22.10108823,21.74922619,series_0,6017c9139ab598a3d61b6c64,Mężczyzna,19,2021-09-06_19h17.36.166,rantool2,2021.1.4,Win32,59.94125757,6135e006383e6ea6c3d06a28,61364d16f4218dcbf4a5b230,,,,,,,,
j,2.684,0,50,50,29,1,6017c9139ab598a3d61b6c64,ORRRORO,ORRRORR,22.00300695,22.12173012,series_1,6017c9139ab598a3d61b6c64,Mężczyzna,19,2021-09-06_19h17.36.166,rantool2,2021.1.4,Win32,59.94125757,6135e006383e6ea6c3d06a28,61364d16f4218dcbf4a5b230,,,,,,,,
f,1.9167,0,51,51,36,1,6017c9139ab598a3d61b6c64,ROOROOO,ROOROOR,21.07991943,20.9984461,series_0,6017c9139ab598a3d61b6c64,Mężczyzna,19,2021-09-06_19h17.36.166,rantool2,2021.1.4,Win32,59.94125757,6135e006383e6ea6c3d06a28,61364d16f4218dcbf4a5b230,,,,,,,,
j,2.5232,0,52,52,10,1,6017c9139ab598a3d61b6c64,OOROROO,OOROROR,21.31236711,21.07490964,series_0,6017c9139ab598a3d61b6c64,Mężczyzna,19,2021-09-06_19h17.36.166,rantool2,2021.1.4,Win32,59.94125757,6135e006383e6ea6c3d06a28,61364d16f4218dcbf4a5b230,,,,,,,,
f,2.7896,0,53,53,7,1,6017c9139ab598a3d61b6c64,OOORRRO,OOORRRR,21.6194508,21.899017,series_1,6017c9139ab598a3d61b6c64,Mężczyzna,19,2021-09-06_19h17.36.166,rantool2,2021.1.4,Win32,59.94125757,6135e006383e6ea6c3d06a28,61364d16f4218dcbf4a5b230,,,,,,,,
j,2.9665,0,54,54,16,1,6017c9139ab598a3d61b6c64,OROOOOO,OROOOOR,20.43051175,21.17347734,series_1,6017c9139ab598a3d61b6c64,Mężczyzna,19,2021-09-06_19h17.36.166,rantool2,2021.1.4,Win32,59.94125757,6135e006383e6ea6c3d06a28,61364d16f4218dcbf4a5b230,,,,,,,,
f,2.0838,0,55,55,40,1,6017c9139ab598a3d61b6c64,ROROOOO,ROROOOR,20.87963819,21.37121559,series_1,6017c9139ab598a3d61b6c64,Mężczyzna,19,2021-09-06_19h17.36.166,rantool2,2021.1.4,Win32,59.94125757,6135e006383e6ea6c3d06a28,61364d16f4218dcbf4a5b230,,,,,,,,
j,1.3669,0,56,56,28,1,6017c9139ab598a3d61b6c64,ORRROOO,ORRROOR,22.24142883,22.53364006,series_1,6017c9139ab598a3d61b6c64,Mężczyzna,19,2021-09-06_19h17.36.166,rantool2,2021.1.4,Win32,59.94125757,6135e006383e6ea6c3d06a28,61364d16f4218dcbf4a5b230,,,,,,,,
f,1.1334,0,57,57,60,1,6017c9139ab598a3d61b6c64,RRRROOO,RRRROOR,22.10108823,22.15934078,series_1,6017c9139ab598a3d61b6c64,Mężczyzna,19,2021-09-06_19h17.36.166,rantool2,2021.1.4,Win32,59.94125757,6135e006383e6ea6c3d06a28,61364d16f4218dcbf4a5b230,,,,,,,,
j,1.2268,0,58,58,56,1,6017c9139ab598a3d61b6c64,RRROOOO,RRROOOR,21.6194508,22.31681875,series_1,6017c9139ab598a3d61b6c64,Mężczyzna,19,2021-09-06_19h17.36.166,rantool2,2021.1.4,Win32,59.94125757,6135e006383e6ea6c3d06a28,61364d16f4218dcbf4a5b230,,,,,,,,
f,1.8412,0,59,59,23,1,6017c9139ab598a3d61b6c64,ORORRRO,ORORRRR,22.1285618,21.9921709,series_0,6017c9139ab598a3d61b6c64,Mężczyzna,19,2021-09-06_19h17.36.166,rantool2,2021.1.4,Win32,59.94125757,6135e006383e6ea6c3d06a28,61364d16f4218dcbf4a5b230,,,,,,,,
j,0.9339,0,60,60,59,1,6017c9139ab598a3d61b6c64,RRRORRO,RRRORRR,21.56657303,20.89823192,series_0,6017c9139ab598a3d61b6c64,Mężczyzna,19,2021-09-06_19h17.36.166,rantool2,2021.1.4,Win32,59.94125757,6135e006383e6ea6c3d06a28,61364d16f4218dcbf4a5b230,,,,,,,,
f,2.8118,0,61,61,37,1,6017c9139ab598a3d61b6c64,ROORORO,ROORORR,20.42602454,21.57657071,series_1,6017c9139ab598a3d61b6c64,Mężczyzna,19,2021-09-06_19h17.36.166,rantool2,2021.1.4,Win32,59.94125757,6135e006383e6ea6c3d06a28,61364d16f4218dcbf4a5b230,,,,,,,,
j,2.3,0,62,62,25,1,6017c9139ab598a3d61b6c64,ORROORO,ORROORR,21.79500819,22.61624387,series_1,6017c9139ab598a3d61b6c64,Mężczyzna,19,2021-09-06_19h17.36.166,rantool2,2021.1.4,Win32,59.94125757,6135e006383e6ea6c3d06a28,61364d16f4218dcbf4a5b230,,,,,,,,
f,2.0339,0,63,63,58,1,6017c9139ab598a3d61b6c64,RRROROO,RRROROR,22.1285618,21.37121559,series_0,6017c9139ab598a3d61b6c64,Mężczyzna,19,2021-09-06_19h17.36.166,rantool2,2021.1.4,Win32,59.94125757,6135e006383e6ea6c3d06a28,61364d16f4218dcbf4a5b230,,,,,,,,
,,,,,,,6017c9139ab598a3d61b6c64,,,,,,6017c9139ab598a3d61b6c64,Mężczyzna,19,2021-09-06_19h17.36.166,rantool2,2021.1.4,Win32,59.94125757,6135e006383e6ea6c3d06a28,61364d16f4218dcbf4a5b230,"[""period""]",0,[1.0991999999992572],0,0,0,0,1
,,,,,,,6017c9139ab598a3d61b6c64,,,,,,6017c9139ab598a3d61b6c64,Mężczyzna,19,2021-09-06_19h17.36.166,rantool2,2021.1.4,Win32,59.94125757,6135e006383e6ea6c3d06a28,61364d16f4218dcbf4a5b230,"[""period""]",0,[0.3299999999999841],1,0,1,0,1
,,,,,,,6017c9139ab598a3d61b6c64,,,,,,6017c9139ab598a3d61b6c64,Mężczyzna,19,2021-09-06_19h17.36.166,rantool2,2021.1.4,Win32,59.94125757,6135e006383e6ea6c3d06a28,61364d16f4218dcbf4a5b230,"[""comma""]",0,[0.26730000000077325],2,0,2,0,1
,,,,,,,6017c9139ab598a3d61b6c64,,,,,,6017c9139ab598a3d61b6c64,Mężczyzna,19,2021-09-06_19h17.36.166,rantool2,2021.1.4,Win32,59.94125757,6135e006383e6ea6c3d06a28,61364d16f4218dcbf4a5b230,"[""comma""]",0,[1.0158999999985099],3,0,3,0,1
,,,,,,,6017c9139ab598a3d61b6c64,,,,,,6017c9139ab598a3d61b6c64,Mężczyzna,19,2021-09-06_19h17.36.166,rantool2,2021.1.4,Win32,59.94125757,6135e006383e6ea6c3d06a28,61364d16f4218dcbf4a5b230,"[""comma"",""period""]",0,"[0.3015999999977339,0.3176999999992063]",4,0,4,0,1
,,,,,,,6017c9139ab598a3d61b6c64,,,,,,6017c9139ab598a3d61b6c64,Mężczyzna,19,2021-09-06_19h17.36.166,rantool2,2021.1.4,Win32,59.94125757,6135e006383e6ea6c3d06a28,61364d16f4218dcbf4a5b230,"[""period""]",0,[0.2543000000007396],5,0,5,0,1
,,,,,,,6017c9139ab598a3d61b6c64,,,,,,6017c9139ab598a3d61b6c64,Mężczyzna,19,2021-09-06_19h17.36.166,rantool2,2021.1.4,Win32,59.94125757,6135e006383e6ea6c3d06a28,61364d16f4218dcbf4a5b230,"[""comma""]",0,[0.33329999999699567],6,0,6,0,1
,,,,,,,6017c9139ab598a3d61b6c64,,,,,,6017c9139ab598a3d61b6c64,Mężczyzna,19,2021-09-06_19h17.36.166,rantool2,2021.1.4,Win32,59.94125757,6135e006383e6ea6c3d06a28,61364d16f4218dcbf4a5b230,"[""comma""]",0,[0.6449000000022238],7,0,7,0,1
,,,,,,,6017c9139ab598a3d61b6c64,,,,,,6017c9139ab598a3d61b6c64,Mężczyzna,19,2021-09-06_19h17.36.166,rantool2,2021.1.4,Win32,59.94125757,6135e006383e6ea6c3d06a28,61364d16f4218dcbf4a5b230,"[""period""]",0,[0.26069999999924676],8,0,8,0,1
,,,,,,,6017c9139ab598a3d61b6c64,,,,,,6017c9139ab598a3d61b6c64,Mężczyzna,19,2021-09-06_19h17.36.166,rantool2,2021.1.4,Win32,59.94125757,6135e006383e6ea6c3d06a28,61364d16f4218dcbf4a5b230,"[""period""]",0,[0.5569999999999595],9,0,9,0,1
,,,,,,,6017c9139ab598a3d61b6c64,,,,,,6017c9139ab598a3d61b6c64,Mężczyzna,19,2021-09-06_19h17.36.166,rantool2,2021.1.4,Win32,59.94125757,6135e006383e6ea6c3d06a28,61364d16f4218dcbf4a5b230,"[""period""]",0,[0.3009999999999877],10,0,10,0,1
,,,,,,,6017c9139ab598a3d61b6c64,,,,,,6017c9139ab598a3d61b6c64,Mężczyzna,19,2021-09-06_19h17.36.166,rantool2,2021.1.4,Win32,59.94125757,6135e006383e6ea6c3d06a28,61364d16f4218dcbf4a5b230,"[""comma""]",0,[0.29330000000072687],11,0,11,0,1
,,,,,,,6017c9139ab598a3d61b6c64,,,,,,6017c9139ab598a3d61b6c64,Mężczyzna,19,2021-09-06_19h17.36.166,rantool2,2021.1.4,Win32,59.94125757,6135e006383e6ea6c3d06a28,61364d16f4218dcbf4a5b230,"[""comma"",""period"",""period""]",0,"[0.2799999999999727,1.5879999999999654,1.8719999999999573]",12,0,12,0,1
,,,,,,,6017c9139ab598a3d61b6c64,,,,,,6017c9139ab598a3d61b6c64,Mężczyzna,19,2021-09-06_19h17.36.166,rantool2,2021.1.4,Win32,59.94125757,6135e006383e6ea6c3d06a28,61364d16f4218dcbf4a5b230,"[""period"",""period""]",0,"[0.23599999999999,0.9501999999991995]",13,0,13,0,1
,,,,,,,6017c9139ab598a3d61b6c64,,,,,,6017c9139ab598a3d61b6c64,Mężczyzna,19,2021-09-06_19h17.36.166,rantool2,2021.1.4,Win32,59.94125757,6135e006383e6ea6c3d06a28,61364d16f4218dcbf4a5b230,"[""comma""]",0,[0.43980000000073005],14,0,14,0,1
,,,,,,,6017c9139ab598a3d61b6c64,,,,,,6017c9139ab598a3d61b6c64,Mężczyzna,19,2021-09-06_19h17.36.166,rantool2,2021.1.4,Win32,59.94125757,6135e006383e6ea6c3d06a28,61364d16f4218dcbf4a5b230,"[""period""]",0,[0.40800000000001546],15,0,15,0,1
,,,,,,,6017c9139ab598a3d61b6c64,,,,,,6017c9139ab598a3d61b6c64,Mężczyzna,19,2021-09-06_19h17.36.166,rantool2,2021.1.4,Win32,59.94125757,6135e006383e6ea6c3d06a28,61364d16f4218dcbf4a5b230,"[""period"",""comma""]",0,"[0.29199999999997317,1.8281000000014842]",16,0,16,0,1
,,,,,,,6017c9139ab598a3d61b6c64,,,,,,6017c9139ab598a3d61b6c64,Mężczyzna,19,2021-09-06_19h17.36.166,rantool2,2021.1.4,Win32,59.94125757,6135e006383e6ea6c3d06a28,61364d16f4218dcbf4a5b230,"[""comma"",""comma""]",0,"[0.3278000000007637,0.9958000000007701]",17,0,17,0,1
,,,,,,,6017c9139ab598a3d61b6c64,,,,,,6017c9139ab598a3d61b6c64,Mężczyzna,19,2021-09-06_19h17.36.166,rantool2,2021.1.4,Win32,59.94125757,6135e006383e6ea6c3d06a28,61364d16f4218dcbf4a5b230,"[""period"",""period""]",0,"[0.28030000000075006,1.9033000000007405]",18,0,18,0,1
,,,,,,,6017c9139ab598a3d61b6c64,,,,,,6017c9139ab598a3d61b6c64,Mężczyzna,19,2021-09-06_19h17.36.166,rantool2,2021.1.4,Win32,59.94125757,6135e006383e6ea6c3d06a28,61364d16f4218dcbf4a5b230,"[""period"",""comma"",""comma"",""comma""]",0,"[0.14719999999925903,0.7950999999977739,1.5190999999977635,1.8550999999977762]",19,0,19,0,1
,,,,,,,6017c9139ab598a3d61b6c64,,,,,,6017c9139ab598a3d61b6c64,Mężczyzna,19,2021-09-06_19h17.36.166,rantool2,2021.1.4,Win32,59.94125757,6135e006383e6ea6c3d06a28,61364d16f4218dcbf4a5b230,"[""comma"",""comma"",""comma"",""comma"",""comma"",""comma"",""comma""]",0,"[0.14310000000148193,0.3591999999992481,0.5913999999984867,0.7958000000007246,0.9875000000000114,1.1871999999992227,1.3836999999992372]",20,0,20,0,1
,,,,,,,6017c9139ab598a3d61b6c64,,,,,,6017c9139ab598a3d61b6c64,Mężczyzna,19,2021-09-06_19h17.36.166,rantool2,2021.1.4,Win32,59.94125757,6135e006383e6ea6c3d06a28,61364d16f4218dcbf4a5b230,"[""comma""]",0,[0.23509999999777165],21,0,21,0,1
,,,,,,,6017c9139ab598a3d61b6c64,,,,,,6017c9139ab598a3d61b6c64,Mężczyzna,19,2021-09-06_19h17.36.166,rantool2,2021.1.4,Win32,59.94125757,6135e006383e6ea6c3d06a28,61364d16f4218dcbf4a5b230,"[""comma""]",0,[0.3229999999999791],22,0,22,0,1
,,,,,,,6017c9139ab598a3d61b6c64,,,,,,6017c9139ab598a3d61b6c64,Mężczyzna,19,2021-09-06_19h17.36.166,rantool2,2021.1.4,Win32,59.94125757,6135e006383e6ea6c3d06a28,61364d16f4218dcbf4a5b230,"[""period"",""period""]",0,"[0.2551999999992631,1.7270999999977903]",23,0,23,0,1
,,,,,,,6017c9139ab598a3d61b6c64,,,,,,6017c9139ab598a3d61b6c64,Mężczyzna,19,2021-09-06_19h17.36.166,rantool2,2021.1.4,Win32,59.94125757,6135e006383e6ea6c3d06a28,61364d16f4218dcbf4a5b230,"[""period"",""period"",""period""]",0,"[0.2349999999999568,1.000600000001441,1.7859000000021865]",24,0,24,0,1
,,,,,,,6017c9139ab598a3d61b6c64,,,,,,6017c9139ab598a3d61b6c64,Mężczyzna,19,2021-09-06_19h17.36.166,rantool2,2021.1.4,Win32,59.94125757,6135e006383e6ea6c3d06a28,61364d16f4218dcbf4a5b230,"[""period"",""comma"",""comma""]",0,"[0.10620000000295704,0.9184999999999945,1.6543000000007737]",25,0,25,0,1
,,,,,,,6017c9139ab598a3d61b6c64,,,,,,6017c9139ab598a3d61b6c64,Mężczyzna,19,2021-09-06_19h17.36.166,rantool2,2021.1.4,Win32,59.94125757,6135e006383e6ea6c3d06a28,61364d16f4218dcbf4a5b230,"[""comma""]",0,[0.2621999999992113],26,0,26,0,1
,,,,,,,6017c9139ab598a3d61b6c64,,,,,,6017c9139ab598a3d61b6c64,Mężczyzna,19,2021-09-06_19h17.36.166,rantool2,2021.1.4,Win32,59.94125757,6135e006383e6ea6c3d06a28,61364d16f4218dcbf4a5b230,"[""comma""]",0,[0.1423000000007164],27,0,27,0,1
,,,,,,,6017c9139ab598a3d61b6c64,,,,,,6017c9139ab598a3d61b6c64,Mężczyzna,19,2021-09-06_19h17.36.166,rantool2,2021.1.4,Win32,59.94125757,6135e006383e6ea6c3d06a28,61364d16f4218dcbf4a5b230,"[""period""]",0,[0.29030000000074097],28,0,28,0,1
,,,,,,,6017c9139ab598a3d61b6c64,,,,,,6017c9139ab598a3d61b6c64,Mężczyzna,19,2021-09-06_19h17.36.166,rantool2,2021.1.4,Win32,59.94125757,6135e006383e6ea6c3d06a28,61364d16f4218dcbf4a5b230,"[""period""]",0,[0.27039999999851716],29,0,29,0,1
,,,,,,,6017c9139ab598a3d61b6c64,,,,,,6017c9139ab598a3d61b6c64,Mężczyzna,19,2021-09-06_19h17.36.166,rantool2,2021.1.4,Win32,59.94125757,6135e006383e6ea6c3d06a28,61364d16f4218dcbf4a5b230,"[""comma""]",0,[0.12660000000153104],30,0,30,0,1
,,,,,,,6017c9139ab598a3d61b6c64,,,,,,6017c9139ab598a3d61b6c64,Mężczyzna,19,2021-09-06_19h17.36.166,rantool2,2021.1.4,Win32,59.94125757,6135e006383e6ea6c3d06a28,61364d16f4218dcbf4a5b230,"[""period""]",0,[0.06639999999850943],31,0,31,0,1
,,,,,,,6017c9139ab598a3d61b6c64,,,,,,6017c9139ab598a3d61b6c64,Mężczyzna,19,2021-09-06_19h17.36.166,rantool2,2021.1.4,Win32,59.94125757,6135e006383e6ea6c3d06a28,61364d16f4218dcbf4a5b230,"[""period"",""comma""]",0,"[0.06139999999851398,1.8053999999984853]",32,0,32,0,1
,,,,,,,6017c9139ab598a3d61b6c64,,,,,,6017c9139ab598a3d61b6c64,Mężczyzna,19,2021-09-06_19h17.36.166,rantool2,2021.1.4,Win32,59.94125757,6135e006383e6ea6c3d06a28,61364d16f4218dcbf4a5b230,0,0,,33,0,33,0,1
,,,,,,,6017c9139ab598a3d61b6c64,,,,,,6017c9139ab598a3d61b6c64,Mężczyzna,19,2021-09-06_19h17.36.166,rantool2,2021.1.4,Win32,59.94125757,6135e006383e6ea6c3d06a28,61364d16f4218dcbf4a5b230,"[""comma""]",0,[0.29340000000223654],34,0,34,0,1
,,,,,,,6017c9139ab598a3d61b6c64,,,,,,6017c9139ab598a3d61b6c64,Mężczyzna,19,2021-09-06_19h17.36.166,rantool2,2021.1.4,Win32,59.94125757,6135e006383e6ea6c3d06a28,61364d16f4218dcbf4a5b230,"[""period""]",0,[0.2573999999984835],35,0,35,0,1
,,,,,,,6017c9139ab598a3d61b6c64,,,,,,6017c9139ab598a3d61b6c64,Mężczyzna,19,2021-09-06_19h17.36.166,rantool2,2021.1.4,Win32,59.94125757,6135e006383e6ea6c3d06a28,61364d16f4218dcbf4a5b230,"[""period""]",0,[0.3336999999992827],36,0,36,0,1
,,,,,,,6017c9139ab598a3d61b6c64,,,,,,6017c9139ab598a3d61b6c64,Mężczyzna,19,2021-09-06_19h17.36.166,rantool2,2021.1.4,Win32,59.94125757,6135e006383e6ea6c3d06a28,61364d16f4218dcbf4a5b230,"[""comma""]",0,[0.30499999999995],37,0,37,0,1
,,,,,,,6017c9139ab598a3d61b6c64,,,,,,6017c9139ab598a3d61b6c64,Mężczyzna,19,2021-09-06_19h17.36.166,rantool2,2021.1.4,Win32,59.94125757,6135e006383e6ea6c3d06a28,61364d16f4218dcbf4a5b230,"[""period""]",0,[0.3003999999984899],38,0,38,0,1
,,,,,,,6017c9139ab598a3d61b6c64,,,,,,6017c9139ab598a3d61b6c64,Mężczyzna,19,2021-09-06_19h17.36.166,rantool2,2021.1.4,Win32,59.94125757,6135e006383e6ea6c3d06a28,61364d16f4218dcbf4a5b230,"[""period"",""comma""]",0,"[0.2881000000015206,1.7203000000007478]",39,0,39,0,1
,,,,,,,6017c9139ab598a3d61b6c64,,,,,,6017c9139ab598a3d61b6c64,Mężczyzna,19,2021-09-06_19h17.36.166,rantool2,2021.1.4,Win32,59.94125757,6135e006383e6ea6c3d06a28,61364d16f4218dcbf4a5b230,"[""comma""]",0,[0.2883999999984894],40,0,40,0,1
,,,,,,,6017c9139ab598a3d61b6c64,,,,,,6017c9139ab598a3d61b6c64,Mężczyzna,19,2021-09-06_19h17.36.166,rantool2,2021.1.4,Win32,59.94125757,6135e006383e6ea6c3d06a28,61364d16f4218dcbf4a5b230,"[""period"",""comma""]",0,"[0.28400000000004866,1.6361999999992918]",41,0,41,0,1
,,,,,,,6017c9139ab598a3d61b6c64,,,,,,6017c9139ab598a3d61b6c64,Mężczyzna,19,2021-09-06_19h17.36.166,rantool2,2021.1.4,Win32,59.94125757,6135e006383e6ea6c3d06a28,61364d16f4218dcbf4a5b230,"[""comma""]",0,[0.4758000000007314],42,0,42,0,1
,,,,,,,6017c9139ab598a3d61b6c64,,,,,,6017c9139ab598a3d61b6c64,Mężczyzna,19,2021-09-06_19h17.36.166,rantool2,2021.1.4,Win32,59.94125757,6135e006383e6ea6c3d06a28,61364d16f4218dcbf4a5b230,"[""comma"",""comma""]",0,"[0.12400000000002365,1.8920999999978108]",43,0,43,0,1
,,,,,,,6017c9139ab598a3d61b6c64,,,,,,6017c9139ab598a3d61b6c64,Mężczyzna,19,2021-09-06_19h17.36.166,rantool2,2021.1.4,Win32,59.94125757,6135e006383e6ea6c3d06a28,61364d16f4218dcbf4a5b230,"[""comma"",""period""]",0,"[0.32719999999926586,1.8391000000014515]",44,0,44,0,1
,,,,,,,6017c9139ab598a3d61b6c64,,,,,,6017c9139ab598a3d61b6c64,Mężczyzna,19,2021-09-06_19h17.36.166,rantool2,2021.1.4,Win32,59.94125757,6135e006383e6ea6c3d06a28,61364d16f4218dcbf4a5b230,"[""period"",""period"",""period""]",0,"[0.047299999997051145,0.25179999999704705,0.47909999999779984]",45,0,45,0,1
,,,,,,,6017c9139ab598a3d61b6c64,,,,,,6017c9139ab598a3d61b6c64,Mężczyzna,19,2021-09-06_19h17.36.166,rantool2,2021.1.4,Win32,59.94125757,6135e006383e6ea6c3d06a28,61364d16f4218dcbf4a5b230,"[""period""]",0,[0.30750000000000455],46,0,46,0,1
,,,,,,,6017c9139ab598a3d61b6c64,,,,,,6017c9139ab598a3d61b6c64,Mężczyzna,19,2021-09-06_19h17.36.166,rantool2,2021.1.4,Win32,59.94125757,6135e006383e6ea6c3d06a28,61364d16f4218dcbf4a5b230,"[""period"",""period"",""period"",""period""]",0,"[0.2753000000007546,0.4833000000007246,0.6791000000014833,1.9331999999992604]",47,0,47,0,1
,,,,,,,6017c9139ab598a3d61b6c64,,,,,,6017c9139ab598a3d61b6c64,Mężczyzna,19,2021-09-06_19h17.36.166,rantool2,2021.1.4,Win32,59.94125757,6135e006383e6ea6c3d06a28,61364d16f4218dcbf4a5b230,"[""period""]",0,[0.23239999999850625],48,0,48,0,1
,,,,,,,6017c9139ab598a3d61b6c64,,,,,,6017c9139ab598a3d61b6c64,Mężczyzna,19,2021-09-06_19h17.36.166,rantool2,2021.1.4,Win32,59.94125757,6135e006383e6ea6c3d06a28,61364d16f4218dcbf4a5b230,"[""comma""]",0,[0.2669999999999959],49,0,49,0,1
,,,,,,,6017c9139ab598a3d61b6c64,,,,,,6017c9139ab598a3d61b6c64,Mężczyzna,19,2021-09-06_19h17.36.166,rantool2,2021.1.4,Win32,59.94125757,6135e006383e6ea6c3d06a28,61364d16f4218dcbf4a5b230,"[""comma""]",0,[0.29159999999779984],50,0,50,0,1
,,,,,,,6017c9139ab598a3d61b6c64,,,,,,6017c9139ab598a3d61b6c64,Mężczyzna,19,2021-09-06_19h17.36.166,rantool2,2021.1.4,Win32,59.94125757,6135e006383e6ea6c3d06a28,61364d16f4218dcbf4a5b230,"[""period""]",0,[0.4066000000014469],51,0,51,0,1
,,,,,,,6017c9139ab598a3d61b6c64,,,,,,6017c9139ab598a3d61b6c64,Mężczyzna,19,2021-09-06_19h17.36.166,rantool2,2021.1.4,Win32,59.94125757,6135e006383e6ea6c3d06a28,61364d16f4218dcbf4a5b230,"[""period""]",0,[0.24659999999778393],52,0,52,0,1
,,,,,,,6017c9139ab598a3d61b6c64,,,,,,6017c9139ab598a3d61b6c64,Mężczyzna,19,2021-09-06_19h17.36.166,rantool2,2021.1.4,Win32,59.94125757,6135e006383e6ea6c3d06a28,61364d16f4218dcbf4a5b230,"[""comma"",""period""]",0,"[0.22269999999929269,1.626600000001531]",53,0,53,0,1
,,,,,,,6017c9139ab598a3d61b6c64,,,,,,6017c9139ab598a3d61b6c64,Mężczyzna,19,2021-09-06_19h17.36.166,rantool2,2021.1.4,Win32,59.94125757,6135e006383e6ea6c3d06a28,61364d16f4218dcbf4a5b230,"[""period""]",0,[0.8385000000000105],54,0,54,0,1
,,,,,,,6017c9139ab598a3d61b6c64,,,,,,6017c9139ab598a3d61b6c64,Mężczyzna,19,2021-09-06_19h17.36.166,rantool2,2021.1.4,Win32,59.94125757,6135e006383e6ea6c3d06a28,61364d16f4218dcbf4a5b230,"[""comma"",""comma""]",0,"[0.01019999999925858,0.3701999999992154]",55,0,55,0,1
,,,,,,,6017c9139ab598a3d61b6c64,,,,,,6017c9139ab598a3d61b6c64,Mężczyzna,19,2021-09-06_19h17.36.166,rantool2,2021.1.4,Win32,59.94125757,6135e006383e6ea6c3d06a28,61364d16f4218dcbf4a5b230,"[""period""]",0,[0.25069999999925585],56,0,56,0,1
,,,,,,,6017c9139ab598a3d61b6c64,,,,,,6017c9139ab598a3d61b6c64,Mężczyzna,19,2021-09-06_19h17.36.166,rantool2,2021.1.4,Win32,59.94125757,6135e006383e6ea6c3d06a28,61364d16f4218dcbf4a5b230,"[""comma"",""period""]",0,"[0.04510000000146874,1.1833999999984712]",57,0,57,0,1
,,,,,,,6017c9139ab598a3d61b6c64,,,,,,6017c9139ab598a3d61b6c64,Mężczyzna,19,2021-09-06_19h17.36.166,rantool2,2021.1.4,Win32,59.94125757,6135e006383e6ea6c3d06a28,61364d16f4218dcbf4a5b230,"[""period"",""period""]",0,"[0.0571999999992272,1.8933999999985076]",58,0,58,0,1
,,,,,,,6017c9139ab598a3d61b6c64,,,,,,6017c9139ab598a3d61b6c64,Mężczyzna,19,2021-09-06_19h17.36.166,rantool2,2021.1.4,Win32,59.94125757,6135e006383e6ea6c3d06a28,61364d16f4218dcbf4a5b230,"[""period"",""comma"",""comma""]",0,"[0.26959999999775164,1.729599999997788,1.9575999999977967]",59,0,59,0,1
,,,,,,,6017c9139ab598a3d61b6c64,,,,,,6017c9139ab598a3d61b6c64,Mężczyzna,19,2021-09-06_19h17.36.166,rantool2,2021.1.4,Win32,59.94125757,6135e006383e6ea6c3d06a28,61364d16f4218dcbf4a5b230,"[""comma"",""comma"",""period""]",0,"[0.12530000000077735,0.35320000000297114,1.9295000000000186]",60,0,60,0,1
,,,,,,,6017c9139ab598a3d61b6c64,,,,,,6017c9139ab598a3d61b6c64,Mężczyzna,19,2021-09-06_19h17.36.166,rantool2,2021.1.4,Win32,59.94125757,6135e006383e6ea6c3d06a28,61364d16f4218dcbf4a5b230,"[""period""]",0,[0.2257000000029734],61,0,61,0,1
,,,,,,,6017c9139ab598a3d61b6c64,,,,,,6017c9139ab598a3d61b6c64,Mężczyzna,19,2021-09-06_19h17.36.166,rantool2,2021.1.4,Win32,59.94125757,6135e006383e6ea6c3d06a28,61364d16f4218dcbf4a5b230,"[""comma""]",0,[0.2857000000029757],62,0,62,0,1
,,,,,,,6017c9139ab598a3d61b6c64,,,,,,6017c9139ab598a3d61b6c64,Mężczyzna,19,2021-09-06_19h17.36.166,rantool2,2021.1.4,Win32,59.94125757,6135e006383e6ea6c3d06a28,61364d16f4218dcbf4a5b230,"[""period"",""comma""]",0,"[0.28360000000145646,1.960800000000745]",63,0,63,0,1
,,,,,,,6017c9139ab598a3d61b6c64,,,,,,6017c9139ab598a3d61b6c64,Mężczyzna,19,2021-09-06_19h17.36.166,rantool2,2021.1.4,Win32,59.94125757,6135e006383e6ea6c3d06a28,61364d16f4218dcbf4a5b230,"[""comma""]",0,[1.6526999999992427],64,0,64,0,1
,,,,,,,6017c9139ab598a3d61b6c64,,,,,,6017c9139ab598a3d61b6c64,Mężczyzna,19,2021-09-06_19h17.36.166,rantool2,2021.1.4,Win32,59.94125757,6135e006383e6ea6c3d06a28,61364d16f4218dcbf4a5b230,"[""comma""]",0,[0.5283999999984985],65,0,65,0,1
,,,,,,,6017c9139ab598a3d61b6c64,,,,,,6017c9139ab598a3d61b6c64,Mężczyzna,19,2021-09-06_19h17.36.166,rantool2,2021.1.4,Win32,59.94125757,6135e006383e6ea6c3d06a28,61364d16f4218dcbf4a5b230,"[""comma""]",0,[0.3566999999992504],66,0,66,0,1
,,,,,,,6017c9139ab598a3d61b6c64,,,,,,6017c9139ab598a3d61b6c64,Mężczyzna,19,2021-09-06_19h17.36.166,rantool2,2021.1.4,Win32,59.94125757,6135e006383e6ea6c3d06a28,61364d16f4218dcbf4a5b230,"[""period""]",0,[0.6205999999977507],67,0,67,0,1
,,,,,,,6017c9139ab598a3d61b6c64,,,,,,6017c9139ab598a3d61b6c64,Mężczyzna,19,2021-09-06_19h17.36.166,rantool2,2021.1.4,Win32,59.94125757,6135e006383e6ea6c3d06a28,61364d16f4218dcbf4a5b230,"[""comma""]",0,[0.6727000000029761],68,0,68,0,1
,,,,,,,6017c9139ab598a3d61b6c64,,,,,,6017c9139ab598a3d61b6c64,Mężczyzna,19,2021-09-06_19h17.36.166,rantool2,2021.1.4,Win32,59.94125757,6135e006383e6ea6c3d06a28,61364d16f4218dcbf4a5b230,"[""comma""]",0,[0.28219999999924994],69,0,69,0,1
,,,,,,,6017c9139ab598a3d61b6c64,,,,,,6017c9139ab598a3d61b6c64,Mężczyzna,19,2021-09-06_19h17.36.166,rantool2,2021.1.4,Win32,59.94125757,6135e006383e6ea6c3d06a28,61364d16f4218dcbf4a5b230,"[""period"",""period"",""period""]",0,"[0.26730000000077325,0.9274000000022511,1.8795000000000073]",70,0,70,0,1
,,,,,,,6017c9139ab598a3d61b6c64,,,,,,6017c9139ab598a3d61b6c64,Mężczyzna,19,2021-09-06_19h17.36.166,rantool2,2021.1.4,Win32,59.94125757,6135e006383e6ea6c3d06a28,61364d16f4218dcbf4a5b230,"[""period"",""period"",""period"",""period""]",0,"[0.12789999999847623,0.2958999999984826,0.543899999998473,1.9173000000007505]",71,0,71,0,1
,,,,,,,6017c9139ab598a3d61b6c64,,,,,,6017c9139ab598a3d61b6c64,Mężczyzna,19,2021-09-06_19h17.36.166,rantool2,2021.1.4,Win32,59.94125757,6135e006383e6ea6c3d06a28,61364d16f4218dcbf4a5b230,"[""period"",""period"",""period""]",0,"[0.2561000000014815,0.48780000000073187,0.779700000002947]",72,0,72,0,1
,,,,,,,6017c9139ab598a3d61b6c64,,,,,,6017c9139ab598a3d61b6c64,Mężczyzna,19,2021-09-06_19h17.36.166,rantool2,2021.1.4,Win32,59.94125757,6135e006383e6ea6c3d06a28,61364d16f4218dcbf4a5b230,"[""period"",""period""]",0,"[0.2198000000007596,0.4958000000007132]",73,0,73,0,1
,,,,,,,6017c9139ab598a3d61b6c64,,,,,,6017c9139ab598a3d61b6c64,Mężczyzna,19,2021-09-06_19h17.36.166,rantool2,2021.1.4,Win32,59.94125757,6135e006383e6ea6c3d06a28,61364d16f4218dcbf4a5b230,"[""period"",""period""]",0,"[0.26400000000001,0.543800000000715]",74,0,74,0,1
,,,,,,,6017c9139ab598a3d61b6c64,,,,,,6017c9139ab598a3d61b6c64,Mężczyzna,19,2021-09-06_19h17.36.166,rantool2,2021.1.4,Win32,59.94125757,6135e006383e6ea6c3d06a28,61364d16f4218dcbf4a5b230,"[""period"",""period"",""period""]",0,"[0.2440000000000282,0.9879999999999995,1.8079999999999927]",75,0,75,0,1
,,,,,,,6017c9139ab598a3d61b6c64,,,,,,6017c9139ab598a3d61b6c64,Mężczyzna,19,2021-09-06_19h17.36.166,rantool2,2021.1.4,Win32,59.94125757,6135e006383e6ea6c3d06a28,61364d16f4218dcbf4a5b230,"[""period"",""comma""]",0,"[0.6747000000029857,1.8587000000029548]",76,0,76,0,1
,,,,,,,6017c9139ab598a3d61b6c64,,,,,,6017c9139ab598a3d61b6c64,Mężczyzna,19,2021-09-06_19h17.36.166,rantool2,2021.1.4,Win32,59.94125757,6135e006383e6ea6c3d06a28,61364d16f4218dcbf4a5b230,"[""comma""]",0,[0.28680000000071004],77,0,77,0,1
,,,,,,,6017c9139ab598a3d61b6c64,,,,,,6017c9139ab598a3d61b6c64,Mężczyzna,19,2021-09-06_19h17.36.166,rantool2,2021.1.4,Win32,59.94125757,6135e006383e6ea6c3d06a28,61364d16f4218dcbf4a5b230,"[""comma""]",0,[0.2788999999984867],78,0,78,0,1
,,,,,,,6017c9139ab598a3d61b6c64,,,,,,6017c9139ab598a3d61b6c64,Mężczyzna,19,2021-09-06_19h17.36.166,rantool2,2021.1.4,Win32,59.94125757,6135e006383e6ea6c3d06a28,61364d16f4218dcbf4a5b230,"[""comma"",""comma""]",0,"[0.23120000000295704,1.8589000000022224]",79,0,79,0,1
,,,,,,,6017c9139ab598a3d61b6c64,,,,,,6017c9139ab598a3d61b6c64,Mężczyzna,19,2021-09-06_19h17.36.166,rantool2,2021.1.4,Win32,59.94125757,6135e006383e6ea6c3d06a28,61364d16f4218dcbf4a5b230,"[""comma""]",0,[0.2950000000000159],80,0,80,0,1
,,,,,,,6017c9139ab598a3d61b6c64,,,,,,6017c9139ab598a3d61b6c64,Mężczyzna,19,2021-09-06_19h17.36.166,rantool2,2021.1.4,Win32,59.94125757,6135e006383e6ea6c3d06a28,61364d16f4218dcbf4a5b230,"[""comma"",""comma""]",0,"[0.03849999999999909,1.962500000000034]",81,0,81,0,1
,,,,,,,6017c9139ab598a3d61b6c64,,,,,,6017c9139ab598a3d61b6c64,Mężczyzna,19,2021-09-06_19h17.36.166,rantool2,2021.1.4,Win32,59.94125757,6135e006383e6ea6c3d06a28,61364d16f4218dcbf4a5b230,0,0,,82,0,82,0,1
,,,,,,,6017c9139ab598a3d61b6c64,,,,,,6017c9139ab598a3d61b6c64,Mężczyzna,19,2021-09-06_19h17.36.166,rantool2,2021.1.4,Win32,59.94125757,6135e006383e6ea6c3d06a28,61364d16f4218dcbf4a5b230,"[""comma""]",0,[0.2058999999985076],83,0,83,0,1
,,,,,,,6017c9139ab598a3d61b6c64,,,,,,6017c9139ab598a3d61b6c64,Mężczyzna,19,2021-09-06_19h17.36.166,rantool2,2021.1.4,Win32,59.94125757,6135e006383e6ea6c3d06a28,61364d16f4218dcbf4a5b230,"[""comma""]",0,[0.23740000000225336],84,0,84,0,1
,,,,,,,6017c9139ab598a3d61b6c64,,,,,,6017c9139ab598a3d61b6c64,Mężczyzna,19,2021-09-06_19h17.36.166,rantool2,2021.1.4,Win32,59.94125757,6135e006383e6ea6c3d06a28,61364d16f4218dcbf4a5b230,"[""comma""]",0,[0.2836999999992713],85,0,85,0,1
,,,,,,,6017c9139ab598a3d61b6c64,,,,,,6017c9139ab598a3d61b6c64,Mężczyzna,19,2021-09-06_19h17.36.166,rantool2,2021.1.4,Win32,59.94125757,6135e006383e6ea6c3d06a28,61364d16f4218dcbf4a5b230,"[""period""]",0,[0.28369999999921447],86,0,86,0,1
,,,,,,,6017c9139ab598a3d61b6c64,,,,,,6017c9139ab598a3d61b6c64,Mężczyzna,19,2021-09-06_19h17.36.166,rantool2,2021.1.4,Win32,59.94125757,6135e006383e6ea6c3d06a28,61364d16f4218dcbf4a5b230,"[""period""]",0,[0.2895999999977903],87,0,87,0,1
,,,,,,,6017c9139ab598a3d61b6c64,,,,,,6017c9139ab598a3d61b6c64,Mężczyzna,19,2021-09-06_19h17.36.166,rantool2,2021.1.4,Win32,59.94125757,6135e006383e6ea6c3d06a28,61364d16f4218dcbf4a5b230,"[""period""]",0,[0.26959999999775164],88,0,88,0,1
,,,,,,,6017c9139ab598a3d61b6c64,,,,,,6017c9139ab598a3d61b6c64,Mężczyzna,19,2021-09-06_19h17.36.166,rantool2,2021.1.4,Win32,59.94125757,6135e006383e6ea6c3d06a28,61364d16f4218dcbf4a5b230,"[""period""]",0,[0.6890999999977794],89,0,89,0,1
,,,,,,,6017c9139ab598a3d61b6c64,,,,,,6017c9139ab598a3d61b6c64,Mężczyzna,19,2021-09-06_19h17.36.166,rantool2,2021.1.4,Win32,59.94125757,6135e006383e6ea6c3d06a28,61364d16f4218dcbf4a5b230,"[""period""]",0,[0.3928000000007046],90,0,90,0,1
,,,,,,,6017c9139ab598a3d61b6c64,,,,,,6017c9139ab598a3d61b6c64,Mężczyzna,19,2021-09-06_19h17.36.166,rantool2,2021.1.4,Win32,59.94125757,6135e006383e6ea6c3d06a28,61364d16f4218dcbf4a5b230,"[""comma"",""period""]",0,"[0.28880000000077644,1.941000000000031]",91,0,91,0,1
,,,,,,,6017c9139ab598a3d61b6c64,,,,,,6017c9139ab598a3d61b6c64,Mężczyzna,19,2021-09-06_19h17.36.166,rantool2,2021.1.4,Win32,59.94125757,6135e006383e6ea6c3d06a28,61364d16f4218dcbf4a5b230,0,0,,92,0,92,0,1
,,,,,,,6017c9139ab598a3d61b6c64,,,,,,6017c9139ab598a3d61b6c64,Mężczyzna,19,2021-09-06_19h17.36.166,rantool2,2021.1.4,Win32,59.94125757,6135e006383e6ea6c3d06a28,61364d16f4218dcbf4a5b230,"[""comma""]",0,[0.22090000000224563],93,0,93,0,1
,,,,,,,6017c9139ab598a3d61b6c64,,,,,,6017c9139ab598a3d61b6c64,Mężczyzna,19,2021-09-06_19h17.36.166,rantool2,2021.1.4,Win32,59.94125757,6135e006383e6ea6c3d06a28,61364d16f4218dcbf4a5b230,"[""comma""]",0,[0.13710000000151013],94,0,94,0,1
,,,,,,,6017c9139ab598a3d61b6c64,,,,,,6017c9139ab598a3d61b6c64,Mężczyzna,19,2021-09-06_19h17.36.166,rantool2,2021.1.4,Win32,59.94125757,6135e006383e6ea6c3d06a28,61364d16f4218dcbf4a5b230,"[""comma""]",0,[0.27659999999775664],95,0,95,0,1
,,,,,,,6017c9139ab598a3d61b6c64,,,,,,6017c9139ab598a3d61b6c64,Mężczyzna,19,2021-09-06_19h17.36.166,rantool2,2021.1.4,Win32,59.94125757,6135e006383e6ea6c3d06a28,61364d16f4218dcbf4a5b230,"[""period""]",0,[0.2881999999992786],96,0,96,0,1
,,,,,,,6017c9139ab598a3d61b6c64,,,,,,6017c9139ab598a3d61b6c64,Mężczyzna,19,2021-09-06_19h17.36.166,rantool2,2021.1.4,Win32,59.94125757,6135e006383e6ea6c3d06a28,61364d16f4218dcbf4a5b230,"[""period""]",0,[0.25030000000077735],97,0,97,0,1
,,,,,,,6017c9139ab598a3d61b6c64,,,,,,6017c9139ab598a3d61b6c64,Mężczyzna,19,2021-09-06_19h17.36.166,rantool2,2021.1.4,Win32,59.94125757,6135e006383e6ea6c3d06a28,61364d16f4218dcbf4a5b230,"[""period""]",0,[0.2561000000014815],98,0,98,0,1
,,,,,,,6017c9139ab598a3d61b6c64,,,,,,6017c9139ab598a3d61b6c64,Mężczyzna,19,2021-09-06_19h17.36.166,rantool2,2021.1.4,Win32,59.94125757,6135e006383e6ea6c3d06a28,61364d16f4218dcbf4a5b230,"[""period""]",0,[0.2921999999992977],99,0,99,0,1
,,,,,,,6017c9139ab598a3d61b6c64,,,,,,6017c9139ab598a3d61b6c64,Mężczyzna,19,2021-09-06_19h17.36.166,rantool2,2021.1.4,Win32,59.94125757,6135e006383e6ea6c3d06a28,61364d16f4218dcbf4a5b230,"[""comma""]",0,[0.3006999999992672],100,0,100,0,1
,,,,,,,6017c9139ab598a3d61b6c64,,,,,,6017c9139ab598a3d61b6c64,Mężczyzna,19,2021-09-06_19h17.36.166,rantool2,2021.1.4,Win32,59.94125757,6135e006383e6ea6c3d06a28,61364d16f4218dcbf4a5b230,"[""comma""]",0,[0.3281000000014842],101,0,101,0,1
,,,,,,,6017c9139ab598a3d61b6c64,,,,,,6017c9139ab598a3d61b6c64,Mężczyzna,19,2021-09-06_19h17.36.166,rantool2,2021.1.4,Win32,59.94125757,6135e006383e6ea6c3d06a28,61364d16f4218dcbf4a5b230,"[""comma""]",0,[0.271099999997773],102,0,102,0,1
,,,,,,,6017c9139ab598a3d61b6c64,,,,,,6017c9139ab598a3d61b6c64,Mężczyzna,19,2021-09-06_19h17.36.166,rantool2,2021.1.4,Win32,59.94125757,6135e006383e6ea6c3d06a28,61364d16f4218dcbf4a5b230,"[""comma""]",0,[0.5230999999977826],103,0,103,0,1
,,,,,,,6017c9139ab598a3d61b6c64,,,,,,6017c9139ab598a3d61b6c64,Mężczyzna,19,2021-09-06_19h17.36.166,rantool2,2021.1.4,Win32,59.94125757,6135e006383e6ea6c3d06a28,61364d16f4218dcbf4a5b230,"[""comma""]",0,[0.6712000000029548],104,0,104,0,1
,,,,,,,6017c9139ab598a3d61b6c64,,,,,,6017c9139ab598a3d61b6c64,Mężczyzna,19,2021-09-06_19h17.36.166,rantool2,2021.1.4,Win32,59.94125757,6135e006383e6ea6c3d06a28,61364d16f4218dcbf4a5b230,"[""comma"",""period""]",0,"[0.28310000000152513,0.43919999999928905]",105,0,105,0,1
,,,,,,,6017c9139ab598a3d61b6c64,,,,,,6017c9139ab598a3d61b6c64,Mężczyzna,19,2021-09-06_19h17.36.166,rantool2,2021.1.4,Win32,59.94125757,6135e006383e6ea6c3d06a28,61364d16f4218dcbf4a5b230,"[""period"",""period""]",0,"[0.28389999999848214,1.9000999999977353]",106,0,106,0,1
,,,,,,,6017c9139ab598a3d61b6c64,,,,,,6017c9139ab598a3d61b6c64,Mężczyzna,19,2021-09-06_19h17.36.166,rantool2,2021.1.4,Win32,59.94125757,6135e006383e6ea6c3d06a28,61364d16f4218dcbf4a5b230,0,0,,107,0,107,0,1
,,,,,,,6017c9139ab598a3d61b6c64,,,,,,6017c9139ab598a3d61b6c64,Mężczyzna,19,2021-09-06_19h17.36.166,rantool2,2021.1.4,Win32,59.94125757,6135e006383e6ea6c3d06a28,61364d16f4218dcbf4a5b230,"[""comma""]",0,[0.5912000000030275],108,0,108,0,1
,,,,,,,6017c9139ab598a3d61b6c64,,,,,,6017c9139ab598a3d61b6c64,Mężczyzna,19,2021-09-06_19h17.36.166,rantool2,2021.1.4,Win32,59.94125757,6135e006383e6ea6c3d06a28,61364d16f4218dcbf4a5b230,"[""period""]",0,[0.3228000000008251],109,0,109,0,1
,,,,,,,6017c9139ab598a3d61b6c64,,,,,,6017c9139ab598a3d61b6c64,Mężczyzna,19,2021-09-06_19h17.36.166,rantool2,2021.1.4,Win32,59.94125757,6135e006383e6ea6c3d06a28,61364d16f4218dcbf4a5b230,"[""period""]",0,[0.42630000000076507],110,0,110,0,1
,,,,,,,6017c9139ab598a3d61b6c64,,,,,,6017c9139ab598a3d61b6c64,Mężczyzna,19,2021-09-06_19h17.36.166,rantool2,2021.1.4,Win32,59.94125757,6135e006383e6ea6c3d06a28,61364d16f4218dcbf4a5b230,"[""comma""]",0,[0.3023000000007414],111,0,111,0,1
,,,,,,,6017c9139ab598a3d61b6c64,,,,,,6017c9139ab598a3d61b6c64,Mężczyzna,19,2021-09-06_19h17.36.166,rantool2,2021.1.4,Win32,59.94125757,6135e006383e6ea6c3d06a28,61364d16f4218dcbf4a5b230,"[""period""]",0,[0.41019999999923584],112,0,112,0,1
,,,,,,,6017c9139ab598a3d61b6c64,,,,,,6017c9139ab598a3d61b6c64,Mężczyzna,19,2021-09-06_19h17.36.166,rantool2,2021.1.4,Win32,59.94125757,6135e006383e6ea6c3d06a28,61364d16f4218dcbf4a5b230,"[""period""]",0,[0.2541000000014719],113,0,113,0,1
,,,,,,,6017c9139ab598a3d61b6c64,,,,,,6017c9139ab598a3d61b6c64,Mężczyzna,19,2021-09-06_19h17.36.166,rantool2,2021.1.4,Win32,59.94125757,6135e006383e6ea6c3d06a28,61364d16f4218dcbf4a5b230,"[""comma""]",0,[0.25039999999842166],114,0,114,0,1
,,,,,,,6017c9139ab598a3d61b6c64,,,,,,6017c9139ab598a3d61b6c64,Mężczyzna,19,2021-09-06_19h17.36.166,rantool2,2021.1.4,Win32,59.94125757,6135e006383e6ea6c3d06a28,61364d16f4218dcbf4a5b230,"[""period""]",0,[0.20930000000066684],115,0,115,0,1
,,,,,,,6017c9139ab598a3d61b6c64,,,,,,6017c9139ab598a3d61b6c64,Mężczyzna,19,2021-09-06_19h17.36.166,rantool2,2021.1.4,Win32,59.94125757,6135e006383e6ea6c3d06a28,61364d16f4218dcbf4a5b230,"[""comma""]",0,[0.2673999999984744],116,0,116,0,1
,,,,,,,6017c9139ab598a3d61b6c64,,,,,,6017c9139ab598a3d61b6c64,Mężczyzna,19,2021-09-06_19h17.36.166,rantool2,2021.1.4,Win32,59.94125757,6135e006383e6ea6c3d06a28,61364d16f4218dcbf4a5b230,"[""comma""]",0,[0.29330000000072687],117,0,117,0,1
,,,,,,,6017c9139ab598a3d61b6c64,,,,,,6017c9139ab598a3d61b6c64,Mężczyzna,19,2021-09-06_19h17.36.166,rantool2,2021.1.4,Win32,59.94125757,6135e006383e6ea6c3d06a28,61364d16f4218dcbf4a5b230,"[""period"",""period""]",0,"[0.04549999999994725,0.5773000000007187]",118,0,118,0,1
,,,,,,,6017c9139ab598a3d61b6c64,,,,,,6017c9139ab598a3d61b6c64,Mężczyzna,19,2021-09-06_19h17.36.166,rantool2,2021.1.4,Win32,59.94125757,6135e006383e6ea6c3d06a28,61364d16f4218dcbf4a5b230,"[""period""]",0,[0.2892000000030066],119,0,119,0,1
