key_resp_5.keys,key_resp_5.corr,key_resp_5.rt,trials.thisRepN,trials.thisTrialN,trials.thisN,trials.thisIndex,trials.ran,id*,Płeć*,Wiek*,date,expName,psychopyVersion,OS,frameRate,id,STUDY_ID,SESSION_ID,key_resp_7.keys,key_resp_7.rt,trials_2.thisRepN,trials_2.thisTrialN,trials_2.thisN,trials_2.thisIndex,trials_2.ran,series_0,series_1,acss_0,acss_1,comparison
"[""period""]",0,[0.6991999999992515],0,0,0,0,1,5e07e32c77f865153f3bfa02,Mężczyzna,26,2021-07-13_22h12.58.799,rantool2,2021.1.4,Win32,59.75857536,5e07e32c77f865153f3bfa02,60d9d14f4a8a35a482e0d9bf,60edf3d91de7599158fad419,,,,,,,,,,,,
"[""comma""]",0,[0.937899999998514],1,0,1,0,1,5e07e32c77f865153f3bfa02,Mężczyzna,26,2021-07-13_22h12.58.799,rantool2,2021.1.4,Win32,59.75857536,5e07e32c77f865153f3bfa02,60d9d14f4a8a35a482e0d9bf,60edf3d91de7599158fad419,,,,,,,,,,,,
"[""period""]",0,[1.0380999999996234],2,0,2,0,1,5e07e32c77f865153f3bfa02,Mężczyzna,26,2021-07-13_22h12.58.799,rantool2,2021.1.4,Win32,59.75857536,5e07e32c77f865153f3bfa02,60d9d14f4a8a35a482e0d9bf,60edf3d91de7599158fad419,,,,,,,,,,,,
"[""comma""]",0,[1.5902000000011256],3,0,3,0,1,5e07e32c77f865153f3bfa02,Mężczyzna,26,2021-07-13_22h12.58.799,rantool2,2021.1.4,Win32,59.75857536,5e07e32c77f865153f3bfa02,60d9d14f4a8a35a482e0d9bf,60edf3d91de7599158fad419,,,,,,,,,,,,
"[""period""]",0,[1.2385999999996216],4,0,4,0,1,5e07e32c77f865153f3bfa02,Mężczyzna,26,2021-07-13_22h12.58.799,rantool2,2021.1.4,Win32,59.75857536,5e07e32c77f865153f3bfa02,60d9d14f4a8a35a482e0d9bf,60edf3d91de7599158fad419,,,,,,,,,,,,
"[""comma""]",0,[1.2432000000011243],5,0,5,0,1,5e07e32c77f865153f3bfa02,Mężczyzna,26,2021-07-13_22h12.58.799,rantool2,2021.1.4,Win32,59.75857536,5e07e32c77f865153f3bfa02,60d9d14f4a8a35a482e0d9bf,60edf3d91de7599158fad419,,,,,,,,,,,,
"[""comma""]",0,[1.0888999999985032],6,0,6,0,1,5e07e32c77f865153f3bfa02,Mężczyzna,26,2021-07-13_22h12.58.799,rantool2,2021.1.4,Win32,59.75857536,5e07e32c77f865153f3bfa02,60d9d14f4a8a35a482e0d9bf,60edf3d91de7599158fad419,,,,,,,,,,,,
"[""comma""]",0,[0.30299999999999727],7,0,7,0,1,5e07e32c77f865153f3bfa02,Mężczyzna,26,2021-07-13_22h12.58.799,rantool2,2021.1.4,Win32,59.75857536,5e07e32c77f865153f3bfa02,60d9d14f4a8a35a482e0d9bf,60edf3d91de7599158fad419,,,,,,,,,,,,
"[""comma""]",0,[0.6057000000011215],8,0,8,0,1,5e07e32c77f865153f3bfa02,Mężczyzna,26,2021-07-13_22h12.58.799,rantool2,2021.1.4,Win32,59.75857536,5e07e32c77f865153f3bfa02,60d9d14f4a8a35a482e0d9bf,60edf3d91de7599158fad419,,,,,,,,,,,,
"[""period""]",0,[0.6544999999999987],9,0,9,0,1,5e07e32c77f865153f3bfa02,Mężczyzna,26,2021-07-13_22h12.58.799,rantool2,2021.1.4,Win32,59.75857536,5e07e32c77f865153f3bfa02,60d9d14f4a8a35a482e0d9bf,60edf3d91de7599158fad419,,,,,,,,,,,,
"[""period""]",0,[0.9198999999985205],10,0,10,0,1,5e07e32c77f865153f3bfa02,Mężczyzna,26,2021-07-13_22h12.58.799,rantool2,2021.1.4,Win32,59.75857536,5e07e32c77f865153f3bfa02,60d9d14f4a8a35a482e0d9bf,60edf3d91de7599158fad419,,,,,,,,,,,,
"[""comma""]",0,[1.4976000000014977],11,0,11,0,1,5e07e32c77f865153f3bfa02,Mężczyzna,26,2021-07-13_22h12.58.799,rantool2,2021.1.4,Win32,59.75857536,5e07e32c77f865153f3bfa02,60d9d14f4a8a35a482e0d9bf,60edf3d91de7599158fad419,,,,,,,,,,,,
"[""period""]",0,[0.7366999999992458],12,0,12,0,1,5e07e32c77f865153f3bfa02,Mężczyzna,26,2021-07-13_22h12.58.799,rantool2,2021.1.4,Win32,59.75857536,5e07e32c77f865153f3bfa02,60d9d14f4a8a35a482e0d9bf,60edf3d91de7599158fad419,,,,,,,,,,,,
0,0,,13,0,13,0,1,5e07e32c77f865153f3bfa02,Mężczyzna,26,2021-07-13_22h12.58.799,rantool2,2021.1.4,Win32,59.75857536,5e07e32c77f865153f3bfa02,60d9d14f4a8a35a482e0d9bf,60edf3d91de7599158fad419,,,,,,,,,,,,
0,0,,14,0,14,0,1,5e07e32c77f865153f3bfa02,Mężczyzna,26,2021-07-13_22h12.58.799,rantool2,2021.1.4,Win32,59.75857536,5e07e32c77f865153f3bfa02,60d9d14f4a8a35a482e0d9bf,60edf3d91de7599158fad419,,,,,,,,,,,,
"[""period""]",0,[0.0843000000007521],15,0,15,0,1,5e07e32c77f865153f3bfa02,Mężczyzna,26,2021-07-13_22h12.58.799,rantool2,2021.1.4,Win32,59.75857536,5e07e32c77f865153f3bfa02,60d9d14f4a8a35a482e0d9bf,60edf3d91de7599158fad419,,,,,,,,,,,,
"[""period""]",0,[0.4560999999996227],16,0,16,0,1,5e07e32c77f865153f3bfa02,Mężczyzna,26,2021-07-13_22h12.58.799,rantool2,2021.1.4,Win32,59.75857536,5e07e32c77f865153f3bfa02,60d9d14f4a8a35a482e0d9bf,60edf3d91de7599158fad419,,,,,,,,,,,,
"[""comma""]",0,[0.03420000000112111],17,0,17,0,1,5e07e32c77f865153f3bfa02,Mężczyzna,26,2021-07-13_22h12.58.799,rantool2,2021.1.4,Win32,59.75857536,5e07e32c77f865153f3bfa02,60d9d14f4a8a35a482e0d9bf,60edf3d91de7599158fad419,,,,,,,,,,,,
"[""period""]",0,[-0.030200000001116223],18,0,18,0,1,5e07e32c77f865153f3bfa02,Mężczyzna,26,2021-07-13_22h12.58.799,rantool2,2021.1.4,Win32,59.75857536,5e07e32c77f865153f3bfa02,60d9d14f4a8a35a482e0d9bf,60edf3d91de7599158fad419,,,,,,,,,,,,
"[""comma"",""comma""]",0,"[0.06850000000000023,1.9320000000000022]",19,0,19,0,1,5e07e32c77f865153f3bfa02,Mężczyzna,26,2021-07-13_22h12.58.799,rantool2,2021.1.4,Win32,59.75857536,5e07e32c77f865153f3bfa02,60d9d14f4a8a35a482e0d9bf,60edf3d91de7599158fad419,,,,,,,,,,,,
"[""period""]",0,[1.7379000000003657],20,0,20,0,1,5e07e32c77f865153f3bfa02,Mężczyzna,26,2021-07-13_22h12.58.799,rantool2,2021.1.4,Win32,59.75857536,5e07e32c77f865153f3bfa02,60d9d14f4a8a35a482e0d9bf,60edf3d91de7599158fad419,,,,,,,,,,,,
"[""period""]",0,[1.0871999999992568],21,0,21,0,1,5e07e32c77f865153f3bfa02,Mężczyzna,26,2021-07-13_22h12.58.799,rantool2,2021.1.4,Win32,59.75857536,5e07e32c77f865153f3bfa02,60d9d14f4a8a35a482e0d9bf,60edf3d91de7599158fad419,,,,,,,,,,,,
"[""period""]",0,[0.15190000000036719],22,0,22,0,1,5e07e32c77f865153f3bfa02,Mężczyzna,26,2021-07-13_22h12.58.799,rantool2,2021.1.4,Win32,59.75857536,5e07e32c77f865153f3bfa02,60d9d14f4a8a35a482e0d9bf,60edf3d91de7599158fad419,,,,,,,,,,,,
"[""comma""]",0,[0.017899999998505223],23,0,23,0,1,5e07e32c77f865153f3bfa02,Mężczyzna,26,2021-07-13_22h12.58.799,rantool2,2021.1.4,Win32,59.75857536,5e07e32c77f865153f3bfa02,60d9d14f4a8a35a482e0d9bf,60edf3d91de7599158fad419,,,,,,,,,,,,
"[""period""]",0,[0.01969999999926131],24,0,24,0,1,5e07e32c77f865153f3bfa02,Mężczyzna,26,2021-07-13_22h12.58.799,rantool2,2021.1.4,Win32,59.75857536,5e07e32c77f865153f3bfa02,60d9d14f4a8a35a482e0d9bf,60edf3d91de7599158fad419,,,,,,,,,,,,
0,0,,25,0,25,0,1,5e07e32c77f865153f3bfa02,Mężczyzna,26,2021-07-13_22h12.58.799,rantool2,2021.1.4,Win32,59.75857536,5e07e32c77f865153f3bfa02,60d9d14f4a8a35a482e0d9bf,60edf3d91de7599158fad419,,,,,,,,,,,,
"[""comma""]",0,[0.15800000000000125],26,0,26,0,1,5e07e32c77f865153f3bfa02,Mężczyzna,26,2021-07-13_22h12.58.799,rantool2,2021.1.4,Win32,59.75857536,5e07e32c77f865153f3bfa02,60d9d14f4a8a35a482e0d9bf,60edf3d91de7599158fad419,,,,,,,,,,,,
"[""period""]",0,[0.30480000000073915],27,0,27,0,1,5e07e32c77f865153f3bfa02,Mężczyzna,26,2021-07-13_22h12.58.799,rantool2,2021.1.4,Win32,59.75857536,5e07e32c77f865153f3bfa02,60d9d14f4a8a35a482e0d9bf,60edf3d91de7599158fad419,,,,,,,,,,,,
"[""period""]",0,[0.12140000000036366],28,0,28,0,1,5e07e32c77f865153f3bfa02,Mężczyzna,26,2021-07-13_22h12.58.799,rantool2,2021.1.4,Win32,59.75857536,5e07e32c77f865153f3bfa02,60d9d14f4a8a35a482e0d9bf,60edf3d91de7599158fad419,,,,,,,,,,,,
"[""period""]",0,[0.006099999999634065],29,0,29,0,1,5e07e32c77f865153f3bfa02,Mężczyzna,26,2021-07-13_22h12.58.799,rantool2,2021.1.4,Win32,59.75857536,5e07e32c77f865153f3bfa02,60d9d14f4a8a35a482e0d9bf,60edf3d91de7599158fad419,,,,,,,,,,,,
"[""comma""]",0,[0.05139999999850886],30,0,30,0,1,5e07e32c77f865153f3bfa02,Mężczyzna,26,2021-07-13_22h12.58.799,rantool2,2021.1.4,Win32,59.75857536,5e07e32c77f865153f3bfa02,60d9d14f4a8a35a482e0d9bf,60edf3d91de7599158fad419,,,,,,,,,,,,
"[""comma""]",0,[0.054000000000002046],31,0,31,0,1,5e07e32c77f865153f3bfa02,Mężczyzna,26,2021-07-13_22h12.58.799,rantool2,2021.1.4,Win32,59.75857536,5e07e32c77f865153f3bfa02,60d9d14f4a8a35a482e0d9bf,60edf3d91de7599158fad419,,,,,,,,,,,,
"[""period"",""comma""]",0,"[-0.031700000001123385,1.8405000000000058]",32,0,32,0,1,5e07e32c77f865153f3bfa02,Mężczyzna,26,2021-07-13_22h12.58.799,rantool2,2021.1.4,Win32,59.75857536,5e07e32c77f865153f3bfa02,60d9d14f4a8a35a482e0d9bf,60edf3d91de7599158fad419,,,,,,,,,,,,
"[""period""]",0,[1.7728000000007427],33,0,33,0,1,5e07e32c77f865153f3bfa02,Mężczyzna,26,2021-07-13_22h12.58.799,rantool2,2021.1.4,Win32,59.75857536,5e07e32c77f865153f3bfa02,60d9d14f4a8a35a482e0d9bf,60edf3d91de7599158fad419,,,,,,,,,,,,
0,0,,34,0,34,0,1,5e07e32c77f865153f3bfa02,Mężczyzna,26,2021-07-13_22h12.58.799,rantool2,2021.1.4,Win32,59.75857536,5e07e32c77f865153f3bfa02,60d9d14f4a8a35a482e0d9bf,60edf3d91de7599158fad419,,,,,,,,,,,,
"[""comma""]",0,[0.10009999999962815],35,0,35,0,1,5e07e32c77f865153f3bfa02,Mężczyzna,26,2021-07-13_22h12.58.799,rantool2,2021.1.4,Win32,59.75857536,5e07e32c77f865153f3bfa02,60d9d14f4a8a35a482e0d9bf,60edf3d91de7599158fad419,,,,,,,,,,,,
"[""period""]",0,[1.8459999999999752],36,0,36,0,1,5e07e32c77f865153f3bfa02,Mężczyzna,26,2021-07-13_22h12.58.799,rantool2,2021.1.4,Win32,59.75857536,5e07e32c77f865153f3bfa02,60d9d14f4a8a35a482e0d9bf,60edf3d91de7599158fad419,,,,,,,,,,,,
0,0,,37,0,37,0,1,5e07e32c77f865153f3bfa02,Mężczyzna,26,2021-07-13_22h12.58.799,rantool2,2021.1.4,Win32,59.75857536,5e07e32c77f865153f3bfa02,60d9d14f4a8a35a482e0d9bf,60edf3d91de7599158fad419,,,,,,,,,,,,
"[""comma""]",0,[0.18540000000038503],38,0,38,0,1,5e07e32c77f865153f3bfa02,Mężczyzna,26,2021-07-13_22h12.58.799,rantool2,2021.1.4,Win32,59.75857536,5e07e32c77f865153f3bfa02,60d9d14f4a8a35a482e0d9bf,60edf3d91de7599158fad419,,,,,,,,,,,,
"[""period""]",0,[0.41969999999923857],39,0,39,0,1,5e07e32c77f865153f3bfa02,Mężczyzna,26,2021-07-13_22h12.58.799,rantool2,2021.1.4,Win32,59.75857536,5e07e32c77f865153f3bfa02,60d9d14f4a8a35a482e0d9bf,60edf3d91de7599158fad419,,,,,,,,,,,,
"[""comma""]",0,[1.1636999999992668],40,0,40,0,1,5e07e32c77f865153f3bfa02,Mężczyzna,26,2021-07-13_22h12.58.799,rantool2,2021.1.4,Win32,59.75857536,5e07e32c77f865153f3bfa02,60d9d14f4a8a35a482e0d9bf,60edf3d91de7599158fad419,,,,,,,,,,,,
"[""period""]",0,[1.0540999999996359],41,0,41,0,1,5e07e32c77f865153f3bfa02,Mężczyzna,26,2021-07-13_22h12.58.799,rantool2,2021.1.4,Win32,59.75857536,5e07e32c77f865153f3bfa02,60d9d14f4a8a35a482e0d9bf,60edf3d91de7599158fad419,,,,,,,,,,,,
"[""comma""]",0,[0.6061999999992338],42,0,42,0,1,5e07e32c77f865153f3bfa02,Mężczyzna,26,2021-07-13_22h12.58.799,rantool2,2021.1.4,Win32,59.75857536,5e07e32c77f865153f3bfa02,60d9d14f4a8a35a482e0d9bf,60edf3d91de7599158fad419,,,,,,,,,,,,
"[""period""]",0,[1.0039000000003853],43,0,43,0,1,5e07e32c77f865153f3bfa02,Mężczyzna,26,2021-07-13_22h12.58.799,rantool2,2021.1.4,Win32,59.75857536,5e07e32c77f865153f3bfa02,60d9d14f4a8a35a482e0d9bf,60edf3d91de7599158fad419,,,,,,,,,,,,
"[""period""]",0,[1.0889999999999986],44,0,44,0,1,5e07e32c77f865153f3bfa02,Mężczyzna,26,2021-07-13_22h12.58.799,rantool2,2021.1.4,Win32,59.75857536,5e07e32c77f865153f3bfa02,60d9d14f4a8a35a482e0d9bf,60edf3d91de7599158fad419,,,,,,,,,,,,
"[""comma""]",0,[1.1885999999996386],45,0,45,0,1,5e07e32c77f865153f3bfa02,Mężczyzna,26,2021-07-13_22h12.58.799,rantool2,2021.1.4,Win32,59.75857536,5e07e32c77f865153f3bfa02,60d9d14f4a8a35a482e0d9bf,60edf3d91de7599158fad419,,,,,,,,,,,,
"[""period""]",0,[1.1038000000007457],46,0,46,0,1,5e07e32c77f865153f3bfa02,Mężczyzna,26,2021-07-13_22h12.58.799,rantool2,2021.1.4,Win32,59.75857536,5e07e32c77f865153f3bfa02,60d9d14f4a8a35a482e0d9bf,60edf3d91de7599158fad419,,,,,,,,,,,,
"[""comma""]",0,[1.0942999999988956],47,0,47,0,1,5e07e32c77f865153f3bfa02,Mężczyzna,26,2021-07-13_22h12.58.799,rantool2,2021.1.4,Win32,59.75857536,5e07e32c77f865153f3bfa02,60d9d14f4a8a35a482e0d9bf,60edf3d91de7599158fad419,,,,,,,,,,,,
"[""period""]",0,[0.8699000000003707],48,0,48,0,1,5e07e32c77f865153f3bfa02,Mężczyzna,26,2021-07-13_22h12.58.799,rantool2,2021.1.4,Win32,59.75857536,5e07e32c77f865153f3bfa02,60d9d14f4a8a35a482e0d9bf,60edf3d91de7599158fad419,,,,,,,,,,,,
"[""comma""]",0,[1.1210000000000093],49,0,49,0,1,5e07e32c77f865153f3bfa02,Mężczyzna,26,2021-07-13_22h12.58.799,rantool2,2021.1.4,Win32,59.75857536,5e07e32c77f865153f3bfa02,60d9d14f4a8a35a482e0d9bf,60edf3d91de7599158fad419,,,,,,,,,,,,
"[""period""]",0,[0.9780000000000086],50,0,50,0,1,5e07e32c77f865153f3bfa02,Mężczyzna,26,2021-07-13_22h12.58.799,rantool2,2021.1.4,Win32,59.75857536,5e07e32c77f865153f3bfa02,60d9d14f4a8a35a482e0d9bf,60edf3d91de7599158fad419,,,,,,,,,,,,
"[""comma""]",0,[0.9039999999999964],51,0,51,0,1,5e07e32c77f865153f3bfa02,Mężczyzna,26,2021-07-13_22h12.58.799,rantool2,2021.1.4,Win32,59.75857536,5e07e32c77f865153f3bfa02,60d9d14f4a8a35a482e0d9bf,60edf3d91de7599158fad419,,,,,,,,,,,,
"[""period""]",0,[1.054300000000751],52,0,52,0,1,5e07e32c77f865153f3bfa02,Mężczyzna,26,2021-07-13_22h12.58.799,rantool2,2021.1.4,Win32,59.75857536,5e07e32c77f865153f3bfa02,60d9d14f4a8a35a482e0d9bf,60edf3d91de7599158fad419,,,,,,,,,,,,
"[""comma""]",0,[1.0379999999999825],53,0,53,0,1,5e07e32c77f865153f3bfa02,Mężczyzna,26,2021-07-13_22h12.58.799,rantool2,2021.1.4,Win32,59.75857536,5e07e32c77f865153f3bfa02,60d9d14f4a8a35a482e0d9bf,60edf3d91de7599158fad419,,,,,,,,,,,,
"[""period""]",0,[1.2376000000014642],54,0,54,0,1,5e07e32c77f865153f3bfa02,Mężczyzna,26,2021-07-13_22h12.58.799,rantool2,2021.1.4,Win32,59.75857536,5e07e32c77f865153f3bfa02,60d9d14f4a8a35a482e0d9bf,60edf3d91de7599158fad419,,,,,,,,,,,,
"[""comma""]",0,[1.1216999999992368],55,0,55,0,1,5e07e32c77f865153f3bfa02,Mężczyzna,26,2021-07-13_22h12.58.799,rantool2,2021.1.4,Win32,59.75857536,5e07e32c77f865153f3bfa02,60d9d14f4a8a35a482e0d9bf,60edf3d91de7599158fad419,,,,,,,,,,,,
"[""period""]",0,[0.9696000000014919],56,0,56,0,1,5e07e32c77f865153f3bfa02,Mężczyzna,26,2021-07-13_22h12.58.799,rantool2,2021.1.4,Win32,59.75857536,5e07e32c77f865153f3bfa02,60d9d14f4a8a35a482e0d9bf,60edf3d91de7599158fad419,,,,,,,,,,,,
"[""period""]",0,[1.1039000000003796],57,0,57,0,1,5e07e32c77f865153f3bfa02,Mężczyzna,26,2021-07-13_22h12.58.799,rantool2,2021.1.4,Win32,59.75857536,5e07e32c77f865153f3bfa02,60d9d14f4a8a35a482e0d9bf,60edf3d91de7599158fad419,,,,,,,,,,,,
"[""comma""]",0,[1.120899999998528],58,0,58,0,1,5e07e32c77f865153f3bfa02,Mężczyzna,26,2021-07-13_22h12.58.799,rantool2,2021.1.4,Win32,59.75857536,5e07e32c77f865153f3bfa02,60d9d14f4a8a35a482e0d9bf,60edf3d91de7599158fad419,,,,,,,,,,,,
"[""comma""]",0,[1.038499999999999],59,0,59,0,1,5e07e32c77f865153f3bfa02,Mężczyzna,26,2021-07-13_22h12.58.799,rantool2,2021.1.4,Win32,59.75857536,5e07e32c77f865153f3bfa02,60d9d14f4a8a35a482e0d9bf,60edf3d91de7599158fad419,,,,,,,,,,,,
"[""period""]",0,[0.9202000000011026],60,0,60,0,1,5e07e32c77f865153f3bfa02,Mężczyzna,26,2021-07-13_22h12.58.799,rantool2,2021.1.4,Win32,59.75857536,5e07e32c77f865153f3bfa02,60d9d14f4a8a35a482e0d9bf,60edf3d91de7599158fad419,,,,,,,,,,,,
"[""period""]",0,[1.0410999999996307],61,0,61,0,1,5e07e32c77f865153f3bfa02,Mężczyzna,26,2021-07-13_22h12.58.799,rantool2,2021.1.4,Win32,59.75857536,5e07e32c77f865153f3bfa02,60d9d14f4a8a35a482e0d9bf,60edf3d91de7599158fad419,,,,,,,,,,,,
"[""period""]",0,[1.0714999999999861],62,0,62,0,1,5e07e32c77f865153f3bfa02,Mężczyzna,26,2021-07-13_22h12.58.799,rantool2,2021.1.4,Win32,59.75857536,5e07e32c77f865153f3bfa02,60d9d14f4a8a35a482e0d9bf,60edf3d91de7599158fad419,,,,,,,,,,,,
"[""comma""]",0,[1.1722000000011406],63,0,63,0,1,5e07e32c77f865153f3bfa02,Mężczyzna,26,2021-07-13_22h12.58.799,rantool2,2021.1.4,Win32,59.75857536,5e07e32c77f865153f3bfa02,60d9d14f4a8a35a482e0d9bf,60edf3d91de7599158fad419,,,,,,,,,,,,
0,0,,64,0,64,0,1,5e07e32c77f865153f3bfa02,Mężczyzna,26,2021-07-13_22h12.58.799,rantool2,2021.1.4,Win32,59.75857536,5e07e32c77f865153f3bfa02,60d9d14f4a8a35a482e0d9bf,60edf3d91de7599158fad419,,,,,,,,,,,,
"[""period""]",0,[1.358900000000375],65,0,65,0,1,5e07e32c77f865153f3bfa02,Mężczyzna,26,2021-07-13_22h12.58.799,rantool2,2021.1.4,Win32,59.75857536,5e07e32c77f865153f3bfa02,60d9d14f4a8a35a482e0d9bf,60edf3d91de7599158fad419,,,,,,,,,,,,
"[""comma""]",0,[0.8555000000000064],66,0,66,0,1,5e07e32c77f865153f3bfa02,Mężczyzna,26,2021-07-13_22h12.58.799,rantool2,2021.1.4,Win32,59.75857536,5e07e32c77f865153f3bfa02,60d9d14f4a8a35a482e0d9bf,60edf3d91de7599158fad419,,,,,,,,,,,,
"[""period""]",0,[1.188400000000371],67,0,67,0,1,5e07e32c77f865153f3bfa02,Mężczyzna,26,2021-07-13_22h12.58.799,rantool2,2021.1.4,Win32,59.75857536,5e07e32c77f865153f3bfa02,60d9d14f4a8a35a482e0d9bf,60edf3d91de7599158fad419,,,,,,,,,,,,
"[""comma""]",0,[1.1539999999999964],68,0,68,0,1,5e07e32c77f865153f3bfa02,Mężczyzna,26,2021-07-13_22h12.58.799,rantool2,2021.1.4,Win32,59.75857536,5e07e32c77f865153f3bfa02,60d9d14f4a8a35a482e0d9bf,60edf3d91de7599158fad419,,,,,,,,,,,,
"[""period""]",0,[1.1242999999988967],69,0,69,0,1,5e07e32c77f865153f3bfa02,Mężczyzna,26,2021-07-13_22h12.58.799,rantool2,2021.1.4,Win32,59.75857536,5e07e32c77f865153f3bfa02,60d9d14f4a8a35a482e0d9bf,60edf3d91de7599158fad419,,,,,,,,,,,,
"[""comma""]",0,[1.1095999999996309],70,0,70,0,1,5e07e32c77f865153f3bfa02,Mężczyzna,26,2021-07-13_22h12.58.799,rantool2,2021.1.4,Win32,59.75857536,5e07e32c77f865153f3bfa02,60d9d14f4a8a35a482e0d9bf,60edf3d91de7599158fad419,,,,,,,,,,,,
"[""period""]",0,[0.8547000000011167],71,0,71,0,1,5e07e32c77f865153f3bfa02,Mężczyzna,26,2021-07-13_22h12.58.799,rantool2,2021.1.4,Win32,59.75857536,5e07e32c77f865153f3bfa02,60d9d14f4a8a35a482e0d9bf,60edf3d91de7599158fad419,,,,,,,,,,,,
"[""comma""]",0,[0.671999999999997],72,0,72,0,1,5e07e32c77f865153f3bfa02,Mężczyzna,26,2021-07-13_22h12.58.799,rantool2,2021.1.4,Win32,59.75857536,5e07e32c77f865153f3bfa02,60d9d14f4a8a35a482e0d9bf,60edf3d91de7599158fad419,,,,,,,,,,,,
"[""period""]",0,[0.78709999999964],73,0,73,0,1,5e07e32c77f865153f3bfa02,Mężczyzna,26,2021-07-13_22h12.58.799,rantool2,2021.1.4,Win32,59.75857536,5e07e32c77f865153f3bfa02,60d9d14f4a8a35a482e0d9bf,60edf3d91de7599158fad419,,,,,,,,,,,,
"[""comma""]",0,[1.1537000000010948],74,0,74,0,1,5e07e32c77f865153f3bfa02,Mężczyzna,26,2021-07-13_22h12.58.799,rantool2,2021.1.4,Win32,59.75857536,5e07e32c77f865153f3bfa02,60d9d14f4a8a35a482e0d9bf,60edf3d91de7599158fad419,,,,,,,,,,,,
"[""comma""]",0,[0.8927999999988856],75,0,75,0,1,5e07e32c77f865153f3bfa02,Mężczyzna,26,2021-07-13_22h12.58.799,rantool2,2021.1.4,Win32,59.75857536,5e07e32c77f865153f3bfa02,60d9d14f4a8a35a482e0d9bf,60edf3d91de7599158fad419,,,,,,,,,,,,
"[""comma""]",0,[0.6862999999988801],76,0,76,0,1,5e07e32c77f865153f3bfa02,Mężczyzna,26,2021-07-13_22h12.58.799,rantool2,2021.1.4,Win32,59.75857536,5e07e32c77f865153f3bfa02,60d9d14f4a8a35a482e0d9bf,60edf3d91de7599158fad419,,,,,,,,,,,,
"[""period""]",0,[0.6031999999992763],77,0,77,0,1,5e07e32c77f865153f3bfa02,Mężczyzna,26,2021-07-13_22h12.58.799,rantool2,2021.1.4,Win32,59.75857536,5e07e32c77f865153f3bfa02,60d9d14f4a8a35a482e0d9bf,60edf3d91de7599158fad419,,,,,,,,,,,,
"[""comma""]",0,[0.7775000000000034],78,0,78,0,1,5e07e32c77f865153f3bfa02,Mężczyzna,26,2021-07-13_22h12.58.799,rantool2,2021.1.4,Win32,59.75857536,5e07e32c77f865153f3bfa02,60d9d14f4a8a35a482e0d9bf,60edf3d91de7599158fad419,,,,,,,,,,,,
"[""period""]",0,[0.6858000000007394],79,0,79,0,1,5e07e32c77f865153f3bfa02,Mężczyzna,26,2021-07-13_22h12.58.799,rantool2,2021.1.4,Win32,59.75857536,5e07e32c77f865153f3bfa02,60d9d14f4a8a35a482e0d9bf,60edf3d91de7599158fad419,,,,,,,,,,,,
"[""comma""]",0,[0.4051999999992688],80,0,80,0,1,5e07e32c77f865153f3bfa02,Mężczyzna,26,2021-07-13_22h12.58.799,rantool2,2021.1.4,Win32,59.75857536,5e07e32c77f865153f3bfa02,60d9d14f4a8a35a482e0d9bf,60edf3d91de7599158fad419,,,,,,,,,,,,
"[""comma""]",0,[0.45210000000147943],81,0,81,0,1,5e07e32c77f865153f3bfa02,Mężczyzna,26,2021-07-13_22h12.58.799,rantool2,2021.1.4,Win32,59.75857536,5e07e32c77f865153f3bfa02,60d9d14f4a8a35a482e0d9bf,60edf3d91de7599158fad419,,,,,,,,,,,,
"[""comma""]",0,[0.4358000000007394],82,0,82,0,1,5e07e32c77f865153f3bfa02,Mężczyzna,26,2021-07-13_22h12.58.799,rantool2,2021.1.4,Win32,59.75857536,5e07e32c77f865153f3bfa02,60d9d14f4a8a35a482e0d9bf,60edf3d91de7599158fad419,,,,,,,,,,,,
"[""period""]",0,[0.33529999999888105],83,0,83,0,1,5e07e32c77f865153f3bfa02,Mężczyzna,26,2021-07-13_22h12.58.799,rantool2,2021.1.4,Win32,59.75857536,5e07e32c77f865153f3bfa02,60d9d14f4a8a35a482e0d9bf,60edf3d91de7599158fad419,,,,,,,,,,,,
"[""period""]",0,[0.03409999999962565],84,0,84,0,1,5e07e32c77f865153f3bfa02,Mężczyzna,26,2021-07-13_22h12.58.799,rantool2,2021.1.4,Win32,59.75857536,5e07e32c77f865153f3bfa02,60d9d14f4a8a35a482e0d9bf,60edf3d91de7599158fad419,,,,,,,,,,,,
"[""period"",""period""]",0,"[0.05000000000001137,1.9315999999996336]",85,0,85,0,1,5e07e32c77f865153f3bfa02,Mężczyzna,26,2021-07-13_22h12.58.799,rantool2,2021.1.4,Win32,59.75857536,5e07e32c77f865153f3bfa02,60d9d14f4a8a35a482e0d9bf,60edf3d91de7599158fad419,,,,,,,,,,,,
"[""comma""]",0,[1.9097000000011235],86,0,86,0,1,5e07e32c77f865153f3bfa02,Mężczyzna,26,2021-07-13_22h12.58.799,rantool2,2021.1.4,Win32,59.75857536,5e07e32c77f865153f3bfa02,60d9d14f4a8a35a482e0d9bf,60edf3d91de7599158fad419,,,,,,,,,,,,
"[""period""]",0,[1.2883000000007314],87,0,87,0,1,5e07e32c77f865153f3bfa02,Mężczyzna,26,2021-07-13_22h12.58.799,rantool2,2021.1.4,Win32,59.75857536,5e07e32c77f865153f3bfa02,60d9d14f4a8a35a482e0d9bf,60edf3d91de7599158fad419,,,,,,,,,,,,
"[""period"",""comma""]",0,"[0.032900000000381624,1.4808000000007553]",88,0,88,0,1,5e07e32c77f865153f3bfa02,Mężczyzna,26,2021-07-13_22h12.58.799,rantool2,2021.1.4,Win32,59.75857536,5e07e32c77f865153f3bfa02,60d9d14f4a8a35a482e0d9bf,60edf3d91de7599158fad419,,,,,,,,,,,,
"[""comma""]",0,[1.3555000000000064],89,0,89,0,1,5e07e32c77f865153f3bfa02,Mężczyzna,26,2021-07-13_22h12.58.799,rantool2,2021.1.4,Win32,59.75857536,5e07e32c77f865153f3bfa02,60d9d14f4a8a35a482e0d9bf,60edf3d91de7599158fad419,,,,,,,,,,,,
"[""period""]",0,[1.4905000000000257],90,0,90,0,1,5e07e32c77f865153f3bfa02,Mężczyzna,26,2021-07-13_22h12.58.799,rantool2,2021.1.4,Win32,59.75857536,5e07e32c77f865153f3bfa02,60d9d14f4a8a35a482e0d9bf,60edf3d91de7599158fad419,,,,,,,,,,,,
"[""period""]",0,[1.0440999999996166],91,0,91,0,1,5e07e32c77f865153f3bfa02,Mężczyzna,26,2021-07-13_22h12.58.799,rantool2,2021.1.4,Win32,59.75857536,5e07e32c77f865153f3bfa02,60d9d14f4a8a35a482e0d9bf,60edf3d91de7599158fad419,,,,,,,,,,,,
"[""comma""]",0,[1.8935999999996227],92,0,92,0,1,5e07e32c77f865153f3bfa02,Mężczyzna,26,2021-07-13_22h12.58.799,rantool2,2021.1.4,Win32,59.75857536,5e07e32c77f865153f3bfa02,60d9d14f4a8a35a482e0d9bf,60edf3d91de7599158fad419,,,,,,,,,,,,
"[""comma""]",0,[0.96059999999963],93,0,93,0,1,5e07e32c77f865153f3bfa02,Mężczyzna,26,2021-07-13_22h12.58.799,rantool2,2021.1.4,Win32,59.75857536,5e07e32c77f865153f3bfa02,60d9d14f4a8a35a482e0d9bf,60edf3d91de7599158fad419,,,,,,,,,,,,
"[""period""]",0,[1.2715999999996086],94,0,94,0,1,5e07e32c77f865153f3bfa02,Mężczyzna,26,2021-07-13_22h12.58.799,rantool2,2021.1.4,Win32,59.75857536,5e07e32c77f865153f3bfa02,60d9d14f4a8a35a482e0d9bf,60edf3d91de7599158fad419,,,,,,,,,,,,
"[""comma""]",0,[1.3033000000007462],95,0,95,0,1,5e07e32c77f865153f3bfa02,Mężczyzna,26,2021-07-13_22h12.58.799,rantool2,2021.1.4,Win32,59.75857536,5e07e32c77f865153f3bfa02,60d9d14f4a8a35a482e0d9bf,60edf3d91de7599158fad419,,,,,,,,,,,,
"[""period""]",0,[1.355099999999652],96,0,96,0,1,5e07e32c77f865153f3bfa02,Mężczyzna,26,2021-07-13_22h12.58.799,rantool2,2021.1.4,Win32,59.75857536,5e07e32c77f865153f3bfa02,60d9d14f4a8a35a482e0d9bf,60edf3d91de7599158fad419,,,,,,,,,,,,
"[""comma""]",0,[1.171400000000375],97,0,97,0,1,5e07e32c77f865153f3bfa02,Mężczyzna,26,2021-07-13_22h12.58.799,rantool2,2021.1.4,Win32,59.75857536,5e07e32c77f865153f3bfa02,60d9d14f4a8a35a482e0d9bf,60edf3d91de7599158fad419,,,,,,,,,,,,
"[""period""]",0,[1.112499999999983],98,0,98,0,1,5e07e32c77f865153f3bfa02,Mężczyzna,26,2021-07-13_22h12.58.799,rantool2,2021.1.4,Win32,59.75857536,5e07e32c77f865153f3bfa02,60d9d14f4a8a35a482e0d9bf,60edf3d91de7599158fad419,,,,,,,,,,,,
"[""comma""]",0,[0.8692000000011149],99,0,99,0,1,5e07e32c77f865153f3bfa02,Mężczyzna,26,2021-07-13_22h12.58.799,rantool2,2021.1.4,Win32,59.75857536,5e07e32c77f865153f3bfa02,60d9d14f4a8a35a482e0d9bf,60edf3d91de7599158fad419,,,,,,,,,,,,
"[""period""]",0,[0.5360000000000014],100,0,100,0,1,5e07e32c77f865153f3bfa02,Mężczyzna,26,2021-07-13_22h12.58.799,rantool2,2021.1.4,Win32,59.75857536,5e07e32c77f865153f3bfa02,60d9d14f4a8a35a482e0d9bf,60edf3d91de7599158fad419,,,,,,,,,,,,
"[""period""]",0,[1.1396999999992659],101,0,101,0,1,5e07e32c77f865153f3bfa02,Mężczyzna,26,2021-07-13_22h12.58.799,rantool2,2021.1.4,Win32,59.75857536,5e07e32c77f865153f3bfa02,60d9d14f4a8a35a482e0d9bf,60edf3d91de7599158fad419,,,,,,,,,,,,
"[""period""]",0,[1.1245000000000118],102,0,102,0,1,5e07e32c77f865153f3bfa02,Mężczyzna,26,2021-07-13_22h12.58.799,rantool2,2021.1.4,Win32,59.75857536,5e07e32c77f865153f3bfa02,60d9d14f4a8a35a482e0d9bf,60edf3d91de7599158fad419,,,,,,,,,,,,
"[""period""]",0,[1.2214000000004148],103,0,103,0,1,5e07e32c77f865153f3bfa02,Mężczyzna,26,2021-07-13_22h12.58.799,rantool2,2021.1.4,Win32,59.75857536,5e07e32c77f865153f3bfa02,60d9d14f4a8a35a482e0d9bf,60edf3d91de7599158fad419,,,,,,,,,,,,
"[""period""]",0,[1.2243000000007669],104,0,104,0,1,5e07e32c77f865153f3bfa02,Mężczyzna,26,2021-07-13_22h12.58.799,rantool2,2021.1.4,Win32,59.75857536,5e07e32c77f865153f3bfa02,60d9d14f4a8a35a482e0d9bf,60edf3d91de7599158fad419,,,,,,,,,,,,
"[""period""]",0,[1.1877999999989015],105,0,105,0,1,5e07e32c77f865153f3bfa02,Mężczyzna,26,2021-07-13_22h12.58.799,rantool2,2021.1.4,Win32,59.75857536,5e07e32c77f865153f3bfa02,60d9d14f4a8a35a482e0d9bf,60edf3d91de7599158fad419,,,,,,,,,,,,
"[""period""]",0,[1.4106999999992809],106,0,106,0,1,5e07e32c77f865153f3bfa02,Mężczyzna,26,2021-07-13_22h12.58.799,rantool2,2021.1.4,Win32,59.75857536,5e07e32c77f865153f3bfa02,60d9d14f4a8a35a482e0d9bf,60edf3d91de7599158fad419,,,,,,,,,,,,
"[""comma""]",0,[1.7239000000003557],107,0,107,0,1,5e07e32c77f865153f3bfa02,Mężczyzna,26,2021-07-13_22h12.58.799,rantool2,2021.1.4,Win32,59.75857536,5e07e32c77f865153f3bfa02,60d9d14f4a8a35a482e0d9bf,60edf3d91de7599158fad419,,,,,,,,,,,,
"[""comma""]",0,[1.4233000000007223],108,0,108,0,1,5e07e32c77f865153f3bfa02,Mężczyzna,26,2021-07-13_22h12.58.799,rantool2,2021.1.4,Win32,59.75857536,5e07e32c77f865153f3bfa02,60d9d14f4a8a35a482e0d9bf,60edf3d91de7599158fad419,,,,,,,,,,,,
"[""period""]",0,[1.2714000000003693],109,0,109,0,1,5e07e32c77f865153f3bfa02,Mężczyzna,26,2021-07-13_22h12.58.799,rantool2,2021.1.4,Win32,59.75857536,5e07e32c77f865153f3bfa02,60d9d14f4a8a35a482e0d9bf,60edf3d91de7599158fad419,,,,,,,,,,,,
"[""comma"",""comma""]",0,"[0.819500000000005,1.4412999999989324]",110,0,110,0,1,5e07e32c77f865153f3bfa02,Mężczyzna,26,2021-07-13_22h12.58.799,rantool2,2021.1.4,Win32,59.75857536,5e07e32c77f865153f3bfa02,60d9d14f4a8a35a482e0d9bf,60edf3d91de7599158fad419,,,,,,,,,,,,
"[""period""]",0,[0.6259999999999764],111,0,111,0,1,5e07e32c77f865153f3bfa02,Mężczyzna,26,2021-07-13_22h12.58.799,rantool2,2021.1.4,Win32,59.75857536,5e07e32c77f865153f3bfa02,60d9d14f4a8a35a482e0d9bf,60edf3d91de7599158fad419,,,,,,,,,,,,
"[""comma""]",0,[0.3518000000007646],112,0,112,0,1,5e07e32c77f865153f3bfa02,Mężczyzna,26,2021-07-13_22h12.58.799,rantool2,2021.1.4,Win32,59.75857536,5e07e32c77f865153f3bfa02,60d9d14f4a8a35a482e0d9bf,60edf3d91de7599158fad419,,,,,,,,,,,,
0,0,,113,0,113,0,1,5e07e32c77f865153f3bfa02,Mężczyzna,26,2021-07-13_22h12.58.799,rantool2,2021.1.4,Win32,59.75857536,5e07e32c77f865153f3bfa02,60d9d14f4a8a35a482e0d9bf,60edf3d91de7599158fad419,,,,,,,,,,,,
"[""period""]",0,[0.5018000000007419],114,0,114,0,1,5e07e32c77f865153f3bfa02,Mężczyzna,26,2021-07-13_22h12.58.799,rantool2,2021.1.4,Win32,59.75857536,5e07e32c77f865153f3bfa02,60d9d14f4a8a35a482e0d9bf,60edf3d91de7599158fad419,,,,,,,,,,,,
"[""comma""]",0,[0.7868999999985249],115,0,115,0,1,5e07e32c77f865153f3bfa02,Mężczyzna,26,2021-07-13_22h12.58.799,rantool2,2021.1.4,Win32,59.75857536,5e07e32c77f865153f3bfa02,60d9d14f4a8a35a482e0d9bf,60edf3d91de7599158fad419,,,,,,,,,,,,
"[""period""]",0,[0.8526999999992881],116,0,116,0,1,5e07e32c77f865153f3bfa02,Mężczyzna,26,2021-07-13_22h12.58.799,rantool2,2021.1.4,Win32,59.75857536,5e07e32c77f865153f3bfa02,60d9d14f4a8a35a482e0d9bf,60edf3d91de7599158fad419,,,,,,,,,,,,
"[""comma""]",0,[0.9709000000003698],117,0,117,0,1,5e07e32c77f865153f3bfa02,Mężczyzna,26,2021-07-13_22h12.58.799,rantool2,2021.1.4,Win32,59.75857536,5e07e32c77f865153f3bfa02,60d9d14f4a8a35a482e0d9bf,60edf3d91de7599158fad419,,,,,,,,,,,,
"[""period""]",0,[1.07130000000069],118,0,118,0,1,5e07e32c77f865153f3bfa02,Mężczyzna,26,2021-07-13_22h12.58.799,rantool2,2021.1.4,Win32,59.75857536,5e07e32c77f865153f3bfa02,60d9d14f4a8a35a482e0d9bf,60edf3d91de7599158fad419,,,,,,,,,,,,
"[""comma""]",0,[1.087099999999623],119,0,119,0,1,5e07e32c77f865153f3bfa02,Mężczyzna,26,2021-07-13_22h12.58.799,rantool2,2021.1.4,Win32,59.75857536,5e07e32c77f865153f3bfa02,60d9d14f4a8a35a482e0d9bf,60edf3d91de7599158fad419,,,,,,,,,,,,
,,,,,,,,5e07e32c77f865153f3bfa02,Mężczyzna,26,2021-07-13_22h12.58.799,rantool2,2021.1.4,Win32,59.75857536,5e07e32c77f865153f3bfa02,60d9d14f4a8a35a482e0d9bf,60edf3d91de7599158fad419,j,3.177,0,0,0,55,1,RRORRRO,RRORRRR,21.56657303,21.21223021,series_0
,,,,,,,,5e07e32c77f865153f3bfa02,Mężczyzna,26,2021-07-13_22h12.58.799,rantool2,2021.1.4,Win32,59.75857536,5e07e32c77f865153f3bfa02,60d9d14f4a8a35a482e0d9bf,60edf3d91de7599158fad419,f,2.4761,0,1,1,38,1,ROORROO,ROORROR,21.79500819,21.36812781,series_0
,,,,,,,,5e07e32c77f865153f3bfa02,Mężczyzna,26,2021-07-13_22h12.58.799,rantool2,2021.1.4,Win32,59.75857536,5e07e32c77f865153f3bfa02,60d9d14f4a8a35a482e0d9bf,60edf3d91de7599158fad419,j,2.3093,0,2,2,44,1,RORROOO,RORROOR,21.66733484,22.02566557,series_1
,,,,,,,,5e07e32c77f865153f3bfa02,Mężczyzna,26,2021-07-13_22h12.58.799,rantool2,2021.1.4,Win32,59.75857536,5e07e32c77f865153f3bfa02,60d9d14f4a8a35a482e0d9bf,60edf3d91de7599158fad419,f,1.9405,0,3,3,20,1,OROROOO,OROROOR,21.31236711,21.90565814,series_1
,,,,,,,,5e07e32c77f865153f3bfa02,Mężczyzna,26,2021-07-13_22h12.58.799,rantool2,2021.1.4,Win32,59.75857536,5e07e32c77f865153f3bfa02,60d9d14f4a8a35a482e0d9bf,60edf3d91de7599158fad419,j,1.9397,0,4,4,0,1,OOOOOOO,OOOOOOR,18.52739004,19.62521613,series_1
,,,,,,,,5e07e32c77f865153f3bfa02,Mężczyzna,26,2021-07-13_22h12.58.799,rantool2,2021.1.4,Win32,59.75857536,5e07e32c77f865153f3bfa02,60d9d14f4a8a35a482e0d9bf,60edf3d91de7599158fad419,j,2.5439,0,5,5,19,1,OROORRO,OROORRR,21.73568164,22.11181017,series_1
,,,,,,,,5e07e32c77f865153f3bfa02,Mężczyzna,26,2021-07-13_22h12.58.799,rantool2,2021.1.4,Win32,59.75857536,5e07e32c77f865153f3bfa02,60d9d14f4a8a35a482e0d9bf,60edf3d91de7599158fad419,f,1.5112,0,6,6,25,1,ORROORO,ORROORR,21.79500819,22.61624387,series_1
,,,,,,,,5e07e32c77f865153f3bfa02,Mężczyzna,26,2021-07-13_22h12.58.799,rantool2,2021.1.4,Win32,59.75857536,5e07e32c77f865153f3bfa02,60d9d14f4a8a35a482e0d9bf,60edf3d91de7599158fad419,j,1.4385,0,7,7,12,1,OORROOO,OORROOR,21.30250474,22.02786418,series_1
,,,,,,,,5e07e32c77f865153f3bfa02,Mężczyzna,26,2021-07-13_22h12.58.799,rantool2,2021.1.4,Win32,59.75857536,5e07e32c77f865153f3bfa02,60d9d14f4a8a35a482e0d9bf,60edf3d91de7599158fad419,j,1.337,0,8,8,14,1,OORRROO,OORRROR,22.24142883,22.16977179,series_0
,,,,,,,,5e07e32c77f865153f3bfa02,Mężczyzna,26,2021-07-13_22h12.58.799,rantool2,2021.1.4,Win32,59.75857536,5e07e32c77f865153f3bfa02,60d9d14f4a8a35a482e0d9bf,60edf3d91de7599158fad419,f,1.6063,0,9,9,58,1,RRROROO,RRROROR,22.1285618,21.37121559,series_0
,,,,,,,,5e07e32c77f865153f3bfa02,Mężczyzna,26,2021-07-13_22h12.58.799,rantool2,2021.1.4,Win32,59.75857536,5e07e32c77f865153f3bfa02,60d9d14f4a8a35a482e0d9bf,60edf3d91de7599158fad419,j,1.7225,0,10,10,45,1,RORRORO,RORRORR,20.78182524,21.22513037,series_1
,,,,,,,,5e07e32c77f865153f3bfa02,Mężczyzna,26,2021-07-13_22h12.58.799,rantool2,2021.1.4,Win32,59.75857536,5e07e32c77f865153f3bfa02,60d9d14f4a8a35a482e0d9bf,60edf3d91de7599158fad419,j,1.7736,0,11,11,30,1,ORRRROO,ORRRROR,22.46748491,22.03072203,series_0
,,,,,,,,5e07e32c77f865153f3bfa02,Mężczyzna,26,2021-07-13_22h12.58.799,rantool2,2021.1.4,Win32,59.75857536,5e07e32c77f865153f3bfa02,60d9d14f4a8a35a482e0d9bf,60edf3d91de7599158fad419,f,1.5225,0,12,12,17,1,OROOORO,OROOORR,21.03750787,22.12173012,series_1
,,,,,,,,5e07e32c77f865153f3bfa02,Mężczyzna,26,2021-07-13_22h12.58.799,rantool2,2021.1.4,Win32,59.75857536,5e07e32c77f865153f3bfa02,60d9d14f4a8a35a482e0d9bf,60edf3d91de7599158fad419,f,1.7574,0,13,13,53,1,RRORORO,RRORORR,20.71309134,21.90565814,series_1
,,,,,,,,5e07e32c77f865153f3bfa02,Mężczyzna,26,2021-07-13_22h12.58.799,rantool2,2021.1.4,Win32,59.75857536,5e07e32c77f865153f3bfa02,60d9d14f4a8a35a482e0d9bf,60edf3d91de7599158fad419,j,1.4952,0,14,14,36,1,ROOROOO,ROOROOR,21.07991943,20.9984461,series_0
,,,,,,,,5e07e32c77f865153f3bfa02,Mężczyzna,26,2021-07-13_22h12.58.799,rantool2,2021.1.4,Win32,59.75857536,5e07e32c77f865153f3bfa02,60d9d14f4a8a35a482e0d9bf,60edf3d91de7599158fad419,f,1.5052,0,15,15,23,1,ORORRRO,ORORRRR,22.1285618,21.9921709,series_0
,,,,,,,,5e07e32c77f865153f3bfa02,Mężczyzna,26,2021-07-13_22h12.58.799,rantool2,2021.1.4,Win32,59.75857536,5e07e32c77f865153f3bfa02,60d9d14f4a8a35a482e0d9bf,60edf3d91de7599158fad419,j,1.2228,0,16,16,7,1,OOORRRO,OOORRRR,21.6194508,21.899017,series_1
,,,,,,,,5e07e32c77f865153f3bfa02,Mężczyzna,26,2021-07-13_22h12.58.799,rantool2,2021.1.4,Win32,59.75857536,5e07e32c77f865153f3bfa02,60d9d14f4a8a35a482e0d9bf,60edf3d91de7599158fad419,j,1.2759,0,17,17,5,1,OOORORO,OOORORR,20.87963819,21.9921709,series_1
,,,,,,,,5e07e32c77f865153f3bfa02,Mężczyzna,26,2021-07-13_22h12.58.799,rantool2,2021.1.4,Win32,59.75857536,5e07e32c77f865153f3bfa02,60d9d14f4a8a35a482e0d9bf,60edf3d91de7599158fad419,j,1.2392,0,18,18,35,1,ROOORRO,ROOORRR,21.76276513,22.16977179,series_1
,,,,,,,,5e07e32c77f865153f3bfa02,Mężczyzna,26,2021-07-13_22h12.58.799,rantool2,2021.1.4,Win32,59.75857536,5e07e32c77f865153f3bfa02,60d9d14f4a8a35a482e0d9bf,60edf3d91de7599158fad419,f,1.238,0,19,19,21,1,ORORORO,ORORORR,20.39515459,22.06781359,series_1
,,,,,,,,5e07e32c77f865153f3bfa02,Mężczyzna,26,2021-07-13_22h12.58.799,rantool2,2021.1.4,Win32,59.75857536,5e07e32c77f865153f3bfa02,60d9d14f4a8a35a482e0d9bf,60edf3d91de7599158fad419,j,1.3736,0,20,20,43,1,RORORRO,RORORRR,20.71309134,21.07490964,series_1
,,,,,,,,5e07e32c77f865153f3bfa02,Mężczyzna,26,2021-07-13_22h12.58.799,rantool2,2021.1.4,Win32,59.75857536,5e07e32c77f865153f3bfa02,60d9d14f4a8a35a482e0d9bf,60edf3d91de7599158fad419,f,1.3715,0,21,21,41,1,ROROORO,ROROORR,20.42602454,21.71443381,series_1
,,,,,,,,5e07e32c77f865153f3bfa02,Mężczyzna,26,2021-07-13_22h12.58.799,rantool2,2021.1.4,Win32,59.75857536,5e07e32c77f865153f3bfa02,60d9d14f4a8a35a482e0d9bf,60edf3d91de7599158fad419,j,2.3922,0,22,22,63,1,RRRRRRO,RRRRRRR,21.35278725,19.62521613,series_0
,,,,,,,,5e07e32c77f865153f3bfa02,Mężczyzna,26,2021-07-13_22h12.58.799,rantool2,2021.1.4,Win32,59.75857536,5e07e32c77f865153f3bfa02,60d9d14f4a8a35a482e0d9bf,60edf3d91de7599158fad419,j,2.4823,0,23,23,16,1,OROOOOO,OROOOOR,20.43051175,21.17347734,series_1
,,,,,,,,5e07e32c77f865153f3bfa02,Mężczyzna,26,2021-07-13_22h12.58.799,rantool2,2021.1.4,Win32,59.75857536,5e07e32c77f865153f3bfa02,60d9d14f4a8a35a482e0d9bf,60edf3d91de7599158fad419,f,0.9358,0,24,24,46,1,RORRROO,RORRROR,22.00300695,21.24781509,series_0
,,,,,,,,5e07e32c77f865153f3bfa02,Mężczyzna,26,2021-07-13_22h12.58.799,rantool2,2021.1.4,Win32,59.75857536,5e07e32c77f865153f3bfa02,60d9d14f4a8a35a482e0d9bf,60edf3d91de7599158fad419,f,1.0377,0,25,25,54,1,RRORROO,RRORROR,21.55250791,20.9984461,series_0
,,,,,,,,5e07e32c77f865153f3bfa02,Mężczyzna,26,2021-07-13_22h12.58.799,rantool2,2021.1.4,Win32,59.75857536,5e07e32c77f865153f3bfa02,60d9d14f4a8a35a482e0d9bf,60edf3d91de7599158fad419,j,0.7365,0,26,26,59,1,RRRORRO,RRRORRR,21.56657303,20.89823192,series_0
,,,,,,,,5e07e32c77f865153f3bfa02,Mężczyzna,26,2021-07-13_22h12.58.799,rantool2,2021.1.4,Win32,59.75857536,5e07e32c77f865153f3bfa02,60d9d14f4a8a35a482e0d9bf,60edf3d91de7599158fad419,j,1.205,0,27,27,8,1,OOROOOO,OOROOOR,19.91402015,20.89823192,series_1
,,,,,,,,5e07e32c77f865153f3bfa02,Mężczyzna,26,2021-07-13_22h12.58.799,rantool2,2021.1.4,Win32,59.75857536,5e07e32c77f865153f3bfa02,60d9d14f4a8a35a482e0d9bf,60edf3d91de7599158fad419,f,2.326,0,28,28,1,1,OOOOORO,OOOOORR,19.92253567,20.74050628,series_1
,,,,,,,,5e07e32c77f865153f3bfa02,Mężczyzna,26,2021-07-13_22h12.58.799,rantool2,2021.1.4,Win32,59.75857536,5e07e32c77f865153f3bfa02,60d9d14f4a8a35a482e0d9bf,60edf3d91de7599158fad419,f,2.2796,0,29,29,31,1,ORRRRRO,ORRRRRR,22.16413392,20.74050628,series_0
,,,,,,,,5e07e32c77f865153f3bfa02,Mężczyzna,26,2021-07-13_22h12.58.799,rantool2,2021.1.4,Win32,59.75857536,5e07e32c77f865153f3bfa02,60d9d14f4a8a35a482e0d9bf,60edf3d91de7599158fad419,j,0.7702,0,30,30,9,1,OOROORO,OOROORR,21.07991943,22.2428857,series_1
,,,,,,,,5e07e32c77f865153f3bfa02,Mężczyzna,26,2021-07-13_22h12.58.799,rantool2,2021.1.4,Win32,59.75857536,5e07e32c77f865153f3bfa02,60d9d14f4a8a35a482e0d9bf,60edf3d91de7599158fad419,f,1.606,0,31,31,2,1,OOOOROO,OOOOROR,20.43051175,21.02936224,series_1
,,,,,,,,5e07e32c77f865153f3bfa02,Mężczyzna,26,2021-07-13_22h12.58.799,rantool2,2021.1.4,Win32,59.75857536,5e07e32c77f865153f3bfa02,60d9d14f4a8a35a482e0d9bf,60edf3d91de7599158fad419,j,0.5714,0,32,32,22,1,ORORROO,ORORROR,22.02732763,21.57657071,series_0
,,,,,,,,5e07e32c77f865153f3bfa02,Mężczyzna,26,2021-07-13_22h12.58.799,rantool2,2021.1.4,Win32,59.75857536,5e07e32c77f865153f3bfa02,60d9d14f4a8a35a482e0d9bf,60edf3d91de7599158fad419,j,1.642,0,33,33,51,1,RROORRO,RROORRR,21.89852628,22.02786418,series_1
,,,,,,,,5e07e32c77f865153f3bfa02,Mężczyzna,26,2021-07-13_22h12.58.799,rantool2,2021.1.4,Win32,59.75857536,5e07e32c77f865153f3bfa02,60d9d14f4a8a35a482e0d9bf,60edf3d91de7599158fad419,f,1.5892,0,34,34,40,1,ROROOOO,ROROOOR,20.87963819,21.37121559,series_1
,,,,,,,,5e07e32c77f865153f3bfa02,Mężczyzna,26,2021-07-13_22h12.58.799,rantool2,2021.1.4,Win32,59.75857536,5e07e32c77f865153f3bfa02,60d9d14f4a8a35a482e0d9bf,60edf3d91de7599158fad419,j,1.1886,0,35,35,52,1,RROROOO,RROROOR,22.18365867,22.11097995,series_0
,,,,,,,,5e07e32c77f865153f3bfa02,Mężczyzna,26,2021-07-13_22h12.58.799,rantool2,2021.1.4,Win32,59.75857536,5e07e32c77f865153f3bfa02,60d9d14f4a8a35a482e0d9bf,60edf3d91de7599158fad419,j,0.9579,0,36,36,57,1,RRROORO,RRROORR,21.82425538,22.07102821,series_1
,,,,,,,,5e07e32c77f865153f3bfa02,Mężczyzna,26,2021-07-13_22h12.58.799,rantool2,2021.1.4,Win32,59.75857536,5e07e32c77f865153f3bfa02,60d9d14f4a8a35a482e0d9bf,60edf3d91de7599158fad419,f,1.4556,0,37,37,48,1,RROOOOO,RROOOOR,20.90986523,22.15934078,series_1
,,,,,,,,5e07e32c77f865153f3bfa02,Mężczyzna,26,2021-07-13_22h12.58.799,rantool2,2021.1.4,Win32,59.75857536,5e07e32c77f865153f3bfa02,60d9d14f4a8a35a482e0d9bf,60edf3d91de7599158fad419,j,1.3567,0,38,38,24,1,ORROOOO,ORROOOR,21.12383932,22.07102821,series_1
,,,,,,,,5e07e32c77f865153f3bfa02,Mężczyzna,26,2021-07-13_22h12.58.799,rantool2,2021.1.4,Win32,59.75857536,5e07e32c77f865153f3bfa02,60d9d14f4a8a35a482e0d9bf,60edf3d91de7599158fad419,j,0.6882,0,39,39,26,1,ORROROO,ORROROR,22.02732763,21.71443381,series_0
,,,,,,,,5e07e32c77f865153f3bfa02,Mężczyzna,26,2021-07-13_22h12.58.799,rantool2,2021.1.4,Win32,59.75857536,5e07e32c77f865153f3bfa02,60d9d14f4a8a35a482e0d9bf,60edf3d91de7599158fad419,j,1.3713,0,40,40,34,1,ROOOROO,ROOOROR,21.03750787,21.24781509,series_1
,,,,,,,,5e07e32c77f865153f3bfa02,Mężczyzna,26,2021-07-13_22h12.58.799,rantool2,2021.1.4,Win32,59.75857536,5e07e32c77f865153f3bfa02,60d9d14f4a8a35a482e0d9bf,60edf3d91de7599158fad419,f,1.3737,0,41,41,61,1,RRRRORO,RRRRORR,21.81333602,21.17347734,series_0
,,,,,,,,5e07e32c77f865153f3bfa02,Mężczyzna,26,2021-07-13_22h12.58.799,rantool2,2021.1.4,Win32,59.75857536,5e07e32c77f865153f3bfa02,60d9d14f4a8a35a482e0d9bf,60edf3d91de7599158fad419,j,1.1881,0,42,42,27,1,ORRORRO,ORRORRR,21.55250791,22.2428857,series_1
,,,,,,,,5e07e32c77f865153f3bfa02,Mężczyzna,26,2021-07-13_22h12.58.799,rantool2,2021.1.4,Win32,59.75857536,5e07e32c77f865153f3bfa02,60d9d14f4a8a35a482e0d9bf,60edf3d91de7599158fad419,j,1.3216,0,43,43,47,1,RORRRRO,RORRRRR,21.81333602,21.02936224,series_0
,,,,,,,,5e07e32c77f865153f3bfa02,Mężczyzna,26,2021-07-13_22h12.58.799,rantool2,2021.1.4,Win32,59.75857536,5e07e32c77f865153f3bfa02,60d9d14f4a8a35a482e0d9bf,60edf3d91de7599158fad419,f,1.1935,0,44,44,29,1,ORRRORO,ORRRORR,22.00300695,22.12173012,series_1
,,,,,,,,5e07e32c77f865153f3bfa02,Mężczyzna,26,2021-07-13_22h12.58.799,rantool2,2021.1.4,Win32,59.75857536,5e07e32c77f865153f3bfa02,60d9d14f4a8a35a482e0d9bf,60edf3d91de7599158fad419,f,1.0938,0,45,45,6,1,OOORROO,OOORROR,21.12383932,21.38562617,series_1
,,,,,,,,5e07e32c77f865153f3bfa02,Mężczyzna,26,2021-07-13_22h12.58.799,rantool2,2021.1.4,Win32,59.75857536,5e07e32c77f865153f3bfa02,60d9d14f4a8a35a482e0d9bf,60edf3d91de7599158fad419,j,2.1419,0,46,46,56,1,RRROOOO,RRROOOR,21.6194508,22.31681875,series_1
,,,,,,,,5e07e32c77f865153f3bfa02,Mężczyzna,26,2021-07-13_22h12.58.799,rantool2,2021.1.4,Win32,59.75857536,5e07e32c77f865153f3bfa02,60d9d14f4a8a35a482e0d9bf,60edf3d91de7599158fad419,f,1.0209,0,47,47,18,1,OROOROO,OROOROR,20.84860893,21.22513037,series_1
,,,,,,,,5e07e32c77f865153f3bfa02,Mężczyzna,26,2021-07-13_22h12.58.799,rantool2,2021.1.4,Win32,59.75857536,5e07e32c77f865153f3bfa02,60d9d14f4a8a35a482e0d9bf,60edf3d91de7599158fad419,j,1.6895,0,48,48,62,1,RRRRROO,RRRRROR,22.16413392,21.27974287,series_0
,,,,,,,,5e07e32c77f865153f3bfa02,Mężczyzna,26,2021-07-13_22h12.58.799,rantool2,2021.1.4,Win32,59.75857536,5e07e32c77f865153f3bfa02,60d9d14f4a8a35a482e0d9bf,60edf3d91de7599158fad419,f,1.4559,0,49,49,37,1,ROORORO,ROORORR,20.42602454,21.57657071,series_1
,,,,,,,,5e07e32c77f865153f3bfa02,Mężczyzna,26,2021-07-13_22h12.58.799,rantool2,2021.1.4,Win32,59.75857536,5e07e32c77f865153f3bfa02,60d9d14f4a8a35a482e0d9bf,60edf3d91de7599158fad419,f,1.4229,0,50,50,50,1,RROOROO,RROOROR,21.73568164,22.02566557,series_1
,,,,,,,,5e07e32c77f865153f3bfa02,Mężczyzna,26,2021-07-13_22h12.58.799,rantool2,2021.1.4,Win32,59.75857536,5e07e32c77f865153f3bfa02,60d9d14f4a8a35a482e0d9bf,60edf3d91de7599158fad419,j,3.5302,0,51,51,4,1,OOOROOO,OOOROOR,19.91402015,21.21223021,series_1
,,,,,,,,5e07e32c77f865153f3bfa02,Mężczyzna,26,2021-07-13_22h12.58.799,rantool2,2021.1.4,Win32,59.75857536,5e07e32c77f865153f3bfa02,60d9d14f4a8a35a482e0d9bf,60edf3d91de7599158fad419,j,1.5229,0,52,52,32,1,ROOOOOO,ROOOOOR,19.92253567,21.27974287,series_1
,,,,,,,,5e07e32c77f865153f3bfa02,Mężczyzna,26,2021-07-13_22h12.58.799,rantool2,2021.1.4,Win32,59.75857536,5e07e32c77f865153f3bfa02,60d9d14f4a8a35a482e0d9bf,60edf3d91de7599158fad419,f,1.3056,0,53,53,39,1,ROORRRO,ROORRRR,21.82425538,21.38562617,series_0
,,,,,,,,5e07e32c77f865153f3bfa02,Mężczyzna,26,2021-07-13_22h12.58.799,rantool2,2021.1.4,Win32,59.75857536,5e07e32c77f865153f3bfa02,60d9d14f4a8a35a482e0d9bf,60edf3d91de7599158fad419,j,0.9545,0,54,54,10,1,OOROROO,OOROROR,21.31236711,21.07490964,series_0
,,,,,,,,5e07e32c77f865153f3bfa02,Mężczyzna,26,2021-07-13_22h12.58.799,rantool2,2021.1.4,Win32,59.75857536,5e07e32c77f865153f3bfa02,60d9d14f4a8a35a482e0d9bf,60edf3d91de7599158fad419,j,0.9873,0,55,55,49,1,RROOORO,RROOORR,21.76276513,22.53364006,series_1
,,,,,,,,5e07e32c77f865153f3bfa02,Mężczyzna,26,2021-07-13_22h12.58.799,rantool2,2021.1.4,Win32,59.75857536,5e07e32c77f865153f3bfa02,60d9d14f4a8a35a482e0d9bf,60edf3d91de7599158fad419,f,1.3226,0,56,56,3,1,OOOORRO,OOOORRR,20.90986523,21.74922619,series_1
,,,,,,,,5e07e32c77f865153f3bfa02,Mężczyzna,26,2021-07-13_22h12.58.799,rantool2,2021.1.4,Win32,59.75857536,5e07e32c77f865153f3bfa02,60d9d14f4a8a35a482e0d9bf,60edf3d91de7599158fad419,j,0.9707,0,57,57,33,1,ROOOORO,ROOOORR,20.83779602,22.03072203,series_1
,,,,,,,,5e07e32c77f865153f3bfa02,Mężczyzna,26,2021-07-13_22h12.58.799,rantool2,2021.1.4,Win32,59.75857536,5e07e32c77f865153f3bfa02,60d9d14f4a8a35a482e0d9bf,60edf3d91de7599158fad419,j,1.071,0,58,58,60,1,RRRROOO,RRRROOR,22.10108823,22.15934078,series_1
,,,,,,,,5e07e32c77f865153f3bfa02,Mężczyzna,26,2021-07-13_22h12.58.799,rantool2,2021.1.4,Win32,59.75857536,5e07e32c77f865153f3bfa02,60d9d14f4a8a35a482e0d9bf,60edf3d91de7599158fad419,f,0.821,0,59,59,42,1,ROROROO,ROROROR,20.39515459,19.8361834,series_0
,,,,,,,,5e07e32c77f865153f3bfa02,Mężczyzna,26,2021-07-13_22h12.58.799,rantool2,2021.1.4,Win32,59.75857536,5e07e32c77f865153f3bfa02,60d9d14f4a8a35a482e0d9bf,60edf3d91de7599158fad419,j,0.8869,0,60,60,28,1,ORRROOO,ORRROOR,22.24142883,22.53364006,series_1
,,,,,,,,5e07e32c77f865153f3bfa02,Mężczyzna,26,2021-07-13_22h12.58.799,rantool2,2021.1.4,Win32,59.75857536,5e07e32c77f865153f3bfa02,60d9d14f4a8a35a482e0d9bf,60edf3d91de7599158fad419,j,0.9035,0,61,61,11,1,OORORRO,OORORRR,22.18365867,22.6797523,series_1
,,,,,,,,5e07e32c77f865153f3bfa02,Mężczyzna,26,2021-07-13_22h12.58.799,rantool2,2021.1.4,Win32,59.75857536,5e07e32c77f865153f3bfa02,60d9d14f4a8a35a482e0d9bf,60edf3d91de7599158fad419,j,0.7872,0,62,62,13,1,OORRORO,OORRORR,21.66733484,22.11181017,series_1
,,,,,,,,5e07e32c77f865153f3bfa02,Mężczyzna,26,2021-07-13_22h12.58.799,rantool2,2021.1.4,Win32,59.75857536,5e07e32c77f865153f3bfa02,60d9d14f4a8a35a482e0d9bf,60edf3d91de7599158fad419,f,0.837,0,63,63,15,1,OORRRRO,OORRRRR,22.10108823,21.74922619,series_0
