key_resp_5.keys,key_resp_5.corr,key_resp_5.rt,trials.thisRepN,trials.thisTrialN,trials.thisN,trials.thisIndex,trials.ran,id*,Płeć*,Wiek*,date,expName,psychopyVersion,OS,frameRate,id,STUDY_ID,SESSION_ID,key_resp_7.keys,key_resp_7.rt,trials_2.thisRepN,trials_2.thisTrialN,trials_2.thisN,trials_2.thisIndex,trials_2.ran,series_0,series_1,acss_0,acss_1,comparison
0,,,0,0,0,0,1,60ec969b09a3b53f4c7f9ab9,Kobieta,24,2021-07-13_21h39.33.334,rantool2,2021.1.4,Win32,58.92751915,60ec969b09a3b53f4c7f9ab9,60d9d14f4a8a35a482e0d9bf,60edebdf7f77d6cca424f79c,,,,,,,,,,,,
"[""comma""]",0,[0.7994999999999948],1,0,1,0,1,60ec969b09a3b53f4c7f9ab9,Kobieta,24,2021-07-13_21h39.33.334,rantool2,2021.1.4,Win32,58.92751915,60ec969b09a3b53f4c7f9ab9,60d9d14f4a8a35a482e0d9bf,60edebdf7f77d6cca424f79c,,,,,,,,,,,,
"[""period""]",0,[0.3076000000089465],2,0,2,0,1,60ec969b09a3b53f4c7f9ab9,Kobieta,24,2021-07-13_21h39.33.334,rantool2,2021.1.4,Win32,58.92751915,60ec969b09a3b53f4c7f9ab9,60d9d14f4a8a35a482e0d9bf,60edebdf7f77d6cca424f79c,,,,,,,,,,,,
"[""period""]",0,[0.37040000000595796],3,0,3,0,1,60ec969b09a3b53f4c7f9ab9,Kobieta,24,2021-07-13_21h39.33.334,rantool2,2021.1.4,Win32,58.92751915,60ec969b09a3b53f4c7f9ab9,60d9d14f4a8a35a482e0d9bf,60edebdf7f77d6cca424f79c,,,,,,,,,,,,
"[""comma"",""period""]",0,"[0.32939999999105396,1.9511999999880771]",4,0,4,0,1,60ec969b09a3b53f4c7f9ab9,Kobieta,24,2021-07-13_21h39.33.334,rantool2,2021.1.4,Win32,58.92751915,60ec969b09a3b53f4c7f9ab9,60d9d14f4a8a35a482e0d9bf,60edebdf7f77d6cca424f79c,,,,,,,,,,,,
0,0,,5,0,5,0,1,60ec969b09a3b53f4c7f9ab9,Kobieta,24,2021-07-13_21h39.33.334,rantool2,2021.1.4,Win32,58.92751915,60ec969b09a3b53f4c7f9ab9,60d9d14f4a8a35a482e0d9bf,60edebdf7f77d6cca424f79c,,,,,,,,,,,,
"[""period""]",0,[0.4055000000000035],6,0,6,0,1,60ec969b09a3b53f4c7f9ab9,Kobieta,24,2021-07-13_21h39.33.334,rantool2,2021.1.4,Win32,58.92751915,60ec969b09a3b53f4c7f9ab9,60d9d14f4a8a35a482e0d9bf,60edebdf7f77d6cca424f79c,,,,,,,,,,,,
"[""period""]",0,[0.3131999999880719],7,0,7,0,1,60ec969b09a3b53f4c7f9ab9,Kobieta,24,2021-07-13_21h39.33.334,rantool2,2021.1.4,Win32,58.92751915,60ec969b09a3b53f4c7f9ab9,60d9d14f4a8a35a482e0d9bf,60edebdf7f77d6cca424f79c,,,,,,,,,,,,
"[""comma""]",0,[0.3969000000059708],8,0,8,0,1,60ec969b09a3b53f4c7f9ab9,Kobieta,24,2021-07-13_21h39.33.334,rantool2,2021.1.4,Win32,58.92751915,60ec969b09a3b53f4c7f9ab9,60d9d14f4a8a35a482e0d9bf,60edebdf7f77d6cca424f79c,,,,,,,,,,,,
"[""comma""]",0,[0.30170000000298103],9,0,9,0,1,60ec969b09a3b53f4c7f9ab9,Kobieta,24,2021-07-13_21h39.33.334,rantool2,2021.1.4,Win32,58.92751915,60ec969b09a3b53f4c7f9ab9,60d9d14f4a8a35a482e0d9bf,60edebdf7f77d6cca424f79c,,,,,,,,,,,,
"[""comma""]",0,[0.27559999999404283],10,0,10,0,1,60ec969b09a3b53f4c7f9ab9,Kobieta,24,2021-07-13_21h39.33.334,rantool2,2021.1.4,Win32,58.92751915,60ec969b09a3b53f4c7f9ab9,60d9d14f4a8a35a482e0d9bf,60edebdf7f77d6cca424f79c,,,,,,,,,,,,
"[""comma"",""period""]",0,"[0.1834999999999951,1.9672000000029755]",11,0,11,0,1,60ec969b09a3b53f4c7f9ab9,Kobieta,24,2021-07-13_21h39.33.334,rantool2,2021.1.4,Win32,58.92751915,60ec969b09a3b53f4c7f9ab9,60d9d14f4a8a35a482e0d9bf,60edebdf7f77d6cca424f79c,,,,,,,,,,,,
0,0,,12,0,12,0,1,60ec969b09a3b53f4c7f9ab9,Kobieta,24,2021-07-13_21h39.33.334,rantool2,2021.1.4,Win32,58.92751915,60ec969b09a3b53f4c7f9ab9,60d9d14f4a8a35a482e0d9bf,60edebdf7f77d6cca424f79c,,,,,,,,,,,,
"[""period""]",0,[0.28320000000297796],13,0,13,0,1,60ec969b09a3b53f4c7f9ab9,Kobieta,24,2021-07-13_21h39.33.334,rantool2,2021.1.4,Win32,58.92751915,60ec969b09a3b53f4c7f9ab9,60d9d14f4a8a35a482e0d9bf,60edebdf7f77d6cca424f79c,,,,,,,,,,,,
"[""comma""]",0,[0.22979999999701306],14,0,14,0,1,60ec969b09a3b53f4c7f9ab9,Kobieta,24,2021-07-13_21h39.33.334,rantool2,2021.1.4,Win32,58.92751915,60ec969b09a3b53f4c7f9ab9,60d9d14f4a8a35a482e0d9bf,60edebdf7f77d6cca424f79c,,,,,,,,,,,,
"[""period""]",0,[0.010200000002981824],15,0,15,0,1,60ec969b09a3b53f4c7f9ab9,Kobieta,24,2021-07-13_21h39.33.334,rantool2,2021.1.4,Win32,58.92751915,60ec969b09a3b53f4c7f9ab9,60d9d14f4a8a35a482e0d9bf,60edebdf7f77d6cca424f79c,,,,,,,,,,,,
"[""period""]",0,[0.0002999999970256795],16,0,16,0,1,60ec969b09a3b53f4c7f9ab9,Kobieta,24,2021-07-13_21h39.33.334,rantool2,2021.1.4,Win32,58.92751915,60ec969b09a3b53f4c7f9ab9,60d9d14f4a8a35a482e0d9bf,60edebdf7f77d6cca424f79c,,,,,,,,,,,,
"[""comma""]",0,[0.30029999999702284],17,0,17,0,1,60ec969b09a3b53f4c7f9ab9,Kobieta,24,2021-07-13_21h39.33.334,rantool2,2021.1.4,Win32,58.92751915,60ec969b09a3b53f4c7f9ab9,60d9d14f4a8a35a482e0d9bf,60edebdf7f77d6cca424f79c,,,,,,,,,,,,
"[""period""]",0,[0.22940000000596683],18,0,18,0,1,60ec969b09a3b53f4c7f9ab9,Kobieta,24,2021-07-13_21h39.33.334,rantool2,2021.1.4,Win32,58.92751915,60ec969b09a3b53f4c7f9ab9,60d9d14f4a8a35a482e0d9bf,60edebdf7f77d6cca424f79c,,,,,,,,,,,,
"[""comma""]",0,[0.21020000000298467],19,0,19,0,1,60ec969b09a3b53f4c7f9ab9,Kobieta,24,2021-07-13_21h39.33.334,rantool2,2021.1.4,Win32,58.92751915,60ec969b09a3b53f4c7f9ab9,60d9d14f4a8a35a482e0d9bf,60edebdf7f77d6cca424f79c,,,,,,,,,,,,
"[""comma""]",0,[0.21429999999702432],20,0,20,0,1,60ec969b09a3b53f4c7f9ab9,Kobieta,24,2021-07-13_21h39.33.334,rantool2,2021.1.4,Win32,58.92751915,60ec969b09a3b53f4c7f9ab9,60d9d14f4a8a35a482e0d9bf,60edebdf7f77d6cca424f79c,,,,,,,,,,,,
"[""comma""]",0,[0.4001999999880752],21,0,21,0,1,60ec969b09a3b53f4c7f9ab9,Kobieta,24,2021-07-13_21h39.33.334,rantool2,2021.1.4,Win32,58.92751915,60ec969b09a3b53f4c7f9ab9,60d9d14f4a8a35a482e0d9bf,60edebdf7f77d6cca424f79c,,,,,,,,,,,,
"[""period""]",0,[0.2507000000029791],22,0,22,0,1,60ec969b09a3b53f4c7f9ab9,Kobieta,24,2021-07-13_21h39.33.334,rantool2,2021.1.4,Win32,58.92751915,60ec969b09a3b53f4c7f9ab9,60d9d14f4a8a35a482e0d9bf,60edebdf7f77d6cca424f79c,,,,,,,,,,,,
"[""period""]",0,[0.00039999999106044015],23,0,23,0,1,60ec969b09a3b53f4c7f9ab9,Kobieta,24,2021-07-13_21h39.33.334,rantool2,2021.1.4,Win32,58.92751915,60ec969b09a3b53f4c7f9ab9,60d9d14f4a8a35a482e0d9bf,60edebdf7f77d6cca424f79c,,,,,,,,,,,,
"[""comma""]",0,[0.00039999999106044015],24,0,24,0,1,60ec969b09a3b53f4c7f9ab9,Kobieta,24,2021-07-13_21h39.33.334,rantool2,2021.1.4,Win32,58.92751915,60ec969b09a3b53f4c7f9ab9,60d9d14f4a8a35a482e0d9bf,60edebdf7f77d6cca424f79c,,,,,,,,,,,,
"[""comma""]",0,[0.24660000000893945],25,0,25,0,1,60ec969b09a3b53f4c7f9ab9,Kobieta,24,2021-07-13_21h39.33.334,rantool2,2021.1.4,Win32,58.92751915,60ec969b09a3b53f4c7f9ab9,60d9d14f4a8a35a482e0d9bf,60edebdf7f77d6cca424f79c,,,,,,,,,,,,
"[""period""]",0,[0.34970000000299706],26,0,26,0,1,60ec969b09a3b53f4c7f9ab9,Kobieta,24,2021-07-13_21h39.33.334,rantool2,2021.1.4,Win32,58.92751915,60ec969b09a3b53f4c7f9ab9,60d9d14f4a8a35a482e0d9bf,60edebdf7f77d6cca424f79c,,,,,,,,,,,,
"[""period""]",0,[0.40349999999997976],27,0,27,0,1,60ec969b09a3b53f4c7f9ab9,Kobieta,24,2021-07-13_21h39.33.334,rantool2,2021.1.4,Win32,58.92751915,60ec969b09a3b53f4c7f9ab9,60d9d14f4a8a35a482e0d9bf,60edebdf7f77d6cca424f79c,,,,,,,,,,,,
"[""period""]",0,[0.2674000000059493],28,0,28,0,1,60ec969b09a3b53f4c7f9ab9,Kobieta,24,2021-07-13_21h39.33.334,rantool2,2021.1.4,Win32,58.92751915,60ec969b09a3b53f4c7f9ab9,60d9d14f4a8a35a482e0d9bf,60edebdf7f77d6cca424f79c,,,,,,,,,,,,
"[""comma""]",0,[0.2652000000029773],29,0,29,0,1,60ec969b09a3b53f4c7f9ab9,Kobieta,24,2021-07-13_21h39.33.334,rantool2,2021.1.4,Win32,58.92751915,60ec969b09a3b53f4c7f9ab9,60d9d14f4a8a35a482e0d9bf,60edebdf7f77d6cca424f79c,,,,,,,,,,,,
"[""period""]",0,[0.19730000001192138],30,0,30,0,1,60ec969b09a3b53f4c7f9ab9,Kobieta,24,2021-07-13_21h39.33.334,rantool2,2021.1.4,Win32,58.92751915,60ec969b09a3b53f4c7f9ab9,60d9d14f4a8a35a482e0d9bf,60edebdf7f77d6cca424f79c,,,,,,,,,,,,
"[""period""]",0,[0.25],31,0,31,0,1,60ec969b09a3b53f4c7f9ab9,Kobieta,24,2021-07-13_21h39.33.334,rantool2,2021.1.4,Win32,58.92751915,60ec969b09a3b53f4c7f9ab9,60d9d14f4a8a35a482e0d9bf,60edebdf7f77d6cca424f79c,,,,,,,,,,,,
"[""comma""]",0,[0.05299999999999727],32,0,32,0,1,60ec969b09a3b53f4c7f9ab9,Kobieta,24,2021-07-13_21h39.33.334,rantool2,2021.1.4,Win32,58.92751915,60ec969b09a3b53f4c7f9ab9,60d9d14f4a8a35a482e0d9bf,60edebdf7f77d6cca424f79c,,,,,,,,,,,,
"[""comma""]",0,[0.14699999999999136],33,0,33,0,1,60ec969b09a3b53f4c7f9ab9,Kobieta,24,2021-07-13_21h39.33.334,rantool2,2021.1.4,Win32,58.92751915,60ec969b09a3b53f4c7f9ab9,60d9d14f4a8a35a482e0d9bf,60edebdf7f77d6cca424f79c,,,,,,,,,,,,
"[""comma""]",0,[0.3003999999910718],34,0,34,0,1,60ec969b09a3b53f4c7f9ab9,Kobieta,24,2021-07-13_21h39.33.334,rantool2,2021.1.4,Win32,58.92751915,60ec969b09a3b53f4c7f9ab9,60d9d14f4a8a35a482e0d9bf,60edebdf7f77d6cca424f79c,,,,,,,,,,,,
"[""comma""]",0,[0.11820000000298592],35,0,35,0,1,60ec969b09a3b53f4c7f9ab9,Kobieta,24,2021-07-13_21h39.33.334,rantool2,2021.1.4,Win32,58.92751915,60ec969b09a3b53f4c7f9ab9,60d9d14f4a8a35a482e0d9bf,60edebdf7f77d6cca424f79c,,,,,,,,,,,,
"[""period"",""comma""]",0,"[0.1506000000089216,1.8298000000119146]",36,0,36,0,1,60ec969b09a3b53f4c7f9ab9,Kobieta,24,2021-07-13_21h39.33.334,rantool2,2021.1.4,Win32,58.92751915,60ec969b09a3b53f4c7f9ab9,60d9d14f4a8a35a482e0d9bf,60edebdf7f77d6cca424f79c,,,,,,,,,,,,
0,0,,37,0,37,0,1,60ec969b09a3b53f4c7f9ab9,Kobieta,24,2021-07-13_21h39.33.334,rantool2,2021.1.4,Win32,58.92751915,60ec969b09a3b53f4c7f9ab9,60d9d14f4a8a35a482e0d9bf,60edebdf7f77d6cca424f79c,,,,,,,,,,,,
"[""period""]",0,[0.22070000000297796],38,0,38,0,1,60ec969b09a3b53f4c7f9ab9,Kobieta,24,2021-07-13_21h39.33.334,rantool2,2021.1.4,Win32,58.92751915,60ec969b09a3b53f4c7f9ab9,60d9d14f4a8a35a482e0d9bf,60edebdf7f77d6cca424f79c,,,,,,,,,,,,
"[""period""]",0,[0.2727999999970052],39,0,39,0,1,60ec969b09a3b53f4c7f9ab9,Kobieta,24,2021-07-13_21h39.33.334,rantool2,2021.1.4,Win32,58.92751915,60ec969b09a3b53f4c7f9ab9,60d9d14f4a8a35a482e0d9bf,60edebdf7f77d6cca424f79c,,,,,,,,,,,,
"[""period""]",0,[0.26650000000000773],40,0,40,0,1,60ec969b09a3b53f4c7f9ab9,Kobieta,24,2021-07-13_21h39.33.334,rantool2,2021.1.4,Win32,58.92751915,60ec969b09a3b53f4c7f9ab9,60d9d14f4a8a35a482e0d9bf,60edebdf7f77d6cca424f79c,,,,,,,,,,,,
"[""period""]",0,[0.27760000000893115],41,0,41,0,1,60ec969b09a3b53f4c7f9ab9,Kobieta,24,2021-07-13_21h39.33.334,rantool2,2021.1.4,Win32,58.92751915,60ec969b09a3b53f4c7f9ab9,60d9d14f4a8a35a482e0d9bf,60edebdf7f77d6cca424f79c,,,,,,,,,,,,
"[""comma""]",0,[0.17500000000001137],42,0,42,0,1,60ec969b09a3b53f4c7f9ab9,Kobieta,24,2021-07-13_21h39.33.334,rantool2,2021.1.4,Win32,58.92751915,60ec969b09a3b53f4c7f9ab9,60d9d14f4a8a35a482e0d9bf,60edebdf7f77d6cca424f79c,,,,,,,,,,,,
"[""period"",""comma""]",0,"[-0.02609999999404522,1.77379999999701]",43,0,43,0,1,60ec969b09a3b53f4c7f9ab9,Kobieta,24,2021-07-13_21h39.33.334,rantool2,2021.1.4,Win32,58.92751915,60ec969b09a3b53f4c7f9ab9,60d9d14f4a8a35a482e0d9bf,60edebdf7f77d6cca424f79c,,,,,,,,,,,,
0,0,,44,0,44,0,1,60ec969b09a3b53f4c7f9ab9,Kobieta,24,2021-07-13_21h39.33.334,rantool2,2021.1.4,Win32,58.92751915,60ec969b09a3b53f4c7f9ab9,60d9d14f4a8a35a482e0d9bf,60edebdf7f77d6cca424f79c,,,,,,,,,,,,
"[""comma""]",0,[0.3929000000059659],45,0,45,0,1,60ec969b09a3b53f4c7f9ab9,Kobieta,24,2021-07-13_21h39.33.334,rantool2,2021.1.4,Win32,58.92751915,60ec969b09a3b53f4c7f9ab9,60d9d14f4a8a35a482e0d9bf,60edebdf7f77d6cca424f79c,,,,,,,,,,,,
"[""period""]",0,[0.2385999999940509],46,0,46,0,1,60ec969b09a3b53f4c7f9ab9,Kobieta,24,2021-07-13_21h39.33.334,rantool2,2021.1.4,Win32,58.92751915,60ec969b09a3b53f4c7f9ab9,60d9d14f4a8a35a482e0d9bf,60edebdf7f77d6cca424f79c,,,,,,,,,,,,
"[""comma""]",0,[0.3092000000029884],47,0,47,0,1,60ec969b09a3b53f4c7f9ab9,Kobieta,24,2021-07-13_21h39.33.334,rantool2,2021.1.4,Win32,58.92751915,60ec969b09a3b53f4c7f9ab9,60d9d14f4a8a35a482e0d9bf,60edebdf7f77d6cca424f79c,,,,,,,,,,,,
"[""period""]",0,[0.2400000000000091],48,0,48,0,1,60ec969b09a3b53f4c7f9ab9,Kobieta,24,2021-07-13_21h39.33.334,rantool2,2021.1.4,Win32,58.92751915,60ec969b09a3b53f4c7f9ab9,60d9d14f4a8a35a482e0d9bf,60edebdf7f77d6cca424f79c,,,,,,,,,,,,
"[""period""]",0,[0.18369999998807884],49,0,49,0,1,60ec969b09a3b53f4c7f9ab9,Kobieta,24,2021-07-13_21h39.33.334,rantool2,2021.1.4,Win32,58.92751915,60ec969b09a3b53f4c7f9ab9,60d9d14f4a8a35a482e0d9bf,60edebdf7f77d6cca424f79c,,,,,,,,,,,,
"[""period""]",0,[0.17410000000893433],50,0,50,0,1,60ec969b09a3b53f4c7f9ab9,Kobieta,24,2021-07-13_21h39.33.334,rantool2,2021.1.4,Win32,58.92751915,60ec969b09a3b53f4c7f9ab9,60d9d14f4a8a35a482e0d9bf,60edebdf7f77d6cca424f79c,,,,,,,,,,,,
"[""comma"",""comma""]",0,"[0.014599999994061363,1.699299999997038]",51,0,51,0,1,60ec969b09a3b53f4c7f9ab9,Kobieta,24,2021-07-13_21h39.33.334,rantool2,2021.1.4,Win32,58.92751915,60ec969b09a3b53f4c7f9ab9,60d9d14f4a8a35a482e0d9bf,60edebdf7f77d6cca424f79c,,,,,,,,,,,,
0,0,,52,0,52,0,1,60ec969b09a3b53f4c7f9ab9,Kobieta,24,2021-07-13_21h39.33.334,rantool2,2021.1.4,Win32,58.92751915,60ec969b09a3b53f4c7f9ab9,60d9d14f4a8a35a482e0d9bf,60edebdf7f77d6cca424f79c,,,,,,,,,,,,
"[""period""]",0,[0.48679999999700385],53,0,53,0,1,60ec969b09a3b53f4c7f9ab9,Kobieta,24,2021-07-13_21h39.33.334,rantool2,2021.1.4,Win32,58.92751915,60ec969b09a3b53f4c7f9ab9,60d9d14f4a8a35a482e0d9bf,60edebdf7f77d6cca424f79c,,,,,,,,,,,,
"[""comma""]",0,[0.2759000000059757],54,0,54,0,1,60ec969b09a3b53f4c7f9ab9,Kobieta,24,2021-07-13_21h39.33.334,rantool2,2021.1.4,Win32,58.92751915,60ec969b09a3b53f4c7f9ab9,60d9d14f4a8a35a482e0d9bf,60edebdf7f77d6cca424f79c,,,,,,,,,,,,
"[""period""]",0,[0.2413999999910743],55,0,55,0,1,60ec969b09a3b53f4c7f9ab9,Kobieta,24,2021-07-13_21h39.33.334,rantool2,2021.1.4,Win32,58.92751915,60ec969b09a3b53f4c7f9ab9,60d9d14f4a8a35a482e0d9bf,60edebdf7f77d6cca424f79c,,,,,,,,,,,,
"[""comma""]",0,[0.21049999999999613],56,0,56,0,1,60ec969b09a3b53f4c7f9ab9,Kobieta,24,2021-07-13_21h39.33.334,rantool2,2021.1.4,Win32,58.92751915,60ec969b09a3b53f4c7f9ab9,60d9d14f4a8a35a482e0d9bf,60edebdf7f77d6cca424f79c,,,,,,,,,,,,
"[""period""]",0,[0.034599999994043174],57,0,57,0,1,60ec969b09a3b53f4c7f9ab9,Kobieta,24,2021-07-13_21h39.33.334,rantool2,2021.1.4,Win32,58.92751915,60ec969b09a3b53f4c7f9ab9,60d9d14f4a8a35a482e0d9bf,60edebdf7f77d6cca424f79c,,,,,,,,,,,,
"[""comma""]",0,[0.40329999999701727],58,0,58,0,1,60ec969b09a3b53f4c7f9ab9,Kobieta,24,2021-07-13_21h39.33.334,rantool2,2021.1.4,Win32,58.92751915,60ec969b09a3b53f4c7f9ab9,60d9d14f4a8a35a482e0d9bf,60edebdf7f77d6cca424f79c,,,,,,,,,,,,
"[""comma""]",0,[0.25739999999106544],59,0,59,0,1,60ec969b09a3b53f4c7f9ab9,Kobieta,24,2021-07-13_21h39.33.334,rantool2,2021.1.4,Win32,58.92751915,60ec969b09a3b53f4c7f9ab9,60d9d14f4a8a35a482e0d9bf,60edebdf7f77d6cca424f79c,,,,,,,,,,,,
"[""comma""]",0,[0.21470000000297773],60,0,60,0,1,60ec969b09a3b53f4c7f9ab9,Kobieta,24,2021-07-13_21h39.33.334,rantool2,2021.1.4,Win32,58.92751915,60ec969b09a3b53f4c7f9ab9,60d9d14f4a8a35a482e0d9bf,60edebdf7f77d6cca424f79c,,,,,,,,,,,,
"[""comma""]",0,[0.09139999999106863],61,0,61,0,1,60ec969b09a3b53f4c7f9ab9,Kobieta,24,2021-07-13_21h39.33.334,rantool2,2021.1.4,Win32,58.92751915,60ec969b09a3b53f4c7f9ab9,60d9d14f4a8a35a482e0d9bf,60edebdf7f77d6cca424f79c,,,,,,,,,,,,
"[""period""]",0,[0.019099999994040218],62,0,62,0,1,60ec969b09a3b53f4c7f9ab9,Kobieta,24,2021-07-13_21h39.33.334,rantool2,2021.1.4,Win32,58.92751915,60ec969b09a3b53f4c7f9ab9,60d9d14f4a8a35a482e0d9bf,60edebdf7f77d6cca424f79c,,,,,,,,,,,,
"[""comma"",""period""]",0,"[0.08520000000297046,1.9301000000089346]",63,0,63,0,1,60ec969b09a3b53f4c7f9ab9,Kobieta,24,2021-07-13_21h39.33.334,rantool2,2021.1.4,Win32,58.92751915,60ec969b09a3b53f4c7f9ab9,60d9d14f4a8a35a482e0d9bf,60edebdf7f77d6cca424f79c,,,,,,,,,,,,
0,0,,64,0,64,0,1,60ec969b09a3b53f4c7f9ab9,Kobieta,24,2021-07-13_21h39.33.334,rantool2,2021.1.4,Win32,58.92751915,60ec969b09a3b53f4c7f9ab9,60d9d14f4a8a35a482e0d9bf,60edebdf7f77d6cca424f79c,,,,,,,,,,,,
"[""period""]",0,[0.25550000000001205],65,0,65,0,1,60ec969b09a3b53f4c7f9ab9,Kobieta,24,2021-07-13_21h39.33.334,rantool2,2021.1.4,Win32,58.92751915,60ec969b09a3b53f4c7f9ab9,60d9d14f4a8a35a482e0d9bf,60edebdf7f77d6cca424f79c,,,,,,,,,,,,
"[""comma""]",0,[0.3894999999999982],66,0,66,0,1,60ec969b09a3b53f4c7f9ab9,Kobieta,24,2021-07-13_21h39.33.334,rantool2,2021.1.4,Win32,58.92751915,60ec969b09a3b53f4c7f9ab9,60d9d14f4a8a35a482e0d9bf,60edebdf7f77d6cca424f79c,,,,,,,,,,,,
"[""period""]",0,[0.2500999999940632],67,0,67,0,1,60ec969b09a3b53f4c7f9ab9,Kobieta,24,2021-07-13_21h39.33.334,rantool2,2021.1.4,Win32,58.92751915,60ec969b09a3b53f4c7f9ab9,60d9d14f4a8a35a482e0d9bf,60edebdf7f77d6cca424f79c,,,,,,,,,,,,
"[""comma""]",0,[0.14219999998806543],68,0,68,0,1,60ec969b09a3b53f4c7f9ab9,Kobieta,24,2021-07-13_21h39.33.334,rantool2,2021.1.4,Win32,58.92751915,60ec969b09a3b53f4c7f9ab9,60d9d14f4a8a35a482e0d9bf,60edebdf7f77d6cca424f79c,,,,,,,,,,,,
"[""period""]",0,[0.09149999999999636],69,0,69,0,1,60ec969b09a3b53f4c7f9ab9,Kobieta,24,2021-07-13_21h39.33.334,rantool2,2021.1.4,Win32,58.92751915,60ec969b09a3b53f4c7f9ab9,60d9d14f4a8a35a482e0d9bf,60edebdf7f77d6cca424f79c,,,,,,,,,,,,
"[""period""]",0,[0.06679999999701636],70,0,70,0,1,60ec969b09a3b53f4c7f9ab9,Kobieta,24,2021-07-13_21h39.33.334,rantool2,2021.1.4,Win32,58.92751915,60ec969b09a3b53f4c7f9ab9,60d9d14f4a8a35a482e0d9bf,60edebdf7f77d6cca424f79c,,,,,,,,,,,,
"[""period""]",0,[0.14350000000001728],71,0,71,0,1,60ec969b09a3b53f4c7f9ab9,Kobieta,24,2021-07-13_21h39.33.334,rantool2,2021.1.4,Win32,58.92751915,60ec969b09a3b53f4c7f9ab9,60d9d14f4a8a35a482e0d9bf,60edebdf7f77d6cca424f79c,,,,,,,,,,,,
"[""period"",""comma""]",0,"[0.17379999999701568,1.8877999999970143]",72,0,72,0,1,60ec969b09a3b53f4c7f9ab9,Kobieta,24,2021-07-13_21h39.33.334,rantool2,2021.1.4,Win32,58.92751915,60ec969b09a3b53f4c7f9ab9,60d9d14f4a8a35a482e0d9bf,60edebdf7f77d6cca424f79c,,,,,,,,,,,,
0,0,,73,0,73,0,1,60ec969b09a3b53f4c7f9ab9,Kobieta,24,2021-07-13_21h39.33.334,rantool2,2021.1.4,Win32,58.92751915,60ec969b09a3b53f4c7f9ab9,60d9d14f4a8a35a482e0d9bf,60edebdf7f77d6cca424f79c,,,,,,,,,,,,
"[""comma""]",0,[0.11879999999700885],74,0,74,0,1,60ec969b09a3b53f4c7f9ab9,Kobieta,24,2021-07-13_21h39.33.334,rantool2,2021.1.4,Win32,58.92751915,60ec969b09a3b53f4c7f9ab9,60d9d14f4a8a35a482e0d9bf,60edebdf7f77d6cca424f79c,,,,,,,,,,,,
"[""period""]",0,[0.20679999999703114],75,0,75,0,1,60ec969b09a3b53f4c7f9ab9,Kobieta,24,2021-07-13_21h39.33.334,rantool2,2021.1.4,Win32,58.92751915,60ec969b09a3b53f4c7f9ab9,60d9d14f4a8a35a482e0d9bf,60edebdf7f77d6cca424f79c,,,,,,,,,,,,
"[""period""]",0,[0.029099999994031123],76,0,76,0,1,60ec969b09a3b53f4c7f9ab9,Kobieta,24,2021-07-13_21h39.33.334,rantool2,2021.1.4,Win32,58.92751915,60ec969b09a3b53f4c7f9ab9,60d9d14f4a8a35a482e0d9bf,60edebdf7f77d6cca424f79c,,,,,,,,,,,,
"[""comma"",""period""]",0,"[0.14979999999701477,1.9008999999910543]",77,0,77,0,1,60ec969b09a3b53f4c7f9ab9,Kobieta,24,2021-07-13_21h39.33.334,rantool2,2021.1.4,Win32,58.92751915,60ec969b09a3b53f4c7f9ab9,60d9d14f4a8a35a482e0d9bf,60edebdf7f77d6cca424f79c,,,,,,,,,,,,
"[""period""]",0,[1.7847000000029993],78,0,78,0,1,60ec969b09a3b53f4c7f9ab9,Kobieta,24,2021-07-13_21h39.33.334,rantool2,2021.1.4,Win32,58.92751915,60ec969b09a3b53f4c7f9ab9,60d9d14f4a8a35a482e0d9bf,60edebdf7f77d6cca424f79c,,,,,,,,,,,,
"[""comma""]",0,[1.850999999999999],79,0,79,0,1,60ec969b09a3b53f4c7f9ab9,Kobieta,24,2021-07-13_21h39.33.334,rantool2,2021.1.4,Win32,58.92751915,60ec969b09a3b53f4c7f9ab9,60d9d14f4a8a35a482e0d9bf,60edebdf7f77d6cca424f79c,,,,,,,,,,,,
0,0,,80,0,80,0,1,60ec969b09a3b53f4c7f9ab9,Kobieta,24,2021-07-13_21h39.33.334,rantool2,2021.1.4,Win32,58.92751915,60ec969b09a3b53f4c7f9ab9,60d9d14f4a8a35a482e0d9bf,60edebdf7f77d6cca424f79c,,,,,,,,,,,,
"[""period""]",0,[0.21720000000297546],81,0,81,0,1,60ec969b09a3b53f4c7f9ab9,Kobieta,24,2021-07-13_21h39.33.334,rantool2,2021.1.4,Win32,58.92751915,60ec969b09a3b53f4c7f9ab9,60d9d14f4a8a35a482e0d9bf,60edebdf7f77d6cca424f79c,,,,,,,,,,,,
"[""comma""]",0,[0.3500999999940291],82,0,82,0,1,60ec969b09a3b53f4c7f9ab9,Kobieta,24,2021-07-13_21h39.33.334,rantool2,2021.1.4,Win32,58.92751915,60ec969b09a3b53f4c7f9ab9,60d9d14f4a8a35a482e0d9bf,60edebdf7f77d6cca424f79c,,,,,,,,,,,,
"[""comma""]",0,[0.22880000001191547],83,0,83,0,1,60ec969b09a3b53f4c7f9ab9,Kobieta,24,2021-07-13_21h39.33.334,rantool2,2021.1.4,Win32,58.92751915,60ec969b09a3b53f4c7f9ab9,60d9d14f4a8a35a482e0d9bf,60edebdf7f77d6cca424f79c,,,,,,,,,,,,
"[""comma"",""period""]",0,"[0.24029999999703477,1.8237999999970214]",84,0,84,0,1,60ec969b09a3b53f4c7f9ab9,Kobieta,24,2021-07-13_21h39.33.334,rantool2,2021.1.4,Win32,58.92751915,60ec969b09a3b53f4c7f9ab9,60d9d14f4a8a35a482e0d9bf,60edebdf7f77d6cca424f79c,,,,,,,,,,,,
0,0,,85,0,85,0,1,60ec969b09a3b53f4c7f9ab9,Kobieta,24,2021-07-13_21h39.33.334,rantool2,2021.1.4,Win32,58.92751915,60ec969b09a3b53f4c7f9ab9,60d9d14f4a8a35a482e0d9bf,60edebdf7f77d6cca424f79c,,,,,,,,,,,,
"[""period""]",0,[0.004199999988088621],86,0,86,0,1,60ec969b09a3b53f4c7f9ab9,Kobieta,24,2021-07-13_21h39.33.334,rantool2,2021.1.4,Win32,58.92751915,60ec969b09a3b53f4c7f9ab9,60d9d14f4a8a35a482e0d9bf,60edebdf7f77d6cca424f79c,,,,,,,,,,,,
"[""period""]",0,[0.01650000000000773],87,0,87,0,1,60ec969b09a3b53f4c7f9ab9,Kobieta,24,2021-07-13_21h39.33.334,rantool2,2021.1.4,Win32,58.92751915,60ec969b09a3b53f4c7f9ab9,60d9d14f4a8a35a482e0d9bf,60edebdf7f77d6cca424f79c,,,,,,,,,,,,
"[""comma""]",0,[0.14720000000298228],88,0,88,0,1,60ec969b09a3b53f4c7f9ab9,Kobieta,24,2021-07-13_21h39.33.334,rantool2,2021.1.4,Win32,58.92751915,60ec969b09a3b53f4c7f9ab9,60d9d14f4a8a35a482e0d9bf,60edebdf7f77d6cca424f79c,,,,,,,,,,,,
"[""comma""]",0,[0.1014000000059525],89,0,89,0,1,60ec969b09a3b53f4c7f9ab9,Kobieta,24,2021-07-13_21h39.33.334,rantool2,2021.1.4,Win32,58.92751915,60ec969b09a3b53f4c7f9ab9,60d9d14f4a8a35a482e0d9bf,60edebdf7f77d6cca424f79c,,,,,,,,,,,,
"[""period""]",0,[0.23369999998814706],90,0,90,0,1,60ec969b09a3b53f4c7f9ab9,Kobieta,24,2021-07-13_21h39.33.334,rantool2,2021.1.4,Win32,58.92751915,60ec969b09a3b53f4c7f9ab9,60d9d14f4a8a35a482e0d9bf,60edebdf7f77d6cca424f79c,,,,,,,,,,,,
"[""comma""]",0,[0.1896000000089657],91,0,91,0,1,60ec969b09a3b53f4c7f9ab9,Kobieta,24,2021-07-13_21h39.33.334,rantool2,2021.1.4,Win32,58.92751915,60ec969b09a3b53f4c7f9ab9,60d9d14f4a8a35a482e0d9bf,60edebdf7f77d6cca424f79c,,,,,,,,,,,,
"[""period""]",0,[0.20689999999103748],92,0,92,0,1,60ec969b09a3b53f4c7f9ab9,Kobieta,24,2021-07-13_21h39.33.334,rantool2,2021.1.4,Win32,58.92751915,60ec969b09a3b53f4c7f9ab9,60d9d14f4a8a35a482e0d9bf,60edebdf7f77d6cca424f79c,,,,,,,,,,,,
"[""comma""]",0,[0.13749999999998863],93,0,93,0,1,60ec969b09a3b53f4c7f9ab9,Kobieta,24,2021-07-13_21h39.33.334,rantool2,2021.1.4,Win32,58.92751915,60ec969b09a3b53f4c7f9ab9,60d9d14f4a8a35a482e0d9bf,60edebdf7f77d6cca424f79c,,,,,,,,,,,,
"[""comma""]",0,[0.7174999999999727],94,0,94,0,1,60ec969b09a3b53f4c7f9ab9,Kobieta,24,2021-07-13_21h39.33.334,rantool2,2021.1.4,Win32,58.92751915,60ec969b09a3b53f4c7f9ab9,60d9d14f4a8a35a482e0d9bf,60edebdf7f77d6cca424f79c,,,,,,,,,,,,
"[""comma""]",0,[0.2842999999970175],95,0,95,0,1,60ec969b09a3b53f4c7f9ab9,Kobieta,24,2021-07-13_21h39.33.334,rantool2,2021.1.4,Win32,58.92751915,60ec969b09a3b53f4c7f9ab9,60d9d14f4a8a35a482e0d9bf,60edebdf7f77d6cca424f79c,,,,,,,,,,,,
"[""comma""]",0,[0.20060000000893297],96,0,96,0,1,60ec969b09a3b53f4c7f9ab9,Kobieta,24,2021-07-13_21h39.33.334,rantool2,2021.1.4,Win32,58.92751915,60ec969b09a3b53f4c7f9ab9,60d9d14f4a8a35a482e0d9bf,60edebdf7f77d6cca424f79c,,,,,,,,,,,,
"[""period""]",0,[0.24870000000294112],97,0,97,0,1,60ec969b09a3b53f4c7f9ab9,Kobieta,24,2021-07-13_21h39.33.334,rantool2,2021.1.4,Win32,58.92751915,60ec969b09a3b53f4c7f9ab9,60d9d14f4a8a35a482e0d9bf,60edebdf7f77d6cca424f79c,,,,,,,,,,,,
"[""comma""]",0,[0.2004999999999768],98,0,98,0,1,60ec969b09a3b53f4c7f9ab9,Kobieta,24,2021-07-13_21h39.33.334,rantool2,2021.1.4,Win32,58.92751915,60ec969b09a3b53f4c7f9ab9,60d9d14f4a8a35a482e0d9bf,60edebdf7f77d6cca424f79c,,,,,,,,,,,,
"[""period""]",0,[0.13530000001190956],99,0,99,0,1,60ec969b09a3b53f4c7f9ab9,Kobieta,24,2021-07-13_21h39.33.334,rantool2,2021.1.4,Win32,58.92751915,60ec969b09a3b53f4c7f9ab9,60d9d14f4a8a35a482e0d9bf,60edebdf7f77d6cca424f79c,,,,,,,,,,,,
"[""period""]",0,[0.06669999998808862],100,0,100,0,1,60ec969b09a3b53f4c7f9ab9,Kobieta,24,2021-07-13_21h39.33.334,rantool2,2021.1.4,Win32,58.92751915,60ec969b09a3b53f4c7f9ab9,60d9d14f4a8a35a482e0d9bf,60edebdf7f77d6cca424f79c,,,,,,,,,,,,
"[""period"",""period""]",0,"[0.13359999999403271,1.962399999991078]",101,0,101,0,1,60ec969b09a3b53f4c7f9ab9,Kobieta,24,2021-07-13_21h39.33.334,rantool2,2021.1.4,Win32,58.92751915,60ec969b09a3b53f4c7f9ab9,60d9d14f4a8a35a482e0d9bf,60edebdf7f77d6cca424f79c,,,,,,,,,,,,
0,0,,102,0,102,0,1,60ec969b09a3b53f4c7f9ab9,Kobieta,24,2021-07-13_21h39.33.334,rantool2,2021.1.4,Win32,58.92751915,60ec969b09a3b53f4c7f9ab9,60d9d14f4a8a35a482e0d9bf,60edebdf7f77d6cca424f79c,,,,,,,,,,,,
"[""period""]",0,[0.19299999999998363],103,0,103,0,1,60ec969b09a3b53f4c7f9ab9,Kobieta,24,2021-07-13_21h39.33.334,rantool2,2021.1.4,Win32,58.92751915,60ec969b09a3b53f4c7f9ab9,60d9d14f4a8a35a482e0d9bf,60edebdf7f77d6cca424f79c,,,,,,,,,,,,
"[""comma""]",0,[0.2530999999940491],104,0,104,0,1,60ec969b09a3b53f4c7f9ab9,Kobieta,24,2021-07-13_21h39.33.334,rantool2,2021.1.4,Win32,58.92751915,60ec969b09a3b53f4c7f9ab9,60d9d14f4a8a35a482e0d9bf,60edebdf7f77d6cca424f79c,,,,,,,,,,,,
"[""comma"",""comma""]",0,"[0.07290000000597274,1.8727000000029648]",105,0,105,0,1,60ec969b09a3b53f4c7f9ab9,Kobieta,24,2021-07-13_21h39.33.334,rantool2,2021.1.4,Win32,58.92751915,60ec969b09a3b53f4c7f9ab9,60d9d14f4a8a35a482e0d9bf,60edebdf7f77d6cca424f79c,,,,,,,,,,,,
0,0,,106,0,106,0,1,60ec969b09a3b53f4c7f9ab9,Kobieta,24,2021-07-13_21h39.33.334,rantool2,2021.1.4,Win32,58.92751915,60ec969b09a3b53f4c7f9ab9,60d9d14f4a8a35a482e0d9bf,60edebdf7f77d6cca424f79c,,,,,,,,,,,,
"[""comma""]",0,[0.31749999999999545],107,0,107,0,1,60ec969b09a3b53f4c7f9ab9,Kobieta,24,2021-07-13_21h39.33.334,rantool2,2021.1.4,Win32,58.92751915,60ec969b09a3b53f4c7f9ab9,60d9d14f4a8a35a482e0d9bf,60edebdf7f77d6cca424f79c,,,,,,,,,,,,
"[""period""]",0,[0.21410000000889795],108,0,108,0,1,60ec969b09a3b53f4c7f9ab9,Kobieta,24,2021-07-13_21h39.33.334,rantool2,2021.1.4,Win32,58.92751915,60ec969b09a3b53f4c7f9ab9,60d9d14f4a8a35a482e0d9bf,60edebdf7f77d6cca424f79c,,,,,,,,,,,,
"[""comma""]",0,[0.6452000000029443],109,0,109,0,1,60ec969b09a3b53f4c7f9ab9,Kobieta,24,2021-07-13_21h39.33.334,rantool2,2021.1.4,Win32,58.92751915,60ec969b09a3b53f4c7f9ab9,60d9d14f4a8a35a482e0d9bf,60edebdf7f77d6cca424f79c,,,,,,,,,,,,
"[""period""]",0,[0.26739999999108477],110,0,110,0,1,60ec969b09a3b53f4c7f9ab9,Kobieta,24,2021-07-13_21h39.33.334,rantool2,2021.1.4,Win32,58.92751915,60ec969b09a3b53f4c7f9ab9,60d9d14f4a8a35a482e0d9bf,60edebdf7f77d6cca424f79c,,,,,,,,,,,,
"[""period""]",0,[0.03750000000002274],111,0,111,0,1,60ec969b09a3b53f4c7f9ab9,Kobieta,24,2021-07-13_21h39.33.334,rantool2,2021.1.4,Win32,58.92751915,60ec969b09a3b53f4c7f9ab9,60d9d14f4a8a35a482e0d9bf,60edebdf7f77d6cca424f79c,,,,,,,,,,,,
"[""comma""]",0,[0.051700000002938395],112,0,112,0,1,60ec969b09a3b53f4c7f9ab9,Kobieta,24,2021-07-13_21h39.33.334,rantool2,2021.1.4,Win32,58.92751915,60ec969b09a3b53f4c7f9ab9,60d9d14f4a8a35a482e0d9bf,60edebdf7f77d6cca424f79c,,,,,,,,,,,,
"[""period""]",0,[0.15070000000298478],113,0,113,0,1,60ec969b09a3b53f4c7f9ab9,Kobieta,24,2021-07-13_21h39.33.334,rantool2,2021.1.4,Win32,58.92751915,60ec969b09a3b53f4c7f9ab9,60d9d14f4a8a35a482e0d9bf,60edebdf7f77d6cca424f79c,,,,,,,,,,,,
"[""comma""]",0,[0.04470000000299024],114,0,114,0,1,60ec969b09a3b53f4c7f9ab9,Kobieta,24,2021-07-13_21h39.33.334,rantool2,2021.1.4,Win32,58.92751915,60ec969b09a3b53f4c7f9ab9,60d9d14f4a8a35a482e0d9bf,60edebdf7f77d6cca424f79c,,,,,,,,,,,,
"[""period""]",0,[0.12320000000300979],115,0,115,0,1,60ec969b09a3b53f4c7f9ab9,Kobieta,24,2021-07-13_21h39.33.334,rantool2,2021.1.4,Win32,58.92751915,60ec969b09a3b53f4c7f9ab9,60d9d14f4a8a35a482e0d9bf,60edebdf7f77d6cca424f79c,,,,,,,,,,,,
"[""period""]",0,[0.15059999999402862],116,0,116,0,1,60ec969b09a3b53f4c7f9ab9,Kobieta,24,2021-07-13_21h39.33.334,rantool2,2021.1.4,Win32,58.92751915,60ec969b09a3b53f4c7f9ab9,60d9d14f4a8a35a482e0d9bf,60edebdf7f77d6cca424f79c,,,,,,,,,,,,
"[""period""]",0,[0.08590000000594955],117,0,117,0,1,60ec969b09a3b53f4c7f9ab9,Kobieta,24,2021-07-13_21h39.33.334,rantool2,2021.1.4,Win32,58.92751915,60ec969b09a3b53f4c7f9ab9,60d9d14f4a8a35a482e0d9bf,60edebdf7f77d6cca424f79c,,,,,,,,,,,,
"[""comma""]",0,[0.014700000002960678],118,0,118,0,1,60ec969b09a3b53f4c7f9ab9,Kobieta,24,2021-07-13_21h39.33.334,rantool2,2021.1.4,Win32,58.92751915,60ec969b09a3b53f4c7f9ab9,60d9d14f4a8a35a482e0d9bf,60edebdf7f77d6cca424f79c,,,,,,,,,,,,
"[""comma""]",0,[0.25040000000598184],119,0,119,0,1,60ec969b09a3b53f4c7f9ab9,Kobieta,24,2021-07-13_21h39.33.334,rantool2,2021.1.4,Win32,58.92751915,60ec969b09a3b53f4c7f9ab9,60d9d14f4a8a35a482e0d9bf,60edebdf7f77d6cca424f79c,,,,,,,,,,,,
,,,,,,,,60ec969b09a3b53f4c7f9ab9,Kobieta,24,2021-07-13_21h39.33.334,rantool2,2021.1.4,Win32,58.92751915,60ec969b09a3b53f4c7f9ab9,60d9d14f4a8a35a482e0d9bf,60edebdf7f77d6cca424f79c,j,4.525,0,0,0,12,1,OORROOO,OORROOR,21.30250474,22.02786418,series_1
,,,,,,,,60ec969b09a3b53f4c7f9ab9,Kobieta,24,2021-07-13_21h39.33.334,rantool2,2021.1.4,Win32,58.92751915,60ec969b09a3b53f4c7f9ab9,60d9d14f4a8a35a482e0d9bf,60edebdf7f77d6cca424f79c,f,4.9524,0,1,1,46,1,RORRROO,RORRROR,22.00300695,21.24781509,series_0
,,,,,,,,60ec969b09a3b53f4c7f9ab9,Kobieta,24,2021-07-13_21h39.33.334,rantool2,2021.1.4,Win32,58.92751915,60ec969b09a3b53f4c7f9ab9,60d9d14f4a8a35a482e0d9bf,60edebdf7f77d6cca424f79c,j,2.8293,0,2,2,57,1,RRROORO,RRROORR,21.82425538,22.07102821,series_1
,,,,,,,,60ec969b09a3b53f4c7f9ab9,Kobieta,24,2021-07-13_21h39.33.334,rantool2,2021.1.4,Win32,58.92751915,60ec969b09a3b53f4c7f9ab9,60d9d14f4a8a35a482e0d9bf,60edebdf7f77d6cca424f79c,f,3.0521,0,3,3,63,1,RRRRRRO,RRRRRRR,21.35278725,19.62521613,series_0
,,,,,,,,60ec969b09a3b53f4c7f9ab9,Kobieta,24,2021-07-13_21h39.33.334,rantool2,2021.1.4,Win32,58.92751915,60ec969b09a3b53f4c7f9ab9,60d9d14f4a8a35a482e0d9bf,60edebdf7f77d6cca424f79c,j,3.239,0,4,4,25,1,ORROORO,ORROORR,21.79500819,22.61624387,series_1
,,,,,,,,60ec969b09a3b53f4c7f9ab9,Kobieta,24,2021-07-13_21h39.33.334,rantool2,2021.1.4,Win32,58.92751915,60ec969b09a3b53f4c7f9ab9,60d9d14f4a8a35a482e0d9bf,60edebdf7f77d6cca424f79c,j,2.5558,0,5,5,5,1,OOORORO,OOORORR,20.87963819,21.9921709,series_1
,,,,,,,,60ec969b09a3b53f4c7f9ab9,Kobieta,24,2021-07-13_21h39.33.334,rantool2,2021.1.4,Win32,58.92751915,60ec969b09a3b53f4c7f9ab9,60d9d14f4a8a35a482e0d9bf,60edebdf7f77d6cca424f79c,j,1.7119,0,6,6,54,1,RRORROO,RRORROR,21.55250791,20.9984461,series_0
,,,,,,,,60ec969b09a3b53f4c7f9ab9,Kobieta,24,2021-07-13_21h39.33.334,rantool2,2021.1.4,Win32,58.92751915,60ec969b09a3b53f4c7f9ab9,60d9d14f4a8a35a482e0d9bf,60edebdf7f77d6cca424f79c,f,1.3834,0,7,7,55,1,RRORRRO,RRORRRR,21.56657303,21.21223021,series_0
,,,,,,,,60ec969b09a3b53f4c7f9ab9,Kobieta,24,2021-07-13_21h39.33.334,rantool2,2021.1.4,Win32,58.92751915,60ec969b09a3b53f4c7f9ab9,60d9d14f4a8a35a482e0d9bf,60edebdf7f77d6cca424f79c,f,2.4943,0,8,8,17,1,OROOORO,OROOORR,21.03750787,22.12173012,series_1
,,,,,,,,60ec969b09a3b53f4c7f9ab9,Kobieta,24,2021-07-13_21h39.33.334,rantool2,2021.1.4,Win32,58.92751915,60ec969b09a3b53f4c7f9ab9,60d9d14f4a8a35a482e0d9bf,60edebdf7f77d6cca424f79c,f,2.9189,0,9,9,52,1,RROROOO,RROROOR,22.18365867,22.11097995,series_0
,,,,,,,,60ec969b09a3b53f4c7f9ab9,Kobieta,24,2021-07-13_21h39.33.334,rantool2,2021.1.4,Win32,58.92751915,60ec969b09a3b53f4c7f9ab9,60d9d14f4a8a35a482e0d9bf,60edebdf7f77d6cca424f79c,f,2.1601,0,10,10,23,1,ORORRRO,ORORRRR,22.1285618,21.9921709,series_0
,,,,,,,,60ec969b09a3b53f4c7f9ab9,Kobieta,24,2021-07-13_21h39.33.334,rantool2,2021.1.4,Win32,58.92751915,60ec969b09a3b53f4c7f9ab9,60d9d14f4a8a35a482e0d9bf,60edebdf7f77d6cca424f79c,j,3.0364,0,11,11,8,1,OOROOOO,OOROOOR,19.91402015,20.89823192,series_1
,,,,,,,,60ec969b09a3b53f4c7f9ab9,Kobieta,24,2021-07-13_21h39.33.334,rantool2,2021.1.4,Win32,58.92751915,60ec969b09a3b53f4c7f9ab9,60d9d14f4a8a35a482e0d9bf,60edebdf7f77d6cca424f79c,j,2.6071,0,12,12,2,1,OOOOROO,OOOOROR,20.43051175,21.02936224,series_1
,,,,,,,,60ec969b09a3b53f4c7f9ab9,Kobieta,24,2021-07-13_21h39.33.334,rantool2,2021.1.4,Win32,58.92751915,60ec969b09a3b53f4c7f9ab9,60d9d14f4a8a35a482e0d9bf,60edebdf7f77d6cca424f79c,f,2.0908,0,13,13,50,1,RROOROO,RROOROR,21.73568164,22.02566557,series_1
,,,,,,,,60ec969b09a3b53f4c7f9ab9,Kobieta,24,2021-07-13_21h39.33.334,rantool2,2021.1.4,Win32,58.92751915,60ec969b09a3b53f4c7f9ab9,60d9d14f4a8a35a482e0d9bf,60edebdf7f77d6cca424f79c,f,1.8591,0,14,14,39,1,ROORRRO,ROORRRR,21.82425538,21.38562617,series_0
,,,,,,,,60ec969b09a3b53f4c7f9ab9,Kobieta,24,2021-07-13_21h39.33.334,rantool2,2021.1.4,Win32,58.92751915,60ec969b09a3b53f4c7f9ab9,60d9d14f4a8a35a482e0d9bf,60edebdf7f77d6cca424f79c,j,0.9645,0,15,15,36,1,ROOROOO,ROOROOR,21.07991943,20.9984461,series_0
,,,,,,,,60ec969b09a3b53f4c7f9ab9,Kobieta,24,2021-07-13_21h39.33.334,rantool2,2021.1.4,Win32,58.92751915,60ec969b09a3b53f4c7f9ab9,60d9d14f4a8a35a482e0d9bf,60edebdf7f77d6cca424f79c,j,2.1766,0,16,16,40,1,ROROOOO,ROROOOR,20.87963819,21.37121559,series_1
,,,,,,,,60ec969b09a3b53f4c7f9ab9,Kobieta,24,2021-07-13_21h39.33.334,rantool2,2021.1.4,Win32,58.92751915,60ec969b09a3b53f4c7f9ab9,60d9d14f4a8a35a482e0d9bf,60edebdf7f77d6cca424f79c,f,1.3646,0,17,17,27,1,ORRORRO,ORRORRR,21.55250791,22.2428857,series_1
,,,,,,,,60ec969b09a3b53f4c7f9ab9,Kobieta,24,2021-07-13_21h39.33.334,rantool2,2021.1.4,Win32,58.92751915,60ec969b09a3b53f4c7f9ab9,60d9d14f4a8a35a482e0d9bf,60edebdf7f77d6cca424f79c,j,1.5146,0,18,18,20,1,OROROOO,OROROOR,21.31236711,21.90565814,series_1
,,,,,,,,60ec969b09a3b53f4c7f9ab9,Kobieta,24,2021-07-13_21h39.33.334,rantool2,2021.1.4,Win32,58.92751915,60ec969b09a3b53f4c7f9ab9,60d9d14f4a8a35a482e0d9bf,60edebdf7f77d6cca424f79c,f,1.2792,0,19,19,62,1,RRRRROO,RRRRROR,22.16413392,21.27974287,series_0
,,,,,,,,60ec969b09a3b53f4c7f9ab9,Kobieta,24,2021-07-13_21h39.33.334,rantool2,2021.1.4,Win32,58.92751915,60ec969b09a3b53f4c7f9ab9,60d9d14f4a8a35a482e0d9bf,60edebdf7f77d6cca424f79c,j,2.0284,0,20,20,37,1,ROORORO,ROORORR,20.42602454,21.57657071,series_1
,,,,,,,,60ec969b09a3b53f4c7f9ab9,Kobieta,24,2021-07-13_21h39.33.334,rantool2,2021.1.4,Win32,58.92751915,60ec969b09a3b53f4c7f9ab9,60d9d14f4a8a35a482e0d9bf,60edebdf7f77d6cca424f79c,j,3.0983,0,21,21,29,1,ORRRORO,ORRRORR,22.00300695,22.12173012,series_1
,,,,,,,,60ec969b09a3b53f4c7f9ab9,Kobieta,24,2021-07-13_21h39.33.334,rantool2,2021.1.4,Win32,58.92751915,60ec969b09a3b53f4c7f9ab9,60d9d14f4a8a35a482e0d9bf,60edebdf7f77d6cca424f79c,f,2.0252,0,22,22,41,1,ROROORO,ROROORR,20.42602454,21.71443381,series_1
,,,,,,,,60ec969b09a3b53f4c7f9ab9,Kobieta,24,2021-07-13_21h39.33.334,rantool2,2021.1.4,Win32,58.92751915,60ec969b09a3b53f4c7f9ab9,60d9d14f4a8a35a482e0d9bf,60edebdf7f77d6cca424f79c,j,1.6271,0,23,23,32,1,ROOOOOO,ROOOOOR,19.92253567,21.27974287,series_1
,,,,,,,,60ec969b09a3b53f4c7f9ab9,Kobieta,24,2021-07-13_21h39.33.334,rantool2,2021.1.4,Win32,58.92751915,60ec969b09a3b53f4c7f9ab9,60d9d14f4a8a35a482e0d9bf,60edebdf7f77d6cca424f79c,f,2.3352,0,24,24,6,1,OOORROO,OOORROR,21.12383932,21.38562617,series_1
,,,,,,,,60ec969b09a3b53f4c7f9ab9,Kobieta,24,2021-07-13_21h39.33.334,rantool2,2021.1.4,Win32,58.92751915,60ec969b09a3b53f4c7f9ab9,60d9d14f4a8a35a482e0d9bf,60edebdf7f77d6cca424f79c,j,1.6688,0,25,25,43,1,RORORRO,RORORRR,20.71309134,21.07490964,series_1
,,,,,,,,60ec969b09a3b53f4c7f9ab9,Kobieta,24,2021-07-13_21h39.33.334,rantool2,2021.1.4,Win32,58.92751915,60ec969b09a3b53f4c7f9ab9,60d9d14f4a8a35a482e0d9bf,60edebdf7f77d6cca424f79c,f,1.6188,0,26,26,49,1,RROOORO,RROOORR,21.76276513,22.53364006,series_1
,,,,,,,,60ec969b09a3b53f4c7f9ab9,Kobieta,24,2021-07-13_21h39.33.334,rantool2,2021.1.4,Win32,58.92751915,60ec969b09a3b53f4c7f9ab9,60d9d14f4a8a35a482e0d9bf,60edebdf7f77d6cca424f79c,f,1.9082,0,27,27,33,1,ROOOORO,ROOOORR,20.83779602,22.03072203,series_1
,,,,,,,,60ec969b09a3b53f4c7f9ab9,Kobieta,24,2021-07-13_21h39.33.334,rantool2,2021.1.4,Win32,58.92751915,60ec969b09a3b53f4c7f9ab9,60d9d14f4a8a35a482e0d9bf,60edebdf7f77d6cca424f79c,f,1.7248,0,28,28,9,1,OOROORO,OOROORR,21.07991943,22.2428857,series_1
,,,,,,,,60ec969b09a3b53f4c7f9ab9,Kobieta,24,2021-07-13_21h39.33.334,rantool2,2021.1.4,Win32,58.92751915,60ec969b09a3b53f4c7f9ab9,60d9d14f4a8a35a482e0d9bf,60edebdf7f77d6cca424f79c,j,2.1907,0,29,29,21,1,ORORORO,ORORORR,20.39515459,22.06781359,series_1
,,,,,,,,60ec969b09a3b53f4c7f9ab9,Kobieta,24,2021-07-13_21h39.33.334,rantool2,2021.1.4,Win32,58.92751915,60ec969b09a3b53f4c7f9ab9,60d9d14f4a8a35a482e0d9bf,60edebdf7f77d6cca424f79c,f,2.0436,0,30,30,13,1,OORRORO,OORRORR,21.66733484,22.11181017,series_1
,,,,,,,,60ec969b09a3b53f4c7f9ab9,Kobieta,24,2021-07-13_21h39.33.334,rantool2,2021.1.4,Win32,58.92751915,60ec969b09a3b53f4c7f9ab9,60d9d14f4a8a35a482e0d9bf,60edebdf7f77d6cca424f79c,f,1.0798,0,31,31,60,1,RRRROOO,RRRROOR,22.10108823,22.15934078,series_1
,,,,,,,,60ec969b09a3b53f4c7f9ab9,Kobieta,24,2021-07-13_21h39.33.334,rantool2,2021.1.4,Win32,58.92751915,60ec969b09a3b53f4c7f9ab9,60d9d14f4a8a35a482e0d9bf,60edebdf7f77d6cca424f79c,j,2.9401,0,32,32,34,1,ROOOROO,ROOOROR,21.03750787,21.24781509,series_1
,,,,,,,,60ec969b09a3b53f4c7f9ab9,Kobieta,24,2021-07-13_21h39.33.334,rantool2,2021.1.4,Win32,58.92751915,60ec969b09a3b53f4c7f9ab9,60d9d14f4a8a35a482e0d9bf,60edebdf7f77d6cca424f79c,f,0.9464,0,33,33,0,1,OOOOOOO,OOOOOOR,18.52739004,19.62521613,series_1
,,,,,,,,60ec969b09a3b53f4c7f9ab9,Kobieta,24,2021-07-13_21h39.33.334,rantool2,2021.1.4,Win32,58.92751915,60ec969b09a3b53f4c7f9ab9,60d9d14f4a8a35a482e0d9bf,60edebdf7f77d6cca424f79c,j,1.3369,0,34,34,4,1,OOOROOO,OOOROOR,19.91402015,21.21223021,series_1
,,,,,,,,60ec969b09a3b53f4c7f9ab9,Kobieta,24,2021-07-13_21h39.33.334,rantool2,2021.1.4,Win32,58.92751915,60ec969b09a3b53f4c7f9ab9,60d9d14f4a8a35a482e0d9bf,60edebdf7f77d6cca424f79c,j,0.9944,0,35,35,14,1,OORRROO,OORRROR,22.24142883,22.16977179,series_0
,,,,,,,,60ec969b09a3b53f4c7f9ab9,Kobieta,24,2021-07-13_21h39.33.334,rantool2,2021.1.4,Win32,58.92751915,60ec969b09a3b53f4c7f9ab9,60d9d14f4a8a35a482e0d9bf,60edebdf7f77d6cca424f79c,f,0.8384,0,36,36,45,1,RORRORO,RORRORR,20.78182524,21.22513037,series_1
,,,,,,,,60ec969b09a3b53f4c7f9ab9,Kobieta,24,2021-07-13_21h39.33.334,rantool2,2021.1.4,Win32,58.92751915,60ec969b09a3b53f4c7f9ab9,60d9d14f4a8a35a482e0d9bf,60edebdf7f77d6cca424f79c,j,1.6644,0,37,37,51,1,RROORRO,RROORRR,21.89852628,22.02786418,series_1
,,,,,,,,60ec969b09a3b53f4c7f9ab9,Kobieta,24,2021-07-13_21h39.33.334,rantool2,2021.1.4,Win32,58.92751915,60ec969b09a3b53f4c7f9ab9,60d9d14f4a8a35a482e0d9bf,60edebdf7f77d6cca424f79c,f,1.3406,0,38,38,7,1,OOORRRO,OOORRRR,21.6194508,21.899017,series_1
,,,,,,,,60ec969b09a3b53f4c7f9ab9,Kobieta,24,2021-07-13_21h39.33.334,rantool2,2021.1.4,Win32,58.92751915,60ec969b09a3b53f4c7f9ab9,60d9d14f4a8a35a482e0d9bf,60edebdf7f77d6cca424f79c,j,1.3281,0,39,39,59,1,RRRORRO,RRRORRR,21.56657303,20.89823192,series_0
,,,,,,,,60ec969b09a3b53f4c7f9ab9,Kobieta,24,2021-07-13_21h39.33.334,rantool2,2021.1.4,Win32,58.92751915,60ec969b09a3b53f4c7f9ab9,60d9d14f4a8a35a482e0d9bf,60edebdf7f77d6cca424f79c,f,1.24,0,40,40,42,1,ROROROO,ROROROR,20.39515459,19.8361834,series_0
,,,,,,,,60ec969b09a3b53f4c7f9ab9,Kobieta,24,2021-07-13_21h39.33.334,rantool2,2021.1.4,Win32,58.92751915,60ec969b09a3b53f4c7f9ab9,60d9d14f4a8a35a482e0d9bf,60edebdf7f77d6cca424f79c,j,1.7745,0,41,41,3,1,OOOORRO,OOOORRR,20.90986523,21.74922619,series_1
,,,,,,,,60ec969b09a3b53f4c7f9ab9,Kobieta,24,2021-07-13_21h39.33.334,rantool2,2021.1.4,Win32,58.92751915,60ec969b09a3b53f4c7f9ab9,60d9d14f4a8a35a482e0d9bf,60edebdf7f77d6cca424f79c,j,1.4204,0,42,42,30,1,ORRRROO,ORRRROR,22.46748491,22.03072203,series_0
,,,,,,,,60ec969b09a3b53f4c7f9ab9,Kobieta,24,2021-07-13_21h39.33.334,rantool2,2021.1.4,Win32,58.92751915,60ec969b09a3b53f4c7f9ab9,60d9d14f4a8a35a482e0d9bf,60edebdf7f77d6cca424f79c,j,1.5185,0,43,43,19,1,OROORRO,OROORRR,21.73568164,22.11181017,series_1
,,,,,,,,60ec969b09a3b53f4c7f9ab9,Kobieta,24,2021-07-13_21h39.33.334,rantool2,2021.1.4,Win32,58.92751915,60ec969b09a3b53f4c7f9ab9,60d9d14f4a8a35a482e0d9bf,60edebdf7f77d6cca424f79c,f,2.4804,0,44,44,38,1,ROORROO,ROORROR,21.79500819,21.36812781,series_0
,,,,,,,,60ec969b09a3b53f4c7f9ab9,Kobieta,24,2021-07-13_21h39.33.334,rantool2,2021.1.4,Win32,58.92751915,60ec969b09a3b53f4c7f9ab9,60d9d14f4a8a35a482e0d9bf,60edebdf7f77d6cca424f79c,f,2.7467,0,45,45,22,1,ORORROO,ORORROR,22.02732763,21.57657071,series_0
,,,,,,,,60ec969b09a3b53f4c7f9ab9,Kobieta,24,2021-07-13_21h39.33.334,rantool2,2021.1.4,Win32,58.92751915,60ec969b09a3b53f4c7f9ab9,60d9d14f4a8a35a482e0d9bf,60edebdf7f77d6cca424f79c,j,1.2434,0,46,46,35,1,ROOORRO,ROOORRR,21.76276513,22.16977179,series_1
,,,,,,,,60ec969b09a3b53f4c7f9ab9,Kobieta,24,2021-07-13_21h39.33.334,rantool2,2021.1.4,Win32,58.92751915,60ec969b09a3b53f4c7f9ab9,60d9d14f4a8a35a482e0d9bf,60edebdf7f77d6cca424f79c,f,1.7175,0,47,47,18,1,OROOROO,OROOROR,20.84860893,21.22513037,series_1
,,,,,,,,60ec969b09a3b53f4c7f9ab9,Kobieta,24,2021-07-13_21h39.33.334,rantool2,2021.1.4,Win32,58.92751915,60ec969b09a3b53f4c7f9ab9,60d9d14f4a8a35a482e0d9bf,60edebdf7f77d6cca424f79c,j,3.0845,0,48,48,61,1,RRRRORO,RRRRORR,21.81333602,21.17347734,series_0
,,,,,,,,60ec969b09a3b53f4c7f9ab9,Kobieta,24,2021-07-13_21h39.33.334,rantool2,2021.1.4,Win32,58.92751915,60ec969b09a3b53f4c7f9ab9,60d9d14f4a8a35a482e0d9bf,60edebdf7f77d6cca424f79c,f,1.1868,0,49,49,44,1,RORROOO,RORROOR,21.66733484,22.02566557,series_1
,,,,,,,,60ec969b09a3b53f4c7f9ab9,Kobieta,24,2021-07-13_21h39.33.334,rantool2,2021.1.4,Win32,58.92751915,60ec969b09a3b53f4c7f9ab9,60d9d14f4a8a35a482e0d9bf,60edebdf7f77d6cca424f79c,j,0.9221,0,50,50,47,1,RORRRRO,RORRRRR,21.81333602,21.02936224,series_0
,,,,,,,,60ec969b09a3b53f4c7f9ab9,Kobieta,24,2021-07-13_21h39.33.334,rantool2,2021.1.4,Win32,58.92751915,60ec969b09a3b53f4c7f9ab9,60d9d14f4a8a35a482e0d9bf,60edebdf7f77d6cca424f79c,j,1.5796,0,51,51,16,1,OROOOOO,OROOOOR,20.43051175,21.17347734,series_1
,,,,,,,,60ec969b09a3b53f4c7f9ab9,Kobieta,24,2021-07-13_21h39.33.334,rantool2,2021.1.4,Win32,58.92751915,60ec969b09a3b53f4c7f9ab9,60d9d14f4a8a35a482e0d9bf,60edebdf7f77d6cca424f79c,f,0.9057,0,52,52,1,1,OOOOORO,OOOOORR,19.92253567,20.74050628,series_1
,,,,,,,,60ec969b09a3b53f4c7f9ab9,Kobieta,24,2021-07-13_21h39.33.334,rantool2,2021.1.4,Win32,58.92751915,60ec969b09a3b53f4c7f9ab9,60d9d14f4a8a35a482e0d9bf,60edebdf7f77d6cca424f79c,f,3.4417,0,53,53,48,1,RROOOOO,RROOOOR,20.90986523,22.15934078,series_1
,,,,,,,,60ec969b09a3b53f4c7f9ab9,Kobieta,24,2021-07-13_21h39.33.334,rantool2,2021.1.4,Win32,58.92751915,60ec969b09a3b53f4c7f9ab9,60d9d14f4a8a35a482e0d9bf,60edebdf7f77d6cca424f79c,j,2.1209,0,54,54,58,1,RRROROO,RRROROR,22.1285618,21.37121559,series_0
,,,,,,,,60ec969b09a3b53f4c7f9ab9,Kobieta,24,2021-07-13_21h39.33.334,rantool2,2021.1.4,Win32,58.92751915,60ec969b09a3b53f4c7f9ab9,60d9d14f4a8a35a482e0d9bf,60edebdf7f77d6cca424f79c,f,1.5499,0,55,55,56,1,RRROOOO,RRROOOR,21.6194508,22.31681875,series_1
,,,,,,,,60ec969b09a3b53f4c7f9ab9,Kobieta,24,2021-07-13_21h39.33.334,rantool2,2021.1.4,Win32,58.92751915,60ec969b09a3b53f4c7f9ab9,60d9d14f4a8a35a482e0d9bf,60edebdf7f77d6cca424f79c,f,2.9074,0,56,56,15,1,OORRRRO,OORRRRR,22.10108823,21.74922619,series_0
,,,,,,,,60ec969b09a3b53f4c7f9ab9,Kobieta,24,2021-07-13_21h39.33.334,rantool2,2021.1.4,Win32,58.92751915,60ec969b09a3b53f4c7f9ab9,60d9d14f4a8a35a482e0d9bf,60edebdf7f77d6cca424f79c,f,1.8067,0,57,57,10,1,OOROROO,OOROROR,21.31236711,21.07490964,series_0
,,,,,,,,60ec969b09a3b53f4c7f9ab9,Kobieta,24,2021-07-13_21h39.33.334,rantool2,2021.1.4,Win32,58.92751915,60ec969b09a3b53f4c7f9ab9,60d9d14f4a8a35a482e0d9bf,60edebdf7f77d6cca424f79c,j,2.0838,0,58,58,26,1,ORROROO,ORROROR,22.02732763,21.71443381,series_0
,,,,,,,,60ec969b09a3b53f4c7f9ab9,Kobieta,24,2021-07-13_21h39.33.334,rantool2,2021.1.4,Win32,58.92751915,60ec969b09a3b53f4c7f9ab9,60d9d14f4a8a35a482e0d9bf,60edebdf7f77d6cca424f79c,f,1.9944,0,59,59,11,1,OORORRO,OORORRR,22.18365867,22.6797523,series_1
,,,,,,,,60ec969b09a3b53f4c7f9ab9,Kobieta,24,2021-07-13_21h39.33.334,rantool2,2021.1.4,Win32,58.92751915,60ec969b09a3b53f4c7f9ab9,60d9d14f4a8a35a482e0d9bf,60edebdf7f77d6cca424f79c,j,1.1097,0,60,60,53,1,RRORORO,RRORORR,20.71309134,21.90565814,series_1
,,,,,,,,60ec969b09a3b53f4c7f9ab9,Kobieta,24,2021-07-13_21h39.33.334,rantool2,2021.1.4,Win32,58.92751915,60ec969b09a3b53f4c7f9ab9,60d9d14f4a8a35a482e0d9bf,60edebdf7f77d6cca424f79c,f,0.8664,0,61,61,31,1,ORRRRRO,ORRRRRR,22.16413392,20.74050628,series_0
,,,,,,,,60ec969b09a3b53f4c7f9ab9,Kobieta,24,2021-07-13_21h39.33.334,rantool2,2021.1.4,Win32,58.92751915,60ec969b09a3b53f4c7f9ab9,60d9d14f4a8a35a482e0d9bf,60edebdf7f77d6cca424f79c,j,0.8951,0,62,62,24,1,ORROOOO,ORROOOR,21.12383932,22.07102821,series_1
,,,,,,,,60ec969b09a3b53f4c7f9ab9,Kobieta,24,2021-07-13_21h39.33.334,rantool2,2021.1.4,Win32,58.92751915,60ec969b09a3b53f4c7f9ab9,60d9d14f4a8a35a482e0d9bf,60edebdf7f77d6cca424f79c,j,0.956,0,63,63,28,1,ORRROOO,ORRROOR,22.24142883,22.53364006,series_1
