key_resp_7.keys,key_resp_7.rt,trials_2.thisRepN,trials_2.thisTrialN,trials_2.thisN,trials_2.thisIndex,trials_2.ran,id,series_0,series_1,acss_0,acss_1,comparison,id*,Płeć*,Wiek*,date,expName,psychopyVersion,OS,frameRate,STUDY_ID,SESSION_ID,key_resp_5.keys,key_resp_5.corr,key_resp_5.rt,trials.thisRepN,trials.thisTrialN,trials.thisN,trials.thisIndex,trials.ran
f,2.4092,0,0,0,63,1,5faabf6892918949deab90e4,RRRRRRO,RRRRRRR,21.35278725,19.62521613,series_0,5faabf6892918949deab90e4,Mężczyzna,18,2021-09-06_19h17.32.143,rantool2,2021.1.4,Win32,60.96817461,6135e006383e6ea6c3d06a28,61364d1b0a158a48bbe3f2dd,,,,,,,,
j,3.2721,0,1,1,36,1,5faabf6892918949deab90e4,ROOROOO,ROOROOR,21.07991943,20.9984461,series_0,5faabf6892918949deab90e4,Mężczyzna,18,2021-09-06_19h17.32.143,rantool2,2021.1.4,Win32,60.96817461,6135e006383e6ea6c3d06a28,61364d1b0a158a48bbe3f2dd,,,,,,,,
j,2.2287,0,2,2,21,1,5faabf6892918949deab90e4,ORORORO,ORORORR,20.39515459,22.06781359,series_1,5faabf6892918949deab90e4,Mężczyzna,18,2021-09-06_19h17.32.143,rantool2,2021.1.4,Win32,60.96817461,6135e006383e6ea6c3d06a28,61364d1b0a158a48bbe3f2dd,,,,,,,,
f,1.8912,0,3,3,41,1,5faabf6892918949deab90e4,ROROORO,ROROORR,20.42602454,21.71443381,series_1,5faabf6892918949deab90e4,Mężczyzna,18,2021-09-06_19h17.32.143,rantool2,2021.1.4,Win32,60.96817461,6135e006383e6ea6c3d06a28,61364d1b0a158a48bbe3f2dd,,,,,,,,
f,3.319,0,4,4,56,1,5faabf6892918949deab90e4,RRROOOO,RRROOOR,21.6194508,22.31681875,series_1,5faabf6892918949deab90e4,Mężczyzna,18,2021-09-06_19h17.32.143,rantool2,2021.1.4,Win32,60.96817461,6135e006383e6ea6c3d06a28,61364d1b0a158a48bbe3f2dd,,,,,,,,
f,1.284,0,5,5,58,1,5faabf6892918949deab90e4,RRROROO,RRROROR,22.1285618,21.37121559,series_0,5faabf6892918949deab90e4,Mężczyzna,18,2021-09-06_19h17.32.143,rantool2,2021.1.4,Win32,60.96817461,6135e006383e6ea6c3d06a28,61364d1b0a158a48bbe3f2dd,,,,,,,,
j,1.4936,0,6,6,54,1,5faabf6892918949deab90e4,RRORROO,RRORROR,21.55250791,20.9984461,series_0,5faabf6892918949deab90e4,Mężczyzna,18,2021-09-06_19h17.32.143,rantool2,2021.1.4,Win32,60.96817461,6135e006383e6ea6c3d06a28,61364d1b0a158a48bbe3f2dd,,,,,,,,
f,2.369,0,7,7,13,1,5faabf6892918949deab90e4,OORRORO,OORRORR,21.66733484,22.11181017,series_1,5faabf6892918949deab90e4,Mężczyzna,18,2021-09-06_19h17.32.143,rantool2,2021.1.4,Win32,60.96817461,6135e006383e6ea6c3d06a28,61364d1b0a158a48bbe3f2dd,,,,,,,,
j,2.2739,0,8,8,61,1,5faabf6892918949deab90e4,RRRRORO,RRRRORR,21.81333602,21.17347734,series_0,5faabf6892918949deab90e4,Mężczyzna,18,2021-09-06_19h17.32.143,rantool2,2021.1.4,Win32,60.96817461,6135e006383e6ea6c3d06a28,61364d1b0a158a48bbe3f2dd,,,,,,,,
f,1.9262,0,9,9,52,1,5faabf6892918949deab90e4,RROROOO,RROROOR,22.18365867,22.11097995,series_0,5faabf6892918949deab90e4,Mężczyzna,18,2021-09-06_19h17.32.143,rantool2,2021.1.4,Win32,60.96817461,6135e006383e6ea6c3d06a28,61364d1b0a158a48bbe3f2dd,,,,,,,,
f,2.4172,0,10,10,33,1,5faabf6892918949deab90e4,ROOOORO,ROOOORR,20.83779602,22.03072203,series_1,5faabf6892918949deab90e4,Mężczyzna,18,2021-09-06_19h17.32.143,rantool2,2021.1.4,Win32,60.96817461,6135e006383e6ea6c3d06a28,61364d1b0a158a48bbe3f2dd,,,,,,,,
f,3.0395,0,11,11,27,1,5faabf6892918949deab90e4,ORRORRO,ORRORRR,21.55250791,22.2428857,series_1,5faabf6892918949deab90e4,Mężczyzna,18,2021-09-06_19h17.32.143,rantool2,2021.1.4,Win32,60.96817461,6135e006383e6ea6c3d06a28,61364d1b0a158a48bbe3f2dd,,,,,,,,
j,1.8692,0,12,12,42,1,5faabf6892918949deab90e4,ROROROO,ROROROR,20.39515459,19.8361834,series_0,5faabf6892918949deab90e4,Mężczyzna,18,2021-09-06_19h17.32.143,rantool2,2021.1.4,Win32,60.96817461,6135e006383e6ea6c3d06a28,61364d1b0a158a48bbe3f2dd,,,,,,,,
j,2.5857,0,13,13,1,1,5faabf6892918949deab90e4,OOOOORO,OOOOORR,19.92253567,20.74050628,series_1,5faabf6892918949deab90e4,Mężczyzna,18,2021-09-06_19h17.32.143,rantool2,2021.1.4,Win32,60.96817461,6135e006383e6ea6c3d06a28,61364d1b0a158a48bbe3f2dd,,,,,,,,
j,1.4817,0,14,14,0,1,5faabf6892918949deab90e4,OOOOOOO,OOOOOOR,18.52739004,19.62521613,series_1,5faabf6892918949deab90e4,Mężczyzna,18,2021-09-06_19h17.32.143,rantool2,2021.1.4,Win32,60.96817461,6135e006383e6ea6c3d06a28,61364d1b0a158a48bbe3f2dd,,,,,,,,
f,1.4856,0,15,15,47,1,5faabf6892918949deab90e4,RORRRRO,RORRRRR,21.81333602,21.02936224,series_0,5faabf6892918949deab90e4,Mężczyzna,18,2021-09-06_19h17.32.143,rantool2,2021.1.4,Win32,60.96817461,6135e006383e6ea6c3d06a28,61364d1b0a158a48bbe3f2dd,,,,,,,,
j,1.3852,0,16,16,32,1,5faabf6892918949deab90e4,ROOOOOO,ROOOOOR,19.92253567,21.27974287,series_1,5faabf6892918949deab90e4,Mężczyzna,18,2021-09-06_19h17.32.143,rantool2,2021.1.4,Win32,60.96817461,6135e006383e6ea6c3d06a28,61364d1b0a158a48bbe3f2dd,,,,,,,,
f,1.6575,0,17,17,11,1,5faabf6892918949deab90e4,OORORRO,OORORRR,22.18365867,22.6797523,series_1,5faabf6892918949deab90e4,Mężczyzna,18,2021-09-06_19h17.32.143,rantool2,2021.1.4,Win32,60.96817461,6135e006383e6ea6c3d06a28,61364d1b0a158a48bbe3f2dd,,,,,,,,
j,2.2841,0,18,18,14,1,5faabf6892918949deab90e4,OORRROO,OORRROR,22.24142883,22.16977179,series_0,5faabf6892918949deab90e4,Mężczyzna,18,2021-09-06_19h17.32.143,rantool2,2021.1.4,Win32,60.96817461,6135e006383e6ea6c3d06a28,61364d1b0a158a48bbe3f2dd,,,,,,,,
j,1.9383,0,19,19,38,1,5faabf6892918949deab90e4,ROORROO,ROORROR,21.79500819,21.36812781,series_0,5faabf6892918949deab90e4,Mężczyzna,18,2021-09-06_19h17.32.143,rantool2,2021.1.4,Win32,60.96817461,6135e006383e6ea6c3d06a28,61364d1b0a158a48bbe3f2dd,,,,,,,,
f,1.8444,0,20,20,25,1,5faabf6892918949deab90e4,ORROORO,ORROORR,21.79500819,22.61624387,series_1,5faabf6892918949deab90e4,Mężczyzna,18,2021-09-06_19h17.32.143,rantool2,2021.1.4,Win32,60.96817461,6135e006383e6ea6c3d06a28,61364d1b0a158a48bbe3f2dd,,,,,,,,
f,3.018,0,21,21,16,1,5faabf6892918949deab90e4,OROOOOO,OROOOOR,20.43051175,21.17347734,series_1,5faabf6892918949deab90e4,Mężczyzna,18,2021-09-06_19h17.32.143,rantool2,2021.1.4,Win32,60.96817461,6135e006383e6ea6c3d06a28,61364d1b0a158a48bbe3f2dd,,,,,,,,
j,1.7771,0,22,22,28,1,5faabf6892918949deab90e4,ORRROOO,ORRROOR,22.24142883,22.53364006,series_1,5faabf6892918949deab90e4,Mężczyzna,18,2021-09-06_19h17.32.143,rantool2,2021.1.4,Win32,60.96817461,6135e006383e6ea6c3d06a28,61364d1b0a158a48bbe3f2dd,,,,,,,,
f,2.2173,0,23,23,5,1,5faabf6892918949deab90e4,OOORORO,OOORORR,20.87963819,21.9921709,series_1,5faabf6892918949deab90e4,Mężczyzna,18,2021-09-06_19h17.32.143,rantool2,2021.1.4,Win32,60.96817461,6135e006383e6ea6c3d06a28,61364d1b0a158a48bbe3f2dd,,,,,,,,
j,2.1356,0,24,24,57,1,5faabf6892918949deab90e4,RRROORO,RRROORR,21.82425538,22.07102821,series_1,5faabf6892918949deab90e4,Mężczyzna,18,2021-09-06_19h17.32.143,rantool2,2021.1.4,Win32,60.96817461,6135e006383e6ea6c3d06a28,61364d1b0a158a48bbe3f2dd,,,,,,,,
f,1.3781,0,25,25,26,1,5faabf6892918949deab90e4,ORROROO,ORROROR,22.02732763,21.71443381,series_0,5faabf6892918949deab90e4,Mężczyzna,18,2021-09-06_19h17.32.143,rantool2,2021.1.4,Win32,60.96817461,6135e006383e6ea6c3d06a28,61364d1b0a158a48bbe3f2dd,,,,,,,,
f,1.4015,0,26,26,45,1,5faabf6892918949deab90e4,RORRORO,RORRORR,20.78182524,21.22513037,series_1,5faabf6892918949deab90e4,Mężczyzna,18,2021-09-06_19h17.32.143,rantool2,2021.1.4,Win32,60.96817461,6135e006383e6ea6c3d06a28,61364d1b0a158a48bbe3f2dd,,,,,,,,
f,2.2095,0,27,27,34,1,5faabf6892918949deab90e4,ROOOROO,ROOOROR,21.03750787,21.24781509,series_1,5faabf6892918949deab90e4,Mężczyzna,18,2021-09-06_19h17.32.143,rantool2,2021.1.4,Win32,60.96817461,6135e006383e6ea6c3d06a28,61364d1b0a158a48bbe3f2dd,,,,,,,,
j,1.3319,0,28,28,4,1,5faabf6892918949deab90e4,OOOROOO,OOOROOR,19.91402015,21.21223021,series_1,5faabf6892918949deab90e4,Mężczyzna,18,2021-09-06_19h17.32.143,rantool2,2021.1.4,Win32,60.96817461,6135e006383e6ea6c3d06a28,61364d1b0a158a48bbe3f2dd,,,,,,,,
f,1.8908,0,29,29,8,1,5faabf6892918949deab90e4,OOROOOO,OOROOOR,19.91402015,20.89823192,series_1,5faabf6892918949deab90e4,Mężczyzna,18,2021-09-06_19h17.32.143,rantool2,2021.1.4,Win32,60.96817461,6135e006383e6ea6c3d06a28,61364d1b0a158a48bbe3f2dd,,,,,,,,
f,1.2317,0,30,30,29,1,5faabf6892918949deab90e4,ORRRORO,ORRRORR,22.00300695,22.12173012,series_1,5faabf6892918949deab90e4,Mężczyzna,18,2021-09-06_19h17.32.143,rantool2,2021.1.4,Win32,60.96817461,6135e006383e6ea6c3d06a28,61364d1b0a158a48bbe3f2dd,,,,,,,,
f,1.1982,0,31,31,2,1,5faabf6892918949deab90e4,OOOOROO,OOOOROR,20.43051175,21.02936224,series_1,5faabf6892918949deab90e4,Mężczyzna,18,2021-09-06_19h17.32.143,rantool2,2021.1.4,Win32,60.96817461,6135e006383e6ea6c3d06a28,61364d1b0a158a48bbe3f2dd,,,,,,,,
j,1.3673,0,32,32,19,1,5faabf6892918949deab90e4,OROORRO,OROORRR,21.73568164,22.11181017,series_1,5faabf6892918949deab90e4,Mężczyzna,18,2021-09-06_19h17.32.143,rantool2,2021.1.4,Win32,60.96817461,6135e006383e6ea6c3d06a28,61364d1b0a158a48bbe3f2dd,,,,,,,,
f,1.8173,0,33,33,24,1,5faabf6892918949deab90e4,ORROOOO,ORROOOR,21.12383932,22.07102821,series_1,5faabf6892918949deab90e4,Mężczyzna,18,2021-09-06_19h17.32.143,rantool2,2021.1.4,Win32,60.96817461,6135e006383e6ea6c3d06a28,61364d1b0a158a48bbe3f2dd,,,,,,,,
f,2.2588,0,34,34,62,1,5faabf6892918949deab90e4,RRRRROO,RRRRROR,22.16413392,21.27974287,series_0,5faabf6892918949deab90e4,Mężczyzna,18,2021-09-06_19h17.32.143,rantool2,2021.1.4,Win32,60.96817461,6135e006383e6ea6c3d06a28,61364d1b0a158a48bbe3f2dd,,,,,,,,
f,1.84,0,35,35,51,1,5faabf6892918949deab90e4,RROORRO,RROORRR,21.89852628,22.02786418,series_1,5faabf6892918949deab90e4,Mężczyzna,18,2021-09-06_19h17.32.143,rantool2,2021.1.4,Win32,60.96817461,6135e006383e6ea6c3d06a28,61364d1b0a158a48bbe3f2dd,,,,,,,,
j,2.7818,0,36,36,48,1,5faabf6892918949deab90e4,RROOOOO,RROOOOR,20.90986523,22.15934078,series_1,5faabf6892918949deab90e4,Mężczyzna,18,2021-09-06_19h17.32.143,rantool2,2021.1.4,Win32,60.96817461,6135e006383e6ea6c3d06a28,61364d1b0a158a48bbe3f2dd,,,,,,,,
f,0.9983,0,37,37,18,1,5faabf6892918949deab90e4,OROOROO,OROOROR,20.84860893,21.22513037,series_1,5faabf6892918949deab90e4,Mężczyzna,18,2021-09-06_19h17.32.143,rantool2,2021.1.4,Win32,60.96817461,6135e006383e6ea6c3d06a28,61364d1b0a158a48bbe3f2dd,,,,,,,,
j,1.4608,0,38,38,46,1,5faabf6892918949deab90e4,RORRROO,RORRROR,22.00300695,21.24781509,series_0,5faabf6892918949deab90e4,Mężczyzna,18,2021-09-06_19h17.32.143,rantool2,2021.1.4,Win32,60.96817461,6135e006383e6ea6c3d06a28,61364d1b0a158a48bbe3f2dd,,,,,,,,
f,1.3701,0,39,39,37,1,5faabf6892918949deab90e4,ROORORO,ROORORR,20.42602454,21.57657071,series_1,5faabf6892918949deab90e4,Mężczyzna,18,2021-09-06_19h17.32.143,rantool2,2021.1.4,Win32,60.96817461,6135e006383e6ea6c3d06a28,61364d1b0a158a48bbe3f2dd,,,,,,,,
j,1.0027,0,40,40,40,1,5faabf6892918949deab90e4,ROROOOO,ROROOOR,20.87963819,21.37121559,series_1,5faabf6892918949deab90e4,Mężczyzna,18,2021-09-06_19h17.32.143,rantool2,2021.1.4,Win32,60.96817461,6135e006383e6ea6c3d06a28,61364d1b0a158a48bbe3f2dd,,,,,,,,
j,1.2583,0,41,41,39,1,5faabf6892918949deab90e4,ROORRRO,ROORRRR,21.82425538,21.38562617,series_0,5faabf6892918949deab90e4,Mężczyzna,18,2021-09-06_19h17.32.143,rantool2,2021.1.4,Win32,60.96817461,6135e006383e6ea6c3d06a28,61364d1b0a158a48bbe3f2dd,,,,,,,,
j,1.5596,0,42,42,44,1,5faabf6892918949deab90e4,RORROOO,RORROOR,21.66733484,22.02566557,series_1,5faabf6892918949deab90e4,Mężczyzna,18,2021-09-06_19h17.32.143,rantool2,2021.1.4,Win32,60.96817461,6135e006383e6ea6c3d06a28,61364d1b0a158a48bbe3f2dd,,,,,,,,
f,1.9363,0,43,43,17,1,5faabf6892918949deab90e4,OROOORO,OROOORR,21.03750787,22.12173012,series_1,5faabf6892918949deab90e4,Mężczyzna,18,2021-09-06_19h17.32.143,rantool2,2021.1.4,Win32,60.96817461,6135e006383e6ea6c3d06a28,61364d1b0a158a48bbe3f2dd,,,,,,,,
j,1.7152,0,44,44,10,1,5faabf6892918949deab90e4,OOROROO,OOROROR,21.31236711,21.07490964,series_0,5faabf6892918949deab90e4,Mężczyzna,18,2021-09-06_19h17.32.143,rantool2,2021.1.4,Win32,60.96817461,6135e006383e6ea6c3d06a28,61364d1b0a158a48bbe3f2dd,,,,,,,,
f,1.6009,0,45,45,20,1,5faabf6892918949deab90e4,OROROOO,OROROOR,21.31236711,21.90565814,series_1,5faabf6892918949deab90e4,Mężczyzna,18,2021-09-06_19h17.32.143,rantool2,2021.1.4,Win32,60.96817461,6135e006383e6ea6c3d06a28,61364d1b0a158a48bbe3f2dd,,,,,,,,
j,1.2838,0,46,46,15,1,5faabf6892918949deab90e4,OORRRRO,OORRRRR,22.10108823,21.74922619,series_0,5faabf6892918949deab90e4,Mężczyzna,18,2021-09-06_19h17.32.143,rantool2,2021.1.4,Win32,60.96817461,6135e006383e6ea6c3d06a28,61364d1b0a158a48bbe3f2dd,,,,,,,,
j,1.8884,0,47,47,7,1,5faabf6892918949deab90e4,OOORRRO,OOORRRR,21.6194508,21.899017,series_1,5faabf6892918949deab90e4,Mężczyzna,18,2021-09-06_19h17.32.143,rantool2,2021.1.4,Win32,60.96817461,6135e006383e6ea6c3d06a28,61364d1b0a158a48bbe3f2dd,,,,,,,,
f,2.2276,0,48,48,3,1,5faabf6892918949deab90e4,OOOORRO,OOOORRR,20.90986523,21.74922619,series_1,5faabf6892918949deab90e4,Mężczyzna,18,2021-09-06_19h17.32.143,rantool2,2021.1.4,Win32,60.96817461,6135e006383e6ea6c3d06a28,61364d1b0a158a48bbe3f2dd,,,,,,,,
f,1.1318,0,49,49,22,1,5faabf6892918949deab90e4,ORORROO,ORORROR,22.02732763,21.57657071,series_0,5faabf6892918949deab90e4,Mężczyzna,18,2021-09-06_19h17.32.143,rantool2,2021.1.4,Win32,60.96817461,6135e006383e6ea6c3d06a28,61364d1b0a158a48bbe3f2dd,,,,,,,,
j,0.9482,0,50,50,55,1,5faabf6892918949deab90e4,RRORRRO,RRORRRR,21.56657303,21.21223021,series_0,5faabf6892918949deab90e4,Mężczyzna,18,2021-09-06_19h17.32.143,rantool2,2021.1.4,Win32,60.96817461,6135e006383e6ea6c3d06a28,61364d1b0a158a48bbe3f2dd,,,,,,,,
f,1.6855,0,51,51,50,1,5faabf6892918949deab90e4,RROOROO,RROOROR,21.73568164,22.02566557,series_1,5faabf6892918949deab90e4,Mężczyzna,18,2021-09-06_19h17.32.143,rantool2,2021.1.4,Win32,60.96817461,6135e006383e6ea6c3d06a28,61364d1b0a158a48bbe3f2dd,,,,,,,,
j,1.8175,0,52,52,6,1,5faabf6892918949deab90e4,OOORROO,OOORROR,21.12383932,21.38562617,series_1,5faabf6892918949deab90e4,Mężczyzna,18,2021-09-06_19h17.32.143,rantool2,2021.1.4,Win32,60.96817461,6135e006383e6ea6c3d06a28,61364d1b0a158a48bbe3f2dd,,,,,,,,
f,1.0002,0,53,53,49,1,5faabf6892918949deab90e4,RROOORO,RROOORR,21.76276513,22.53364006,series_1,5faabf6892918949deab90e4,Mężczyzna,18,2021-09-06_19h17.32.143,rantool2,2021.1.4,Win32,60.96817461,6135e006383e6ea6c3d06a28,61364d1b0a158a48bbe3f2dd,,,,,,,,
f,1.5358,0,54,54,30,1,5faabf6892918949deab90e4,ORRRROO,ORRRROR,22.46748491,22.03072203,series_0,5faabf6892918949deab90e4,Mężczyzna,18,2021-09-06_19h17.32.143,rantool2,2021.1.4,Win32,60.96817461,6135e006383e6ea6c3d06a28,61364d1b0a158a48bbe3f2dd,,,,,,,,
f,1.2414,0,55,55,53,1,5faabf6892918949deab90e4,RRORORO,RRORORR,20.71309134,21.90565814,series_1,5faabf6892918949deab90e4,Mężczyzna,18,2021-09-06_19h17.32.143,rantool2,2021.1.4,Win32,60.96817461,6135e006383e6ea6c3d06a28,61364d1b0a158a48bbe3f2dd,,,,,,,,
j,1.3989,0,56,56,9,1,5faabf6892918949deab90e4,OOROORO,OOROORR,21.07991943,22.2428857,series_1,5faabf6892918949deab90e4,Mężczyzna,18,2021-09-06_19h17.32.143,rantool2,2021.1.4,Win32,60.96817461,6135e006383e6ea6c3d06a28,61364d1b0a158a48bbe3f2dd,,,,,,,,
f,1.5182,0,57,57,35,1,5faabf6892918949deab90e4,ROOORRO,ROOORRR,21.76276513,22.16977179,series_1,5faabf6892918949deab90e4,Mężczyzna,18,2021-09-06_19h17.32.143,rantool2,2021.1.4,Win32,60.96817461,6135e006383e6ea6c3d06a28,61364d1b0a158a48bbe3f2dd,,,,,,,,
j,1.1482,0,58,58,31,1,5faabf6892918949deab90e4,ORRRRRO,ORRRRRR,22.16413392,20.74050628,series_0,5faabf6892918949deab90e4,Mężczyzna,18,2021-09-06_19h17.32.143,rantool2,2021.1.4,Win32,60.96817461,6135e006383e6ea6c3d06a28,61364d1b0a158a48bbe3f2dd,,,,,,,,
f,1.2746,0,59,59,12,1,5faabf6892918949deab90e4,OORROOO,OORROOR,21.30250474,22.02786418,series_1,5faabf6892918949deab90e4,Mężczyzna,18,2021-09-06_19h17.32.143,rantool2,2021.1.4,Win32,60.96817461,6135e006383e6ea6c3d06a28,61364d1b0a158a48bbe3f2dd,,,,,,,,
j,1.2708,0,60,60,23,1,5faabf6892918949deab90e4,ORORRRO,ORORRRR,22.1285618,21.9921709,series_0,5faabf6892918949deab90e4,Mężczyzna,18,2021-09-06_19h17.32.143,rantool2,2021.1.4,Win32,60.96817461,6135e006383e6ea6c3d06a28,61364d1b0a158a48bbe3f2dd,,,,,,,,
f,1.5507,0,61,61,59,1,5faabf6892918949deab90e4,RRRORRO,RRRORRR,21.56657303,20.89823192,series_0,5faabf6892918949deab90e4,Mężczyzna,18,2021-09-06_19h17.32.143,rantool2,2021.1.4,Win32,60.96817461,6135e006383e6ea6c3d06a28,61364d1b0a158a48bbe3f2dd,,,,,,,,
j,1.9246,0,62,62,43,1,5faabf6892918949deab90e4,RORORRO,RORORRR,20.71309134,21.07490964,series_1,5faabf6892918949deab90e4,Mężczyzna,18,2021-09-06_19h17.32.143,rantool2,2021.1.4,Win32,60.96817461,6135e006383e6ea6c3d06a28,61364d1b0a158a48bbe3f2dd,,,,,,,,
j,1.3911,0,63,63,60,1,5faabf6892918949deab90e4,RRRROOO,RRRROOR,22.10108823,22.15934078,series_1,5faabf6892918949deab90e4,Mężczyzna,18,2021-09-06_19h17.32.143,rantool2,2021.1.4,Win32,60.96817461,6135e006383e6ea6c3d06a28,61364d1b0a158a48bbe3f2dd,,,,,,,,
,,,,,,,5faabf6892918949deab90e4,,,,,,5faabf6892918949deab90e4,Mężczyzna,18,2021-09-06_19h17.32.143,rantool2,2021.1.4,Win32,60.96817461,6135e006383e6ea6c3d06a28,61364d1b0a158a48bbe3f2dd,0,,,0,0,0,0,1
,,,,,,,5faabf6892918949deab90e4,,,,,,5faabf6892918949deab90e4,Mężczyzna,18,2021-09-06_19h17.32.143,rantool2,2021.1.4,Win32,60.96817461,6135e006383e6ea6c3d06a28,61364d1b0a158a48bbe3f2dd,"[""comma""]",0,[0.38689999999991187],1,0,1,0,1
,,,,,,,5faabf6892918949deab90e4,,,,,,5faabf6892918949deab90e4,Mężczyzna,18,2021-09-06_19h17.32.143,rantool2,2021.1.4,Win32,60.96817461,6135e006383e6ea6c3d06a28,61364d1b0a158a48bbe3f2dd,"[""period""]",0,[0.5338999999999032],2,0,2,0,1
,,,,,,,5faabf6892918949deab90e4,,,,,,5faabf6892918949deab90e4,Mężczyzna,18,2021-09-06_19h17.32.143,rantool2,2021.1.4,Win32,60.96817461,6135e006383e6ea6c3d06a28,61364d1b0a158a48bbe3f2dd,"[""period""]",0,[0.4506000000000654],3,0,3,0,1
,,,,,,,5faabf6892918949deab90e4,,,,,,5faabf6892918949deab90e4,Mężczyzna,18,2021-09-06_19h17.32.143,rantool2,2021.1.4,Win32,60.96817461,6135e006383e6ea6c3d06a28,61364d1b0a158a48bbe3f2dd,"[""comma""]",0,[0.30060000000008813],4,0,4,0,1
,,,,,,,5faabf6892918949deab90e4,,,,,,5faabf6892918949deab90e4,Mężczyzna,18,2021-09-06_19h17.32.143,rantool2,2021.1.4,Win32,60.96817461,6135e006383e6ea6c3d06a28,61364d1b0a158a48bbe3f2dd,"[""period""]",0,[0.28389999999990323],5,0,5,0,1
,,,,,,,5faabf6892918949deab90e4,,,,,,5faabf6892918949deab90e4,Mężczyzna,18,2021-09-06_19h17.32.143,rantool2,2021.1.4,Win32,60.96817461,6135e006383e6ea6c3d06a28,61364d1b0a158a48bbe3f2dd,"[""period""]",0,[0.2353000000002794],6,0,6,0,1
,,,,,,,5faabf6892918949deab90e4,,,,,,5faabf6892918949deab90e4,Mężczyzna,18,2021-09-06_19h17.32.143,rantool2,2021.1.4,Win32,60.96817461,6135e006383e6ea6c3d06a28,61364d1b0a158a48bbe3f2dd,"[""period""]",0,[0.3337000000001922],7,0,7,0,1
,,,,,,,5faabf6892918949deab90e4,,,,,,5faabf6892918949deab90e4,Mężczyzna,18,2021-09-06_19h17.32.143,rantool2,2021.1.4,Win32,60.96817461,6135e006383e6ea6c3d06a28,61364d1b0a158a48bbe3f2dd,"[""period""]",0,[0.7228999999998678],8,0,8,0,1
,,,,,,,5faabf6892918949deab90e4,,,,,,5faabf6892918949deab90e4,Mężczyzna,18,2021-09-06_19h17.32.143,rantool2,2021.1.4,Win32,60.96817461,6135e006383e6ea6c3d06a28,61364d1b0a158a48bbe3f2dd,"[""comma""]",0,[0.9334999999999809],9,0,9,0,1
,,,,,,,5faabf6892918949deab90e4,,,,,,5faabf6892918949deab90e4,Mężczyzna,18,2021-09-06_19h17.32.143,rantool2,2021.1.4,Win32,60.96817461,6135e006383e6ea6c3d06a28,61364d1b0a158a48bbe3f2dd,"[""comma""]",0,[1.1836999999997033],10,0,10,0,1
,,,,,,,5faabf6892918949deab90e4,,,,,,5faabf6892918949deab90e4,Mężczyzna,18,2021-09-06_19h17.32.143,rantool2,2021.1.4,Win32,60.96817461,6135e006383e6ea6c3d06a28,61364d1b0a158a48bbe3f2dd,"[""comma""]",0,[1.1382999999997878],11,0,11,0,1
,,,,,,,5faabf6892918949deab90e4,,,,,,5faabf6892918949deab90e4,Mężczyzna,18,2021-09-06_19h17.32.143,rantool2,2021.1.4,Win32,60.96817461,6135e006383e6ea6c3d06a28,61364d1b0a158a48bbe3f2dd,"[""period""]",0,[1.2001000000000772],12,0,12,0,1
,,,,,,,5faabf6892918949deab90e4,,,,,,5faabf6892918949deab90e4,Mężczyzna,18,2021-09-06_19h17.32.143,rantool2,2021.1.4,Win32,60.96817461,6135e006383e6ea6c3d06a28,61364d1b0a158a48bbe3f2dd,"[""comma""]",0,[1.1170000000000186],13,0,13,0,1
,,,,,,,5faabf6892918949deab90e4,,,,,,5faabf6892918949deab90e4,Mężczyzna,18,2021-09-06_19h17.32.143,rantool2,2021.1.4,Win32,60.96817461,6135e006383e6ea6c3d06a28,61364d1b0a158a48bbe3f2dd,0,0,,14,0,14,0,1
,,,,,,,5faabf6892918949deab90e4,,,,,,5faabf6892918949deab90e4,Mężczyzna,18,2021-09-06_19h17.32.143,rantool2,2021.1.4,Win32,60.96817461,6135e006383e6ea6c3d06a28,61364d1b0a158a48bbe3f2dd,"[""comma""]",0,[0.4506000000000654],15,0,15,0,1
,,,,,,,5faabf6892918949deab90e4,,,,,,5faabf6892918949deab90e4,Mężczyzna,18,2021-09-06_19h17.32.143,rantool2,2021.1.4,Win32,60.96817461,6135e006383e6ea6c3d06a28,61364d1b0a158a48bbe3f2dd,"[""period""]",0,[0.2672999999998069],16,0,16,0,1
,,,,,,,5faabf6892918949deab90e4,,,,,,5faabf6892918949deab90e4,Mężczyzna,18,2021-09-06_19h17.32.143,rantool2,2021.1.4,Win32,60.96817461,6135e006383e6ea6c3d06a28,61364d1b0a158a48bbe3f2dd,"[""comma""]",0,[0.30049999999999955],17,0,17,0,1
,,,,,,,5faabf6892918949deab90e4,,,,,,5faabf6892918949deab90e4,Mężczyzna,18,2021-09-06_19h17.32.143,rantool2,2021.1.4,Win32,60.96817461,6135e006383e6ea6c3d06a28,61364d1b0a158a48bbe3f2dd,"[""period""]",0,[0.20060000000012224],18,0,18,0,1
,,,,,,,5faabf6892918949deab90e4,,,,,,5faabf6892918949deab90e4,Mężczyzna,18,2021-09-06_19h17.32.143,rantool2,2021.1.4,Win32,60.96817461,6135e006383e6ea6c3d06a28,61364d1b0a158a48bbe3f2dd,"[""comma""]",0,[0.24360000000007176],19,0,19,0,1
,,,,,,,5faabf6892918949deab90e4,,,,,,5faabf6892918949deab90e4,Mężczyzna,18,2021-09-06_19h17.32.143,rantool2,2021.1.4,Win32,60.96817461,6135e006383e6ea6c3d06a28,61364d1b0a158a48bbe3f2dd,"[""comma""]",0,[0.3007000000001767],20,0,20,0,1
,,,,,,,5faabf6892918949deab90e4,,,,,,5faabf6892918949deab90e4,Mężczyzna,18,2021-09-06_19h17.32.143,rantool2,2021.1.4,Win32,60.96817461,6135e006383e6ea6c3d06a28,61364d1b0a158a48bbe3f2dd,"[""period""]",0,[0.23380000000025802],21,0,21,0,1
,,,,,,,5faabf6892918949deab90e4,,,,,,5faabf6892918949deab90e4,Mężczyzna,18,2021-09-06_19h17.32.143,rantool2,2021.1.4,Win32,60.96817461,6135e006383e6ea6c3d06a28,61364d1b0a158a48bbe3f2dd,"[""period""]",0,[0.3007000000001767],22,0,22,0,1
,,,,,,,5faabf6892918949deab90e4,,,,,,5faabf6892918949deab90e4,Mężczyzna,18,2021-09-06_19h17.32.143,rantool2,2021.1.4,Win32,60.96817461,6135e006383e6ea6c3d06a28,61364d1b0a158a48bbe3f2dd,"[""comma""]",0,[0.3672000000001958],23,0,23,0,1
,,,,,,,5faabf6892918949deab90e4,,,,,,5faabf6892918949deab90e4,Mężczyzna,18,2021-09-06_19h17.32.143,rantool2,2021.1.4,Win32,60.96817461,6135e006383e6ea6c3d06a28,61364d1b0a158a48bbe3f2dd,"[""comma""]",0,[0.3397000000002208],24,0,24,0,1
,,,,,,,5faabf6892918949deab90e4,,,,,,5faabf6892918949deab90e4,Mężczyzna,18,2021-09-06_19h17.32.143,rantool2,2021.1.4,Win32,60.96817461,6135e006383e6ea6c3d06a28,61364d1b0a158a48bbe3f2dd,"[""period""]",0,[0.2674999999999841],25,0,25,0,1
,,,,,,,5faabf6892918949deab90e4,,,,,,5faabf6892918949deab90e4,Mężczyzna,18,2021-09-06_19h17.32.143,rantool2,2021.1.4,Win32,60.96817461,6135e006383e6ea6c3d06a28,61364d1b0a158a48bbe3f2dd,"[""comma""]",0,[0.2837000000001808],26,0,26,0,1
,,,,,,,5faabf6892918949deab90e4,,,,,,5faabf6892918949deab90e4,Mężczyzna,18,2021-09-06_19h17.32.143,rantool2,2021.1.4,Win32,60.96817461,6135e006383e6ea6c3d06a28,61364d1b0a158a48bbe3f2dd,"[""period""]",0,[0.2597000000001799],27,0,27,0,1
,,,,,,,5faabf6892918949deab90e4,,,,,,5faabf6892918949deab90e4,Mężczyzna,18,2021-09-06_19h17.32.143,rantool2,2021.1.4,Win32,60.96817461,6135e006383e6ea6c3d06a28,61364d1b0a158a48bbe3f2dd,"[""comma""]",0,[0.3731000000001359],28,0,28,0,1
,,,,,,,5faabf6892918949deab90e4,,,,,,5faabf6892918949deab90e4,Mężczyzna,18,2021-09-06_19h17.32.143,rantool2,2021.1.4,Win32,60.96817461,6135e006383e6ea6c3d06a28,61364d1b0a158a48bbe3f2dd,"[""comma""]",0,[0.3340000000000032],29,0,29,0,1
,,,,,,,5faabf6892918949deab90e4,,,,,,5faabf6892918949deab90e4,Mężczyzna,18,2021-09-06_19h17.32.143,rantool2,2021.1.4,Win32,60.96817461,6135e006383e6ea6c3d06a28,61364d1b0a158a48bbe3f2dd,"[""period""]",0,[0.2839000000004148],30,0,30,0,1
,,,,,,,5faabf6892918949deab90e4,,,,,,5faabf6892918949deab90e4,Mężczyzna,18,2021-09-06_19h17.32.143,rantool2,2021.1.4,Win32,60.96817461,6135e006383e6ea6c3d06a28,61364d1b0a158a48bbe3f2dd,"[""comma""]",0,[0.35589999999990596],31,0,31,0,1
,,,,,,,5faabf6892918949deab90e4,,,,,,5faabf6892918949deab90e4,Mężczyzna,18,2021-09-06_19h17.32.143,rantool2,2021.1.4,Win32,60.96817461,6135e006383e6ea6c3d06a28,61364d1b0a158a48bbe3f2dd,"[""comma""]",0,[0.444500000000005],32,0,32,0,1
,,,,,,,5faabf6892918949deab90e4,,,,,,5faabf6892918949deab90e4,Mężczyzna,18,2021-09-06_19h17.32.143,rantool2,2021.1.4,Win32,60.96817461,6135e006383e6ea6c3d06a28,61364d1b0a158a48bbe3f2dd,"[""period""]",0,[0.22779999999977463],33,0,33,0,1
,,,,,,,5faabf6892918949deab90e4,,,,,,5faabf6892918949deab90e4,Mężczyzna,18,2021-09-06_19h17.32.143,rantool2,2021.1.4,Win32,60.96817461,6135e006383e6ea6c3d06a28,61364d1b0a158a48bbe3f2dd,"[""comma""]",0,[0.20070000000021082],34,0,34,0,1
,,,,,,,5faabf6892918949deab90e4,,,,,,5faabf6892918949deab90e4,Mężczyzna,18,2021-09-06_19h17.32.143,rantool2,2021.1.4,Win32,60.96817461,6135e006383e6ea6c3d06a28,61364d1b0a158a48bbe3f2dd,"[""period""]",0,[0.236200000000224],35,0,35,0,1
,,,,,,,5faabf6892918949deab90e4,,,,,,5faabf6892918949deab90e4,Mężczyzna,18,2021-09-06_19h17.32.143,rantool2,2021.1.4,Win32,60.96817461,6135e006383e6ea6c3d06a28,61364d1b0a158a48bbe3f2dd,"[""period""]",0,[0.3005999999996334],36,0,36,0,1
,,,,,,,5faabf6892918949deab90e4,,,,,,5faabf6892918949deab90e4,Mężczyzna,18,2021-09-06_19h17.32.143,rantool2,2021.1.4,Win32,60.96817461,6135e006383e6ea6c3d06a28,61364d1b0a158a48bbe3f2dd,"[""period""]",0,[0.2597000000001799],37,0,37,0,1
,,,,,,,5faabf6892918949deab90e4,,,,,,5faabf6892918949deab90e4,Mężczyzna,18,2021-09-06_19h17.32.143,rantool2,2021.1.4,Win32,60.96817461,6135e006383e6ea6c3d06a28,61364d1b0a158a48bbe3f2dd,"[""period""]",0,[0.23389999999989186],38,0,38,0,1
,,,,,,,5faabf6892918949deab90e4,,,,,,5faabf6892918949deab90e4,Mężczyzna,18,2021-09-06_19h17.32.143,rantool2,2021.1.4,Win32,60.96817461,6135e006383e6ea6c3d06a28,61364d1b0a158a48bbe3f2dd,"[""period""]",0,[0.2597000000001799],39,0,39,0,1
,,,,,,,5faabf6892918949deab90e4,,,,,,5faabf6892918949deab90e4,Mężczyzna,18,2021-09-06_19h17.32.143,rantool2,2021.1.4,Win32,60.96817461,6135e006383e6ea6c3d06a28,61364d1b0a158a48bbe3f2dd,"[""comma"",""period""]",0,"[0.5169999999999959,1.6502999999997883]",40,0,40,0,1
,,,,,,,5faabf6892918949deab90e4,,,,,,5faabf6892918949deab90e4,Mężczyzna,18,2021-09-06_19h17.32.143,rantool2,2021.1.4,Win32,60.96817461,6135e006383e6ea6c3d06a28,61364d1b0a158a48bbe3f2dd,"[""period"",""comma""]",0,"[0.23539999999991323,1.9395000000000095]",41,0,41,0,1
,,,,,,,5faabf6892918949deab90e4,,,,,,5faabf6892918949deab90e4,Mężczyzna,18,2021-09-06_19h17.32.143,rantool2,2021.1.4,Win32,60.96817461,6135e006383e6ea6c3d06a28,61364d1b0a158a48bbe3f2dd,"[""comma""]",0,[0.7339000000004035],42,0,42,0,1
,,,,,,,5faabf6892918949deab90e4,,,,,,5faabf6892918949deab90e4,Mężczyzna,18,2021-09-06_19h17.32.143,rantool2,2021.1.4,Win32,60.96817461,6135e006383e6ea6c3d06a28,61364d1b0a158a48bbe3f2dd,"[""period""]",0,[0.4272999999997751],43,0,43,0,1
,,,,,,,5faabf6892918949deab90e4,,,,,,5faabf6892918949deab90e4,Mężczyzna,18,2021-09-06_19h17.32.143,rantool2,2021.1.4,Win32,60.96817461,6135e006383e6ea6c3d06a28,61364d1b0a158a48bbe3f2dd,"[""period"",""comma""]",0,"[0.1837999999997919,1.4003999999998769]",44,0,44,0,1
,,,,,,,5faabf6892918949deab90e4,,,,,,5faabf6892918949deab90e4,Mężczyzna,18,2021-09-06_19h17.32.143,rantool2,2021.1.4,Win32,60.96817461,6135e006383e6ea6c3d06a28,61364d1b0a158a48bbe3f2dd,"[""period""]",0,[0.6750999999995884],45,0,45,0,1
,,,,,,,5faabf6892918949deab90e4,,,,,,5faabf6892918949deab90e4,Mężczyzna,18,2021-09-06_19h17.32.143,rantool2,2021.1.4,Win32,60.96817461,6135e006383e6ea6c3d06a28,61364d1b0a158a48bbe3f2dd,"[""comma""]",0,[0.3068000000002371],46,0,46,0,1
,,,,,,,5faabf6892918949deab90e4,,,,,,5faabf6892918949deab90e4,Mężczyzna,18,2021-09-06_19h17.32.143,rantool2,2021.1.4,Win32,60.96817461,6135e006383e6ea6c3d06a28,61364d1b0a158a48bbe3f2dd,"[""period""]",0,[0.28350000000000364],47,0,47,0,1
,,,,,,,5faabf6892918949deab90e4,,,,,,5faabf6892918949deab90e4,Mężczyzna,18,2021-09-06_19h17.32.143,rantool2,2021.1.4,Win32,60.96817461,6135e006383e6ea6c3d06a28,61364d1b0a158a48bbe3f2dd,"[""comma""]",0,[0.15079999999977645],48,0,48,0,1
,,,,,,,5faabf6892918949deab90e4,,,,,,5faabf6892918949deab90e4,Mężczyzna,18,2021-09-06_19h17.32.143,rantool2,2021.1.4,Win32,60.96817461,6135e006383e6ea6c3d06a28,61364d1b0a158a48bbe3f2dd,"[""period""]",0,[0.25060000000007676],49,0,49,0,1
,,,,,,,5faabf6892918949deab90e4,,,,,,5faabf6892918949deab90e4,Mężczyzna,18,2021-09-06_19h17.32.143,rantool2,2021.1.4,Win32,60.96817461,6135e006383e6ea6c3d06a28,61364d1b0a158a48bbe3f2dd,"[""comma""]",0,[0.2339000000003466],50,0,50,0,1
,,,,,,,5faabf6892918949deab90e4,,,,,,5faabf6892918949deab90e4,Mężczyzna,18,2021-09-06_19h17.32.143,rantool2,2021.1.4,Win32,60.96817461,6135e006383e6ea6c3d06a28,61364d1b0a158a48bbe3f2dd,"[""comma"",""period""]",0,"[0.2838000000002694,1.9618999999999005]",51,0,51,0,1
,,,,,,,5faabf6892918949deab90e4,,,,,,5faabf6892918949deab90e4,Mężczyzna,18,2021-09-06_19h17.32.143,rantool2,2021.1.4,Win32,60.96817461,6135e006383e6ea6c3d06a28,61364d1b0a158a48bbe3f2dd,"[""period""]",0,[1.289899999999875],52,0,52,0,1
,,,,,,,5faabf6892918949deab90e4,,,,,,5faabf6892918949deab90e4,Mężczyzna,18,2021-09-06_19h17.32.143,rantool2,2021.1.4,Win32,60.96817461,6135e006383e6ea6c3d06a28,61364d1b0a158a48bbe3f2dd,"[""comma""]",0,[0.36210000000005493],53,0,53,0,1
,,,,,,,5faabf6892918949deab90e4,,,,,,5faabf6892918949deab90e4,Mężczyzna,18,2021-09-06_19h17.32.143,rantool2,2021.1.4,Win32,60.96817461,6135e006383e6ea6c3d06a28,61364d1b0a158a48bbe3f2dd,"[""period""]",0,[0.353700000000174],54,0,54,0,1
,,,,,,,5faabf6892918949deab90e4,,,,,,5faabf6892918949deab90e4,Mężczyzna,18,2021-09-06_19h17.32.143,rantool2,2021.1.4,Win32,60.96817461,6135e006383e6ea6c3d06a28,61364d1b0a158a48bbe3f2dd,"[""comma""]",0,[0.2671000000000845],55,0,55,0,1
,,,,,,,5faabf6892918949deab90e4,,,,,,5faabf6892918949deab90e4,Mężczyzna,18,2021-09-06_19h17.32.143,rantool2,2021.1.4,Win32,60.96817461,6135e006383e6ea6c3d06a28,61364d1b0a158a48bbe3f2dd,"[""comma""]",0,[0.39329999999978327],56,0,56,0,1
,,,,,,,5faabf6892918949deab90e4,,,,,,5faabf6892918949deab90e4,Mężczyzna,18,2021-09-06_19h17.32.143,rantool2,2021.1.4,Win32,60.96817461,6135e006383e6ea6c3d06a28,61364d1b0a158a48bbe3f2dd,"[""period""]",0,[0.25080000000025393],57,0,57,0,1
,,,,,,,5faabf6892918949deab90e4,,,,,,5faabf6892918949deab90e4,Mężczyzna,18,2021-09-06_19h17.32.143,rantool2,2021.1.4,Win32,60.96817461,6135e006383e6ea6c3d06a28,61364d1b0a158a48bbe3f2dd,"[""comma""]",0,[0.2582000000001585],58,0,58,0,1
,,,,,,,5faabf6892918949deab90e4,,,,,,5faabf6892918949deab90e4,Mężczyzna,18,2021-09-06_19h17.32.143,rantool2,2021.1.4,Win32,60.96817461,6135e006383e6ea6c3d06a28,61364d1b0a158a48bbe3f2dd,"[""period""]",0,[0.3377000000002113],59,0,59,0,1
,,,,,,,5faabf6892918949deab90e4,,,,,,5faabf6892918949deab90e4,Mężczyzna,18,2021-09-06_19h17.32.143,rantool2,2021.1.4,Win32,60.96817461,6135e006383e6ea6c3d06a28,61364d1b0a158a48bbe3f2dd,"[""comma""]",0,[0.3856999999997015],60,0,60,0,1
,,,,,,,5faabf6892918949deab90e4,,,,,,5faabf6892918949deab90e4,Mężczyzna,18,2021-09-06_19h17.32.143,rantool2,2021.1.4,Win32,60.96817461,6135e006383e6ea6c3d06a28,61364d1b0a158a48bbe3f2dd,"[""period""]",0,[0.3002999999998224],61,0,61,0,1
,,,,,,,5faabf6892918949deab90e4,,,,,,5faabf6892918949deab90e4,Mężczyzna,18,2021-09-06_19h17.32.143,rantool2,2021.1.4,Win32,60.96817461,6135e006383e6ea6c3d06a28,61364d1b0a158a48bbe3f2dd,"[""comma""]",0,[0.2672999999998069],62,0,62,0,1
,,,,,,,5faabf6892918949deab90e4,,,,,,5faabf6892918949deab90e4,Mężczyzna,18,2021-09-06_19h17.32.143,rantool2,2021.1.4,Win32,60.96817461,6135e006383e6ea6c3d06a28,61364d1b0a158a48bbe3f2dd,"[""period""]",0,[0.2839999999999918],63,0,63,0,1
,,,,,,,5faabf6892918949deab90e4,,,,,,5faabf6892918949deab90e4,Mężczyzna,18,2021-09-06_19h17.32.143,rantool2,2021.1.4,Win32,60.96817461,6135e006383e6ea6c3d06a28,61364d1b0a158a48bbe3f2dd,"[""comma""]",0,[0.38389999999992597],64,0,64,0,1
,,,,,,,5faabf6892918949deab90e4,,,,,,5faabf6892918949deab90e4,Mężczyzna,18,2021-09-06_19h17.32.143,rantool2,2021.1.4,Win32,60.96817461,6135e006383e6ea6c3d06a28,61364d1b0a158a48bbe3f2dd,"[""comma""]",0,[0.25760000000008176],65,0,65,0,1
,,,,,,,5faabf6892918949deab90e4,,,,,,5faabf6892918949deab90e4,Mężczyzna,18,2021-09-06_19h17.32.143,rantool2,2021.1.4,Win32,60.96817461,6135e006383e6ea6c3d06a28,61364d1b0a158a48bbe3f2dd,"[""period""]",0,[0.2578999999999496],66,0,66,0,1
,,,,,,,5faabf6892918949deab90e4,,,,,,5faabf6892918949deab90e4,Mężczyzna,18,2021-09-06_19h17.32.143,rantool2,2021.1.4,Win32,60.96817461,6135e006383e6ea6c3d06a28,61364d1b0a158a48bbe3f2dd,"[""comma""]",0,[0.38410000000010314],67,0,67,0,1
,,,,,,,5faabf6892918949deab90e4,,,,,,5faabf6892918949deab90e4,Mężczyzna,18,2021-09-06_19h17.32.143,rantool2,2021.1.4,Win32,60.96817461,6135e006383e6ea6c3d06a28,61364d1b0a158a48bbe3f2dd,"[""period""]",0,[0.361799999999846],68,0,68,0,1
,,,,,,,5faabf6892918949deab90e4,,,,,,5faabf6892918949deab90e4,Mężczyzna,18,2021-09-06_19h17.32.143,rantool2,2021.1.4,Win32,60.96817461,6135e006383e6ea6c3d06a28,61364d1b0a158a48bbe3f2dd,"[""comma""]",0,[0.31710000000009586],69,0,69,0,1
,,,,,,,5faabf6892918949deab90e4,,,,,,5faabf6892918949deab90e4,Mężczyzna,18,2021-09-06_19h17.32.143,rantool2,2021.1.4,Win32,60.96817461,6135e006383e6ea6c3d06a28,61364d1b0a158a48bbe3f2dd,"[""period""]",0,[0.27379999999982374],70,0,70,0,1
,,,,,,,5faabf6892918949deab90e4,,,,,,5faabf6892918949deab90e4,Mężczyzna,18,2021-09-06_19h17.32.143,rantool2,2021.1.4,Win32,60.96817461,6135e006383e6ea6c3d06a28,61364d1b0a158a48bbe3f2dd,"[""comma""]",0,[0.5384999999999991],71,0,71,0,1
,,,,,,,5faabf6892918949deab90e4,,,,,,5faabf6892918949deab90e4,Mężczyzna,18,2021-09-06_19h17.32.143,rantool2,2021.1.4,Win32,60.96817461,6135e006383e6ea6c3d06a28,61364d1b0a158a48bbe3f2dd,"[""period""]",0,[0.3170999999996411],72,0,72,0,1
,,,,,,,5faabf6892918949deab90e4,,,,,,5faabf6892918949deab90e4,Mężczyzna,18,2021-09-06_19h17.32.143,rantool2,2021.1.4,Win32,60.96817461,6135e006383e6ea6c3d06a28,61364d1b0a158a48bbe3f2dd,"[""comma""]",0,[0.10050000000001091],73,0,73,0,1
,,,,,,,5faabf6892918949deab90e4,,,,,,5faabf6892918949deab90e4,Mężczyzna,18,2021-09-06_19h17.32.143,rantool2,2021.1.4,Win32,60.96817461,6135e006383e6ea6c3d06a28,61364d1b0a158a48bbe3f2dd,"[""period""]",0,[0.2842000000002258],74,0,74,0,1
,,,,,,,5faabf6892918949deab90e4,,,,,,5faabf6892918949deab90e4,Mężczyzna,18,2021-09-06_19h17.32.143,rantool2,2021.1.4,Win32,60.96817461,6135e006383e6ea6c3d06a28,61364d1b0a158a48bbe3f2dd,"[""comma""]",0,[0.28400000000004866],75,0,75,0,1
,,,,,,,5faabf6892918949deab90e4,,,,,,5faabf6892918949deab90e4,Mężczyzna,18,2021-09-06_19h17.32.143,rantool2,2021.1.4,Win32,60.96817461,6135e006383e6ea6c3d06a28,61364d1b0a158a48bbe3f2dd,"[""period"",""comma""]",0,"[0.2004999999999768,1.8257999999997878]",76,0,76,0,1
,,,,,,,5faabf6892918949deab90e4,,,,,,5faabf6892918949deab90e4,Mężczyzna,18,2021-09-06_19h17.32.143,rantool2,2021.1.4,Win32,60.96817461,6135e006383e6ea6c3d06a28,61364d1b0a158a48bbe3f2dd,"[""comma""]",0,[0.4015000000000555],77,0,77,0,1
,,,,,,,5faabf6892918949deab90e4,,,,,,5faabf6892918949deab90e4,Mężczyzna,18,2021-09-06_19h17.32.143,rantool2,2021.1.4,Win32,60.96817461,6135e006383e6ea6c3d06a28,61364d1b0a158a48bbe3f2dd,"[""comma"",""comma""]",0,"[0.47419999999971196,1.7620000000000005]",78,0,78,0,1
,,,,,,,5faabf6892918949deab90e4,,,,,,5faabf6892918949deab90e4,Mężczyzna,18,2021-09-06_19h17.32.143,rantool2,2021.1.4,Win32,60.96817461,6135e006383e6ea6c3d06a28,61364d1b0a158a48bbe3f2dd,"[""period""]",0,[1.100299999999777],79,0,79,0,1
,,,,,,,5faabf6892918949deab90e4,,,,,,5faabf6892918949deab90e4,Mężczyzna,18,2021-09-06_19h17.32.143,rantool2,2021.1.4,Win32,60.96817461,6135e006383e6ea6c3d06a28,61364d1b0a158a48bbe3f2dd,"[""comma""]",0,[0.30029999999976553],80,0,80,0,1
,,,,,,,5faabf6892918949deab90e4,,,,,,5faabf6892918949deab90e4,Mężczyzna,18,2021-09-06_19h17.32.143,rantool2,2021.1.4,Win32,60.96817461,6135e006383e6ea6c3d06a28,61364d1b0a158a48bbe3f2dd,"[""period""]",0,[0.30049999999999955],81,0,81,0,1
,,,,,,,5faabf6892918949deab90e4,,,,,,5faabf6892918949deab90e4,Mężczyzna,18,2021-09-06_19h17.32.143,rantool2,2021.1.4,Win32,60.96817461,6135e006383e6ea6c3d06a28,61364d1b0a158a48bbe3f2dd,"[""comma""]",0,[0.8100000000000023],82,0,82,0,1
,,,,,,,5faabf6892918949deab90e4,,,,,,5faabf6892918949deab90e4,Mężczyzna,18,2021-09-06_19h17.32.143,rantool2,2021.1.4,Win32,60.96817461,6135e006383e6ea6c3d06a28,61364d1b0a158a48bbe3f2dd,"[""period""]",0,[0.42569999999972197],83,0,83,0,1
,,,,,,,5faabf6892918949deab90e4,,,,,,5faabf6892918949deab90e4,Mężczyzna,18,2021-09-06_19h17.32.143,rantool2,2021.1.4,Win32,60.96817461,6135e006383e6ea6c3d06a28,61364d1b0a158a48bbe3f2dd,"[""comma""]",0,[0.4173000000002389],84,0,84,0,1
,,,,,,,5faabf6892918949deab90e4,,,,,,5faabf6892918949deab90e4,Mężczyzna,18,2021-09-06_19h17.32.143,rantool2,2021.1.4,Win32,60.96817461,6135e006383e6ea6c3d06a28,61364d1b0a158a48bbe3f2dd,0,0,,85,0,85,0,1
,,,,,,,5faabf6892918949deab90e4,,,,,,5faabf6892918949deab90e4,Mężczyzna,18,2021-09-06_19h17.32.143,rantool2,2021.1.4,Win32,60.96817461,6135e006383e6ea6c3d06a28,61364d1b0a158a48bbe3f2dd,"[""period""]",0,[0.7849999999999682],86,0,86,0,1
,,,,,,,5faabf6892918949deab90e4,,,,,,5faabf6892918949deab90e4,Mężczyzna,18,2021-09-06_19h17.32.143,rantool2,2021.1.4,Win32,60.96817461,6135e006383e6ea6c3d06a28,61364d1b0a158a48bbe3f2dd,"[""comma""]",0,[0.2838000000002694],87,0,87,0,1
,,,,,,,5faabf6892918949deab90e4,,,,,,5faabf6892918949deab90e4,Mężczyzna,18,2021-09-06_19h17.32.143,rantool2,2021.1.4,Win32,60.96817461,6135e006383e6ea6c3d06a28,61364d1b0a158a48bbe3f2dd,"[""period""]",0,[0.2839999999999918],88,0,88,0,1
,,,,,,,5faabf6892918949deab90e4,,,,,,5faabf6892918949deab90e4,Mężczyzna,18,2021-09-06_19h17.32.143,rantool2,2021.1.4,Win32,60.96817461,6135e006383e6ea6c3d06a28,61364d1b0a158a48bbe3f2dd,"[""comma""]",0,[0.37679999999977554],89,0,89,0,1
,,,,,,,5faabf6892918949deab90e4,,,,,,5faabf6892918949deab90e4,Mężczyzna,18,2021-09-06_19h17.32.143,rantool2,2021.1.4,Win32,60.96817461,6135e006383e6ea6c3d06a28,61364d1b0a158a48bbe3f2dd,"[""period""]",0,[0.40120000000018763],90,0,90,0,1
,,,,,,,5faabf6892918949deab90e4,,,,,,5faabf6892918949deab90e4,Mężczyzna,18,2021-09-06_19h17.32.143,rantool2,2021.1.4,Win32,60.96817461,6135e006383e6ea6c3d06a28,61364d1b0a158a48bbe3f2dd,"[""comma""]",0,[0.30060000000008813],91,0,91,0,1
,,,,,,,5faabf6892918949deab90e4,,,,,,5faabf6892918949deab90e4,Mężczyzna,18,2021-09-06_19h17.32.143,rantool2,2021.1.4,Win32,60.96817461,6135e006383e6ea6c3d06a28,61364d1b0a158a48bbe3f2dd,"[""period""]",0,[0.20930000000026894],92,0,92,0,1
,,,,,,,5faabf6892918949deab90e4,,,,,,5faabf6892918949deab90e4,Mężczyzna,18,2021-09-06_19h17.32.143,rantool2,2021.1.4,Win32,60.96817461,6135e006383e6ea6c3d06a28,61364d1b0a158a48bbe3f2dd,"[""comma""]",0,[0.3340000000000032],93,0,93,0,1
,,,,,,,5faabf6892918949deab90e4,,,,,,5faabf6892918949deab90e4,Mężczyzna,18,2021-09-06_19h17.32.143,rantool2,2021.1.4,Win32,60.96817461,6135e006383e6ea6c3d06a28,61364d1b0a158a48bbe3f2dd,"[""period""]",0,[0.30039999999991096],94,0,94,0,1
,,,,,,,5faabf6892918949deab90e4,,,,,,5faabf6892918949deab90e4,Mężczyzna,18,2021-09-06_19h17.32.143,rantool2,2021.1.4,Win32,60.96817461,6135e006383e6ea6c3d06a28,61364d1b0a158a48bbe3f2dd,"[""comma""]",0,[0.25600000000002865],95,0,95,0,1
,,,,,,,5faabf6892918949deab90e4,,,,,,5faabf6892918949deab90e4,Mężczyzna,18,2021-09-06_19h17.32.143,rantool2,2021.1.4,Win32,60.96817461,6135e006383e6ea6c3d06a28,61364d1b0a158a48bbe3f2dd,"[""comma""]",0,[0.28379999999981464],96,0,96,0,1
,,,,,,,5faabf6892918949deab90e4,,,,,,5faabf6892918949deab90e4,Mężczyzna,18,2021-09-06_19h17.32.143,rantool2,2021.1.4,Win32,60.96817461,6135e006383e6ea6c3d06a28,61364d1b0a158a48bbe3f2dd,"[""comma""]",0,[0.3340000000000032],97,0,97,0,1
,,,,,,,5faabf6892918949deab90e4,,,,,,5faabf6892918949deab90e4,Mężczyzna,18,2021-09-06_19h17.32.143,rantool2,2021.1.4,Win32,60.96817461,6135e006383e6ea6c3d06a28,61364d1b0a158a48bbe3f2dd,"[""comma""]",0,[0.3506000000000995],98,0,98,0,1
,,,,,,,5faabf6892918949deab90e4,,,,,,5faabf6892918949deab90e4,Mężczyzna,18,2021-09-06_19h17.32.143,rantool2,2021.1.4,Win32,60.96817461,6135e006383e6ea6c3d06a28,61364d1b0a158a48bbe3f2dd,"[""period""]",0,[0.3007000000001767],99,0,99,0,1
,,,,,,,5faabf6892918949deab90e4,,,,,,5faabf6892918949deab90e4,Mężczyzna,18,2021-09-06_19h17.32.143,rantool2,2021.1.4,Win32,60.96817461,6135e006383e6ea6c3d06a28,61364d1b0a158a48bbe3f2dd,"[""comma""]",0,[0.3505000000000109],100,0,100,0,1
,,,,,,,5faabf6892918949deab90e4,,,,,,5faabf6892918949deab90e4,Mężczyzna,18,2021-09-06_19h17.32.143,rantool2,2021.1.4,Win32,60.96817461,6135e006383e6ea6c3d06a28,61364d1b0a158a48bbe3f2dd,"[""comma""]",0,[0.3337000000001922],101,0,101,0,1
,,,,,,,5faabf6892918949deab90e4,,,,,,5faabf6892918949deab90e4,Mężczyzna,18,2021-09-06_19h17.32.143,rantool2,2021.1.4,Win32,60.96817461,6135e006383e6ea6c3d06a28,61364d1b0a158a48bbe3f2dd,"[""period""]",0,[0.3504999999998972],102,0,102,0,1
,,,,,,,5faabf6892918949deab90e4,,,,,,5faabf6892918949deab90e4,Mężczyzna,18,2021-09-06_19h17.32.143,rantool2,2021.1.4,Win32,60.96817461,6135e006383e6ea6c3d06a28,61364d1b0a158a48bbe3f2dd,"[""comma""]",0,[0.3934999999999036],103,0,103,0,1
,,,,,,,5faabf6892918949deab90e4,,,,,,5faabf6892918949deab90e4,Mężczyzna,18,2021-09-06_19h17.32.143,rantool2,2021.1.4,Win32,60.96817461,6135e006383e6ea6c3d06a28,61364d1b0a158a48bbe3f2dd,"[""period""]",0,[0.26710000000014134],104,0,104,0,1
,,,,,,,5faabf6892918949deab90e4,,,,,,5faabf6892918949deab90e4,Mężczyzna,18,2021-09-06_19h17.32.143,rantool2,2021.1.4,Win32,60.96817461,6135e006383e6ea6c3d06a28,61364d1b0a158a48bbe3f2dd,"[""comma""]",0,[0.4673000000002503],105,0,105,0,1
,,,,,,,5faabf6892918949deab90e4,,,,,,5faabf6892918949deab90e4,Mężczyzna,18,2021-09-06_19h17.32.143,rantool2,2021.1.4,Win32,60.96817461,6135e006383e6ea6c3d06a28,61364d1b0a158a48bbe3f2dd,"[""period""]",0,[0.3172999999998183],106,0,106,0,1
,,,,,,,5faabf6892918949deab90e4,,,,,,5faabf6892918949deab90e4,Mężczyzna,18,2021-09-06_19h17.32.143,rantool2,2021.1.4,Win32,60.96817461,6135e006383e6ea6c3d06a28,61364d1b0a158a48bbe3f2dd,"[""comma""]",0,[0.39400000000000546],107,0,107,0,1
,,,,,,,5faabf6892918949deab90e4,,,,,,5faabf6892918949deab90e4,Mężczyzna,18,2021-09-06_19h17.32.143,rantool2,2021.1.4,Win32,60.96817461,6135e006383e6ea6c3d06a28,61364d1b0a158a48bbe3f2dd,"[""period""]",0,[0.3506000000000995],108,0,108,0,1
,,,,,,,5faabf6892918949deab90e4,,,,,,5faabf6892918949deab90e4,Mężczyzna,18,2021-09-06_19h17.32.143,rantool2,2021.1.4,Win32,60.96817461,6135e006383e6ea6c3d06a28,61364d1b0a158a48bbe3f2dd,"[""comma""]",0,[0.7687999999998283],109,0,109,0,1
,,,,,,,5faabf6892918949deab90e4,,,,,,5faabf6892918949deab90e4,Mężczyzna,18,2021-09-06_19h17.32.143,rantool2,2021.1.4,Win32,60.96817461,6135e006383e6ea6c3d06a28,61364d1b0a158a48bbe3f2dd,"[""period""]",0,[0.26729999999986376],110,0,110,0,1
,,,,,,,5faabf6892918949deab90e4,,,,,,5faabf6892918949deab90e4,Mężczyzna,18,2021-09-06_19h17.32.143,rantool2,2021.1.4,Win32,60.96817461,6135e006383e6ea6c3d06a28,61364d1b0a158a48bbe3f2dd,"[""comma"",""comma""]",0,"[0.26710000000014134,1.3606999999997242]",111,0,111,0,1
,,,,,,,5faabf6892918949deab90e4,,,,,,5faabf6892918949deab90e4,Mężczyzna,18,2021-09-06_19h17.32.143,rantool2,2021.1.4,Win32,60.96817461,6135e006383e6ea6c3d06a28,61364d1b0a158a48bbe3f2dd,"[""period""]",0,[0.5526999999997315],112,0,112,0,1
,,,,,,,5faabf6892918949deab90e4,,,,,,5faabf6892918949deab90e4,Mężczyzna,18,2021-09-06_19h17.32.143,rantool2,2021.1.4,Win32,60.96817461,6135e006383e6ea6c3d06a28,61364d1b0a158a48bbe3f2dd,"[""comma""]",0,[0.3768999999999778],113,0,113,0,1
,,,,,,,5faabf6892918949deab90e4,,,,,,5faabf6892918949deab90e4,Mężczyzna,18,2021-09-06_19h17.32.143,rantool2,2021.1.4,Win32,60.96817461,6135e006383e6ea6c3d06a28,61364d1b0a158a48bbe3f2dd,"[""period""]",0,[0.41700000000003],114,0,114,0,1
,,,,,,,5faabf6892918949deab90e4,,,,,,5faabf6892918949deab90e4,Mężczyzna,18,2021-09-06_19h17.32.143,rantool2,2021.1.4,Win32,60.96817461,6135e006383e6ea6c3d06a28,61364d1b0a158a48bbe3f2dd,"[""comma""]",0,[0.3172999999998183],115,0,115,0,1
,,,,,,,5faabf6892918949deab90e4,,,,,,5faabf6892918949deab90e4,Mężczyzna,18,2021-09-06_19h17.32.143,rantool2,2021.1.4,Win32,60.96817461,6135e006383e6ea6c3d06a28,61364d1b0a158a48bbe3f2dd,"[""period""]",0,[0.3505000000000109],116,0,116,0,1
,,,,,,,5faabf6892918949deab90e4,,,,,,5faabf6892918949deab90e4,Mężczyzna,18,2021-09-06_19h17.32.143,rantool2,2021.1.4,Win32,60.96817461,6135e006383e6ea6c3d06a28,61364d1b0a158a48bbe3f2dd,"[""comma""]",0,[0.3171999999997297],117,0,117,0,1
,,,,,,,5faabf6892918949deab90e4,,,,,,5faabf6892918949deab90e4,Mężczyzna,18,2021-09-06_19h17.32.143,rantool2,2021.1.4,Win32,60.96817461,6135e006383e6ea6c3d06a28,61364d1b0a158a48bbe3f2dd,"[""period""]",0,[0.21729999999979555],118,0,118,0,1
,,,,,,,5faabf6892918949deab90e4,,,,,,5faabf6892918949deab90e4,Mężczyzna,18,2021-09-06_19h17.32.143,rantool2,2021.1.4,Win32,60.96817461,6135e006383e6ea6c3d06a28,61364d1b0a158a48bbe3f2dd,"[""comma""]",0,[0.24030000000027485],119,0,119,0,1
