key_resp_7.keys,key_resp_7.rt,trials_2.thisRepN,trials_2.thisTrialN,trials_2.thisN,trials_2.thisIndex,trials_2.ran,id,series_0,series_1,acss_0,acss_1,comparison,id*,Płeć*,Wiek*,date,expName,psychopyVersion,OS,frameRate,STUDY_ID,SESSION_ID,key_resp_5.keys,key_resp_5.corr,key_resp_5.rt,trials.thisRepN,trials.thisTrialN,trials.thisN,trials.thisIndex,trials.ran
j,3.5352,0,0,0,26,1,6134a727fc1e3f0ee23aab8a,ORROROO,ORROROR,22.02732763,21.71443381,series_0,6134a727fc1e3f0ee23aab8a,Mężczyzna,19,2021-09-06_18h31.44.209,rantool2,2021.1.4,Win32,59.89099838,6135e006383e6ea6c3d06a28,613641bd55f3acba28ae0f09,,,,,,,,
f,2.7035,0,1,1,56,1,6134a727fc1e3f0ee23aab8a,RRROOOO,RRROOOR,21.6194508,22.31681875,series_1,6134a727fc1e3f0ee23aab8a,Mężczyzna,19,2021-09-06_18h31.44.209,rantool2,2021.1.4,Win32,59.89099838,6135e006383e6ea6c3d06a28,613641bd55f3acba28ae0f09,,,,,,,,
f,2.7473,0,2,2,53,1,6134a727fc1e3f0ee23aab8a,RRORORO,RRORORR,20.71309134,21.90565814,series_1,6134a727fc1e3f0ee23aab8a,Mężczyzna,19,2021-09-06_18h31.44.209,rantool2,2021.1.4,Win32,59.89099838,6135e006383e6ea6c3d06a28,613641bd55f3acba28ae0f09,,,,,,,,
f,1.4733,0,3,3,20,1,6134a727fc1e3f0ee23aab8a,OROROOO,OROROOR,21.31236711,21.90565814,series_1,6134a727fc1e3f0ee23aab8a,Mężczyzna,19,2021-09-06_18h31.44.209,rantool2,2021.1.4,Win32,59.89099838,6135e006383e6ea6c3d06a28,613641bd55f3acba28ae0f09,,,,,,,,
j,3.1993,0,4,4,5,1,6134a727fc1e3f0ee23aab8a,OOORORO,OOORORR,20.87963819,21.9921709,series_1,6134a727fc1e3f0ee23aab8a,Mężczyzna,19,2021-09-06_18h31.44.209,rantool2,2021.1.4,Win32,59.89099838,6135e006383e6ea6c3d06a28,613641bd55f3acba28ae0f09,,,,,,,,
j,3.4793,0,5,5,35,1,6134a727fc1e3f0ee23aab8a,ROOORRO,ROOORRR,21.76276513,22.16977179,series_1,6134a727fc1e3f0ee23aab8a,Mężczyzna,19,2021-09-06_18h31.44.209,rantool2,2021.1.4,Win32,59.89099838,6135e006383e6ea6c3d06a28,613641bd55f3acba28ae0f09,,,,,,,,
f,2.4658,0,6,6,9,1,6134a727fc1e3f0ee23aab8a,OOROORO,OOROORR,21.07991943,22.2428857,series_1,6134a727fc1e3f0ee23aab8a,Mężczyzna,19,2021-09-06_18h31.44.209,rantool2,2021.1.4,Win32,59.89099838,6135e006383e6ea6c3d06a28,613641bd55f3acba28ae0f09,,,,,,,,
f,2.0226,0,7,7,6,1,6134a727fc1e3f0ee23aab8a,OOORROO,OOORROR,21.12383932,21.38562617,series_1,6134a727fc1e3f0ee23aab8a,Mężczyzna,19,2021-09-06_18h31.44.209,rantool2,2021.1.4,Win32,59.89099838,6135e006383e6ea6c3d06a28,613641bd55f3acba28ae0f09,,,,,,,,
j,1.7471,0,8,8,40,1,6134a727fc1e3f0ee23aab8a,ROROOOO,ROROOOR,20.87963819,21.37121559,series_1,6134a727fc1e3f0ee23aab8a,Mężczyzna,19,2021-09-06_18h31.44.209,rantool2,2021.1.4,Win32,59.89099838,6135e006383e6ea6c3d06a28,613641bd55f3acba28ae0f09,,,,,,,,
f,1.7891,0,9,9,58,1,6134a727fc1e3f0ee23aab8a,RRROROO,RRROROR,22.1285618,21.37121559,series_0,6134a727fc1e3f0ee23aab8a,Mężczyzna,19,2021-09-06_18h31.44.209,rantool2,2021.1.4,Win32,59.89099838,6135e006383e6ea6c3d06a28,613641bd55f3acba28ae0f09,,,,,,,,
j,2.0639,0,10,10,47,1,6134a727fc1e3f0ee23aab8a,RORRRRO,RORRRRR,21.81333602,21.02936224,series_0,6134a727fc1e3f0ee23aab8a,Mężczyzna,19,2021-09-06_18h31.44.209,rantool2,2021.1.4,Win32,59.89099838,6135e006383e6ea6c3d06a28,613641bd55f3acba28ae0f09,,,,,,,,
f,2.3538,0,11,11,28,1,6134a727fc1e3f0ee23aab8a,ORRROOO,ORRROOR,22.24142883,22.53364006,series_1,6134a727fc1e3f0ee23aab8a,Mężczyzna,19,2021-09-06_18h31.44.209,rantool2,2021.1.4,Win32,59.89099838,6135e006383e6ea6c3d06a28,613641bd55f3acba28ae0f09,,,,,,,,
f,2.3556,0,12,12,59,1,6134a727fc1e3f0ee23aab8a,RRRORRO,RRRORRR,21.56657303,20.89823192,series_0,6134a727fc1e3f0ee23aab8a,Mężczyzna,19,2021-09-06_18h31.44.209,rantool2,2021.1.4,Win32,59.89099838,6135e006383e6ea6c3d06a28,613641bd55f3acba28ae0f09,,,,,,,,
f,1.6228,0,13,13,32,1,6134a727fc1e3f0ee23aab8a,ROOOOOO,ROOOOOR,19.92253567,21.27974287,series_1,6134a727fc1e3f0ee23aab8a,Mężczyzna,19,2021-09-06_18h31.44.209,rantool2,2021.1.4,Win32,59.89099838,6135e006383e6ea6c3d06a28,613641bd55f3acba28ae0f09,,,,,,,,
j,1.4383,0,14,14,37,1,6134a727fc1e3f0ee23aab8a,ROORORO,ROORORR,20.42602454,21.57657071,series_1,6134a727fc1e3f0ee23aab8a,Mężczyzna,19,2021-09-06_18h31.44.209,rantool2,2021.1.4,Win32,59.89099838,6135e006383e6ea6c3d06a28,613641bd55f3acba28ae0f09,,,,,,,,
f,1.6668,0,15,15,13,1,6134a727fc1e3f0ee23aab8a,OORRORO,OORRORR,21.66733484,22.11181017,series_1,6134a727fc1e3f0ee23aab8a,Mężczyzna,19,2021-09-06_18h31.44.209,rantool2,2021.1.4,Win32,59.89099838,6135e006383e6ea6c3d06a28,613641bd55f3acba28ae0f09,,,,,,,,
f,2.2982,0,16,16,51,1,6134a727fc1e3f0ee23aab8a,RROORRO,RROORRR,21.89852628,22.02786418,series_1,6134a727fc1e3f0ee23aab8a,Mężczyzna,19,2021-09-06_18h31.44.209,rantool2,2021.1.4,Win32,59.89099838,6135e006383e6ea6c3d06a28,613641bd55f3acba28ae0f09,,,,,,,,
j,2.3146,0,17,17,62,1,6134a727fc1e3f0ee23aab8a,RRRRROO,RRRRROR,22.16413392,21.27974287,series_0,6134a727fc1e3f0ee23aab8a,Mężczyzna,19,2021-09-06_18h31.44.209,rantool2,2021.1.4,Win32,59.89099838,6135e006383e6ea6c3d06a28,613641bd55f3acba28ae0f09,,,,,,,,
j,2.5157,0,18,18,63,1,6134a727fc1e3f0ee23aab8a,RRRRRRO,RRRRRRR,21.35278725,19.62521613,series_0,6134a727fc1e3f0ee23aab8a,Mężczyzna,19,2021-09-06_18h31.44.209,rantool2,2021.1.4,Win32,59.89099838,6135e006383e6ea6c3d06a28,613641bd55f3acba28ae0f09,,,,,,,,
f,2.079,0,19,19,4,1,6134a727fc1e3f0ee23aab8a,OOOROOO,OOOROOR,19.91402015,21.21223021,series_1,6134a727fc1e3f0ee23aab8a,Mężczyzna,19,2021-09-06_18h31.44.209,rantool2,2021.1.4,Win32,59.89099838,6135e006383e6ea6c3d06a28,613641bd55f3acba28ae0f09,,,,,,,,
j,1.822,0,20,20,34,1,6134a727fc1e3f0ee23aab8a,ROOOROO,ROOOROR,21.03750787,21.24781509,series_1,6134a727fc1e3f0ee23aab8a,Mężczyzna,19,2021-09-06_18h31.44.209,rantool2,2021.1.4,Win32,59.89099838,6135e006383e6ea6c3d06a28,613641bd55f3acba28ae0f09,,,,,,,,
j,1.4104,0,21,21,1,1,6134a727fc1e3f0ee23aab8a,OOOOORO,OOOOORR,19.92253567,20.74050628,series_1,6134a727fc1e3f0ee23aab8a,Mężczyzna,19,2021-09-06_18h31.44.209,rantool2,2021.1.4,Win32,59.89099838,6135e006383e6ea6c3d06a28,613641bd55f3acba28ae0f09,,,,,,,,
j,1.8543,0,22,22,50,1,6134a727fc1e3f0ee23aab8a,RROOROO,RROOROR,21.73568164,22.02566557,series_1,6134a727fc1e3f0ee23aab8a,Mężczyzna,19,2021-09-06_18h31.44.209,rantool2,2021.1.4,Win32,59.89099838,6135e006383e6ea6c3d06a28,613641bd55f3acba28ae0f09,,,,,,,,
f,1.8725,0,23,23,36,1,6134a727fc1e3f0ee23aab8a,ROOROOO,ROOROOR,21.07991943,20.9984461,series_0,6134a727fc1e3f0ee23aab8a,Mężczyzna,19,2021-09-06_18h31.44.209,rantool2,2021.1.4,Win32,59.89099838,6135e006383e6ea6c3d06a28,613641bd55f3acba28ae0f09,,,,,,,,
j,1.1761,0,24,24,44,1,6134a727fc1e3f0ee23aab8a,RORROOO,RORROOR,21.66733484,22.02566557,series_1,6134a727fc1e3f0ee23aab8a,Mężczyzna,19,2021-09-06_18h31.44.209,rantool2,2021.1.4,Win32,59.89099838,6135e006383e6ea6c3d06a28,613641bd55f3acba28ae0f09,,,,,,,,
f,1.2569,0,25,25,10,1,6134a727fc1e3f0ee23aab8a,OOROROO,OOROROR,21.31236711,21.07490964,series_0,6134a727fc1e3f0ee23aab8a,Mężczyzna,19,2021-09-06_18h31.44.209,rantool2,2021.1.4,Win32,59.89099838,6135e006383e6ea6c3d06a28,613641bd55f3acba28ae0f09,,,,,,,,
j,1.6207,0,26,26,30,1,6134a727fc1e3f0ee23aab8a,ORRRROO,ORRRROR,22.46748491,22.03072203,series_0,6134a727fc1e3f0ee23aab8a,Mężczyzna,19,2021-09-06_18h31.44.209,rantool2,2021.1.4,Win32,59.89099838,6135e006383e6ea6c3d06a28,613641bd55f3acba28ae0f09,,,,,,,,
f,1.6042,0,27,27,12,1,6134a727fc1e3f0ee23aab8a,OORROOO,OORROOR,21.30250474,22.02786418,series_1,6134a727fc1e3f0ee23aab8a,Mężczyzna,19,2021-09-06_18h31.44.209,rantool2,2021.1.4,Win32,59.89099838,6135e006383e6ea6c3d06a28,613641bd55f3acba28ae0f09,,,,,,,,
j,2.5491,0,28,28,52,1,6134a727fc1e3f0ee23aab8a,RROROOO,RROROOR,22.18365867,22.11097995,series_0,6134a727fc1e3f0ee23aab8a,Mężczyzna,19,2021-09-06_18h31.44.209,rantool2,2021.1.4,Win32,59.89099838,6135e006383e6ea6c3d06a28,613641bd55f3acba28ae0f09,,,,,,,,
f,1.7698,0,29,29,49,1,6134a727fc1e3f0ee23aab8a,RROOORO,RROOORR,21.76276513,22.53364006,series_1,6134a727fc1e3f0ee23aab8a,Mężczyzna,19,2021-09-06_18h31.44.209,rantool2,2021.1.4,Win32,59.89099838,6135e006383e6ea6c3d06a28,613641bd55f3acba28ae0f09,,,,,,,,
j,2.1489,0,30,30,39,1,6134a727fc1e3f0ee23aab8a,ROORRRO,ROORRRR,21.82425538,21.38562617,series_0,6134a727fc1e3f0ee23aab8a,Mężczyzna,19,2021-09-06_18h31.44.209,rantool2,2021.1.4,Win32,59.89099838,6135e006383e6ea6c3d06a28,613641bd55f3acba28ae0f09,,,,,,,,
j,1.6382,0,31,31,43,1,6134a727fc1e3f0ee23aab8a,RORORRO,RORORRR,20.71309134,21.07490964,series_1,6134a727fc1e3f0ee23aab8a,Mężczyzna,19,2021-09-06_18h31.44.209,rantool2,2021.1.4,Win32,59.89099838,6135e006383e6ea6c3d06a28,613641bd55f3acba28ae0f09,,,,,,,,
j,1.4376,0,32,32,0,1,6134a727fc1e3f0ee23aab8a,OOOOOOO,OOOOOOR,18.52739004,19.62521613,series_1,6134a727fc1e3f0ee23aab8a,Mężczyzna,19,2021-09-06_18h31.44.209,rantool2,2021.1.4,Win32,59.89099838,6135e006383e6ea6c3d06a28,613641bd55f3acba28ae0f09,,,,,,,,
f,2.6165,0,33,33,8,1,6134a727fc1e3f0ee23aab8a,OOROOOO,OOROOOR,19.91402015,20.89823192,series_1,6134a727fc1e3f0ee23aab8a,Mężczyzna,19,2021-09-06_18h31.44.209,rantool2,2021.1.4,Win32,59.89099838,6135e006383e6ea6c3d06a28,613641bd55f3acba28ae0f09,,,,,,,,
j,2.5502,0,34,34,7,1,6134a727fc1e3f0ee23aab8a,OOORRRO,OOORRRR,21.6194508,21.899017,series_1,6134a727fc1e3f0ee23aab8a,Mężczyzna,19,2021-09-06_18h31.44.209,rantool2,2021.1.4,Win32,59.89099838,6135e006383e6ea6c3d06a28,613641bd55f3acba28ae0f09,,,,,,,,
f,2.4951,0,35,35,33,1,6134a727fc1e3f0ee23aab8a,ROOOORO,ROOOORR,20.83779602,22.03072203,series_1,6134a727fc1e3f0ee23aab8a,Mężczyzna,19,2021-09-06_18h31.44.209,rantool2,2021.1.4,Win32,59.89099838,6135e006383e6ea6c3d06a28,613641bd55f3acba28ae0f09,,,,,,,,
j,3.2977,0,36,36,11,1,6134a727fc1e3f0ee23aab8a,OORORRO,OORORRR,22.18365867,22.6797523,series_1,6134a727fc1e3f0ee23aab8a,Mężczyzna,19,2021-09-06_18h31.44.209,rantool2,2021.1.4,Win32,59.89099838,6135e006383e6ea6c3d06a28,613641bd55f3acba28ae0f09,,,,,,,,
f,2.067,0,37,37,17,1,6134a727fc1e3f0ee23aab8a,OROOORO,OROOORR,21.03750787,22.12173012,series_1,6134a727fc1e3f0ee23aab8a,Mężczyzna,19,2021-09-06_18h31.44.209,rantool2,2021.1.4,Win32,59.89099838,6135e006383e6ea6c3d06a28,613641bd55f3acba28ae0f09,,,,,,,,
j,2.3876,0,38,38,46,1,6134a727fc1e3f0ee23aab8a,RORRROO,RORRROR,22.00300695,21.24781509,series_0,6134a727fc1e3f0ee23aab8a,Mężczyzna,19,2021-09-06_18h31.44.209,rantool2,2021.1.4,Win32,59.89099838,6135e006383e6ea6c3d06a28,613641bd55f3acba28ae0f09,,,,,,,,
f,2.4985,0,39,39,25,1,6134a727fc1e3f0ee23aab8a,ORROORO,ORROORR,21.79500819,22.61624387,series_1,6134a727fc1e3f0ee23aab8a,Mężczyzna,19,2021-09-06_18h31.44.209,rantool2,2021.1.4,Win32,59.89099838,6135e006383e6ea6c3d06a28,613641bd55f3acba28ae0f09,,,,,,,,
j,1.7959,0,40,40,55,1,6134a727fc1e3f0ee23aab8a,RRORRRO,RRORRRR,21.56657303,21.21223021,series_0,6134a727fc1e3f0ee23aab8a,Mężczyzna,19,2021-09-06_18h31.44.209,rantool2,2021.1.4,Win32,59.89099838,6135e006383e6ea6c3d06a28,613641bd55f3acba28ae0f09,,,,,,,,
f,2.0182,0,41,41,23,1,6134a727fc1e3f0ee23aab8a,ORORRRO,ORORRRR,22.1285618,21.9921709,series_0,6134a727fc1e3f0ee23aab8a,Mężczyzna,19,2021-09-06_18h31.44.209,rantool2,2021.1.4,Win32,59.89099838,6135e006383e6ea6c3d06a28,613641bd55f3acba28ae0f09,,,,,,,,
j,2.8358,0,42,42,2,1,6134a727fc1e3f0ee23aab8a,OOOOROO,OOOOROR,20.43051175,21.02936224,series_1,6134a727fc1e3f0ee23aab8a,Mężczyzna,19,2021-09-06_18h31.44.209,rantool2,2021.1.4,Win32,59.89099838,6135e006383e6ea6c3d06a28,613641bd55f3acba28ae0f09,,,,,,,,
f,2.5965,0,43,43,41,1,6134a727fc1e3f0ee23aab8a,ROROORO,ROROORR,20.42602454,21.71443381,series_1,6134a727fc1e3f0ee23aab8a,Mężczyzna,19,2021-09-06_18h31.44.209,rantool2,2021.1.4,Win32,59.89099838,6135e006383e6ea6c3d06a28,613641bd55f3acba28ae0f09,,,,,,,,
j,1.393,0,44,44,14,1,6134a727fc1e3f0ee23aab8a,OORRROO,OORRROR,22.24142883,22.16977179,series_0,6134a727fc1e3f0ee23aab8a,Mężczyzna,19,2021-09-06_18h31.44.209,rantool2,2021.1.4,Win32,59.89099838,6135e006383e6ea6c3d06a28,613641bd55f3acba28ae0f09,,,,,,,,
f,2.0803,0,45,45,38,1,6134a727fc1e3f0ee23aab8a,ROORROO,ROORROR,21.79500819,21.36812781,series_0,6134a727fc1e3f0ee23aab8a,Mężczyzna,19,2021-09-06_18h31.44.209,rantool2,2021.1.4,Win32,59.89099838,6135e006383e6ea6c3d06a28,613641bd55f3acba28ae0f09,,,,,,,,
j,0.9811,0,46,46,42,1,6134a727fc1e3f0ee23aab8a,ROROROO,ROROROR,20.39515459,19.8361834,series_0,6134a727fc1e3f0ee23aab8a,Mężczyzna,19,2021-09-06_18h31.44.209,rantool2,2021.1.4,Win32,59.89099838,6135e006383e6ea6c3d06a28,613641bd55f3acba28ae0f09,,,,,,,,
j,4.3992,0,47,47,27,1,6134a727fc1e3f0ee23aab8a,ORRORRO,ORRORRR,21.55250791,22.2428857,series_1,6134a727fc1e3f0ee23aab8a,Mężczyzna,19,2021-09-06_18h31.44.209,rantool2,2021.1.4,Win32,59.89099838,6135e006383e6ea6c3d06a28,613641bd55f3acba28ae0f09,,,,,,,,
f,0.0209,0,48,48,60,1,6134a727fc1e3f0ee23aab8a,RRRROOO,RRRROOR,22.10108823,22.15934078,series_1,6134a727fc1e3f0ee23aab8a,Mężczyzna,19,2021-09-06_18h31.44.209,rantool2,2021.1.4,Win32,59.89099838,6135e006383e6ea6c3d06a28,613641bd55f3acba28ae0f09,,,,,,,,
f,2.7056,0,49,49,22,1,6134a727fc1e3f0ee23aab8a,ORORROO,ORORROR,22.02732763,21.57657071,series_0,6134a727fc1e3f0ee23aab8a,Mężczyzna,19,2021-09-06_18h31.44.209,rantool2,2021.1.4,Win32,59.89099838,6135e006383e6ea6c3d06a28,613641bd55f3acba28ae0f09,,,,,,,,
j,3.1543,0,50,50,45,1,6134a727fc1e3f0ee23aab8a,RORRORO,RORRORR,20.78182524,21.22513037,series_1,6134a727fc1e3f0ee23aab8a,Mężczyzna,19,2021-09-06_18h31.44.209,rantool2,2021.1.4,Win32,59.89099838,6135e006383e6ea6c3d06a28,613641bd55f3acba28ae0f09,,,,,,,,
f,3.1886,0,51,51,61,1,6134a727fc1e3f0ee23aab8a,RRRRORO,RRRRORR,21.81333602,21.17347734,series_0,6134a727fc1e3f0ee23aab8a,Mężczyzna,19,2021-09-06_18h31.44.209,rantool2,2021.1.4,Win32,59.89099838,6135e006383e6ea6c3d06a28,613641bd55f3acba28ae0f09,,,,,,,,
f,2.1652,0,52,52,3,1,6134a727fc1e3f0ee23aab8a,OOOORRO,OOOORRR,20.90986523,21.74922619,series_1,6134a727fc1e3f0ee23aab8a,Mężczyzna,19,2021-09-06_18h31.44.209,rantool2,2021.1.4,Win32,59.89099838,6135e006383e6ea6c3d06a28,613641bd55f3acba28ae0f09,,,,,,,,
j,1.51,0,53,53,24,1,6134a727fc1e3f0ee23aab8a,ORROOOO,ORROOOR,21.12383932,22.07102821,series_1,6134a727fc1e3f0ee23aab8a,Mężczyzna,19,2021-09-06_18h31.44.209,rantool2,2021.1.4,Win32,59.89099838,6135e006383e6ea6c3d06a28,613641bd55f3acba28ae0f09,,,,,,,,
j,2.0649,0,54,54,31,1,6134a727fc1e3f0ee23aab8a,ORRRRRO,ORRRRRR,22.16413392,20.74050628,series_0,6134a727fc1e3f0ee23aab8a,Mężczyzna,19,2021-09-06_18h31.44.209,rantool2,2021.1.4,Win32,59.89099838,6135e006383e6ea6c3d06a28,613641bd55f3acba28ae0f09,,,,,,,,
f,0.9813,0,55,55,54,1,6134a727fc1e3f0ee23aab8a,RRORROO,RRORROR,21.55250791,20.9984461,series_0,6134a727fc1e3f0ee23aab8a,Mężczyzna,19,2021-09-06_18h31.44.209,rantool2,2021.1.4,Win32,59.89099838,6135e006383e6ea6c3d06a28,613641bd55f3acba28ae0f09,,,,,,,,
f,3.225,0,56,56,29,1,6134a727fc1e3f0ee23aab8a,ORRRORO,ORRRORR,22.00300695,22.12173012,series_1,6134a727fc1e3f0ee23aab8a,Mężczyzna,19,2021-09-06_18h31.44.209,rantool2,2021.1.4,Win32,59.89099838,6135e006383e6ea6c3d06a28,613641bd55f3acba28ae0f09,,,,,,,,
f,2.649,0,57,57,48,1,6134a727fc1e3f0ee23aab8a,RROOOOO,RROOOOR,20.90986523,22.15934078,series_1,6134a727fc1e3f0ee23aab8a,Mężczyzna,19,2021-09-06_18h31.44.209,rantool2,2021.1.4,Win32,59.89099838,6135e006383e6ea6c3d06a28,613641bd55f3acba28ae0f09,,,,,,,,
j,2.6151,0,58,58,21,1,6134a727fc1e3f0ee23aab8a,ORORORO,ORORORR,20.39515459,22.06781359,series_1,6134a727fc1e3f0ee23aab8a,Mężczyzna,19,2021-09-06_18h31.44.209,rantool2,2021.1.4,Win32,59.89099838,6135e006383e6ea6c3d06a28,613641bd55f3acba28ae0f09,,,,,,,,
f,2.7569,0,59,59,57,1,6134a727fc1e3f0ee23aab8a,RRROORO,RRROORR,21.82425538,22.07102821,series_1,6134a727fc1e3f0ee23aab8a,Mężczyzna,19,2021-09-06_18h31.44.209,rantool2,2021.1.4,Win32,59.89099838,6135e006383e6ea6c3d06a28,613641bd55f3acba28ae0f09,,,,,,,,
j,2.1056,0,60,60,15,1,6134a727fc1e3f0ee23aab8a,OORRRRO,OORRRRR,22.10108823,21.74922619,series_0,6134a727fc1e3f0ee23aab8a,Mężczyzna,19,2021-09-06_18h31.44.209,rantool2,2021.1.4,Win32,59.89099838,6135e006383e6ea6c3d06a28,613641bd55f3acba28ae0f09,,,,,,,,
f,3.2083,0,61,61,18,1,6134a727fc1e3f0ee23aab8a,OROOROO,OROOROR,20.84860893,21.22513037,series_1,6134a727fc1e3f0ee23aab8a,Mężczyzna,19,2021-09-06_18h31.44.209,rantool2,2021.1.4,Win32,59.89099838,6135e006383e6ea6c3d06a28,613641bd55f3acba28ae0f09,,,,,,,,
j,1.9872,0,62,62,16,1,6134a727fc1e3f0ee23aab8a,OROOOOO,OROOOOR,20.43051175,21.17347734,series_1,6134a727fc1e3f0ee23aab8a,Mężczyzna,19,2021-09-06_18h31.44.209,rantool2,2021.1.4,Win32,59.89099838,6135e006383e6ea6c3d06a28,613641bd55f3acba28ae0f09,,,,,,,,
j,2.1464,0,63,63,19,1,6134a727fc1e3f0ee23aab8a,OROORRO,OROORRR,21.73568164,22.11181017,series_1,6134a727fc1e3f0ee23aab8a,Mężczyzna,19,2021-09-06_18h31.44.209,rantool2,2021.1.4,Win32,59.89099838,6135e006383e6ea6c3d06a28,613641bd55f3acba28ae0f09,,,,,,,,
,,,,,,,6134a727fc1e3f0ee23aab8a,,,,,,6134a727fc1e3f0ee23aab8a,Mężczyzna,19,2021-09-06_18h31.44.209,rantool2,2021.1.4,Win32,59.89099838,6135e006383e6ea6c3d06a28,613641bd55f3acba28ae0f09,"[""comma""]",0,[0.9290000000000305],0,0,0,0,1
,,,,,,,6134a727fc1e3f0ee23aab8a,,,,,,6134a727fc1e3f0ee23aab8a,Mężczyzna,19,2021-09-06_18h31.44.209,rantool2,2021.1.4,Win32,59.89099838,6135e006383e6ea6c3d06a28,613641bd55f3acba28ae0f09,"[""comma""]",0,[0.4668999999994412],1,0,1,0,1
,,,,,,,6134a727fc1e3f0ee23aab8a,,,,,,6134a727fc1e3f0ee23aab8a,Mężczyzna,19,2021-09-06_18h31.44.209,rantool2,2021.1.4,Win32,59.89099838,6135e006383e6ea6c3d06a28,613641bd55f3acba28ae0f09,"[""period""]",0,[0.5003999999994448],2,0,2,0,1
,,,,,,,6134a727fc1e3f0ee23aab8a,,,,,,6134a727fc1e3f0ee23aab8a,Mężczyzna,19,2021-09-06_18h31.44.209,rantool2,2021.1.4,Win32,59.89099838,6135e006383e6ea6c3d06a28,613641bd55f3acba28ae0f09,"[""comma""]",0,[0.4504999999999768],3,0,3,0,1
,,,,,,,6134a727fc1e3f0ee23aab8a,,,,,,6134a727fc1e3f0ee23aab8a,Mężczyzna,19,2021-09-06_18h31.44.209,rantool2,2021.1.4,Win32,59.89099838,6135e006383e6ea6c3d06a28,613641bd55f3acba28ae0f09,"[""comma""]",0,[0.6669000000003962],4,0,4,0,1
,,,,,,,6134a727fc1e3f0ee23aab8a,,,,,,6134a727fc1e3f0ee23aab8a,Mężczyzna,19,2021-09-06_18h31.44.209,rantool2,2021.1.4,Win32,59.89099838,6135e006383e6ea6c3d06a28,613641bd55f3acba28ae0f09,"[""period""]",0,[0.5502999999998224],5,0,5,0,1
,,,,,,,6134a727fc1e3f0ee23aab8a,,,,,,6134a727fc1e3f0ee23aab8a,Mężczyzna,19,2021-09-06_18h31.44.209,rantool2,2021.1.4,Win32,59.89099838,6135e006383e6ea6c3d06a28,613641bd55f3acba28ae0f09,"[""period""]",0,[0.9332000000001699],6,0,6,0,1
,,,,,,,6134a727fc1e3f0ee23aab8a,,,,,,6134a727fc1e3f0ee23aab8a,Mężczyzna,19,2021-09-06_18h31.44.209,rantool2,2021.1.4,Win32,59.89099838,6135e006383e6ea6c3d06a28,613641bd55f3acba28ae0f09,"[""comma""]",0,[0.3007000000001767],7,0,7,0,1
,,,,,,,6134a727fc1e3f0ee23aab8a,,,,,,6134a727fc1e3f0ee23aab8a,Mężczyzna,19,2021-09-06_18h31.44.209,rantool2,2021.1.4,Win32,59.89099838,6135e006383e6ea6c3d06a28,613641bd55f3acba28ae0f09,"[""comma""]",0,[0.5170999999996297],8,0,8,0,1
,,,,,,,6134a727fc1e3f0ee23aab8a,,,,,,6134a727fc1e3f0ee23aab8a,Mężczyzna,19,2021-09-06_18h31.44.209,rantool2,2021.1.4,Win32,59.89099838,6135e006383e6ea6c3d06a28,613641bd55f3acba28ae0f09,"[""period""]",0,[0.6000999999995997],9,0,9,0,1
,,,,,,,6134a727fc1e3f0ee23aab8a,,,,,,6134a727fc1e3f0ee23aab8a,Mężczyzna,19,2021-09-06_18h31.44.209,rantool2,2021.1.4,Win32,59.89099838,6135e006383e6ea6c3d06a28,613641bd55f3acba28ae0f09,"[""period""]",0,[0.5240999999996347],10,0,10,0,1
,,,,,,,6134a727fc1e3f0ee23aab8a,,,,,,6134a727fc1e3f0ee23aab8a,Mężczyzna,19,2021-09-06_18h31.44.209,rantool2,2021.1.4,Win32,59.89099838,6135e006383e6ea6c3d06a28,613641bd55f3acba28ae0f09,"[""period""]",0,[0.48349999999999227],11,0,11,0,1
,,,,,,,6134a727fc1e3f0ee23aab8a,,,,,,6134a727fc1e3f0ee23aab8a,Mężczyzna,19,2021-09-06_18h31.44.209,rantool2,2021.1.4,Win32,59.89099838,6135e006383e6ea6c3d06a28,613641bd55f3acba28ae0f09,"[""comma""]",0,[0.6996000000006006],12,0,12,0,1
,,,,,,,6134a727fc1e3f0ee23aab8a,,,,,,6134a727fc1e3f0ee23aab8a,Mężczyzna,19,2021-09-06_18h31.44.209,rantool2,2021.1.4,Win32,59.89099838,6135e006383e6ea6c3d06a28,613641bd55f3acba28ae0f09,"[""comma""]",0,[0.6327999999998042],13,0,13,0,1
,,,,,,,6134a727fc1e3f0ee23aab8a,,,,,,6134a727fc1e3f0ee23aab8a,Mężczyzna,19,2021-09-06_18h31.44.209,rantool2,2021.1.4,Win32,59.89099838,6135e006383e6ea6c3d06a28,613641bd55f3acba28ae0f09,"[""period""]",0,[0.3505999999995879],14,0,14,0,1
,,,,,,,6134a727fc1e3f0ee23aab8a,,,,,,6134a727fc1e3f0ee23aab8a,Mężczyzna,19,2021-09-06_18h31.44.209,rantool2,2021.1.4,Win32,59.89099838,6135e006383e6ea6c3d06a28,613641bd55f3acba28ae0f09,"[""comma""]",0,[0.5173999999994408],15,0,15,0,1
,,,,,,,6134a727fc1e3f0ee23aab8a,,,,,,6134a727fc1e3f0ee23aab8a,Mężczyzna,19,2021-09-06_18h31.44.209,rantool2,2021.1.4,Win32,59.89099838,6135e006383e6ea6c3d06a28,613641bd55f3acba28ae0f09,"[""period""]",0,[0.5839000000003693],16,0,16,0,1
,,,,,,,6134a727fc1e3f0ee23aab8a,,,,,,6134a727fc1e3f0ee23aab8a,Mężczyzna,19,2021-09-06_18h31.44.209,rantool2,2021.1.4,Win32,59.89099838,6135e006383e6ea6c3d06a28,613641bd55f3acba28ae0f09,"[""comma""]",0,[0.4508999999994785],17,0,17,0,1
,,,,,,,6134a727fc1e3f0ee23aab8a,,,,,,6134a727fc1e3f0ee23aab8a,Mężczyzna,19,2021-09-06_18h31.44.209,rantool2,2021.1.4,Win32,59.89099838,6135e006383e6ea6c3d06a28,613641bd55f3acba28ae0f09,"[""comma""]",0,[0.47539999999941074],18,0,18,0,1
,,,,,,,6134a727fc1e3f0ee23aab8a,,,,,,6134a727fc1e3f0ee23aab8a,Mężczyzna,19,2021-09-06_18h31.44.209,rantool2,2021.1.4,Win32,59.89099838,6135e006383e6ea6c3d06a28,613641bd55f3acba28ae0f09,"[""period""]",0,[0.46699999999998454],19,0,19,0,1
,,,,,,,6134a727fc1e3f0ee23aab8a,,,,,,6134a727fc1e3f0ee23aab8a,Mężczyzna,19,2021-09-06_18h31.44.209,rantool2,2021.1.4,Win32,59.89099838,6135e006383e6ea6c3d06a28,613641bd55f3acba28ae0f09,"[""period""]",0,[0.41149999999998954],20,0,20,0,1
,,,,,,,6134a727fc1e3f0ee23aab8a,,,,,,6134a727fc1e3f0ee23aab8a,Mężczyzna,19,2021-09-06_18h31.44.209,rantool2,2021.1.4,Win32,59.89099838,6135e006383e6ea6c3d06a28,613641bd55f3acba28ae0f09,"[""comma""]",0,[0.2507000000002222],21,0,21,0,1
,,,,,,,6134a727fc1e3f0ee23aab8a,,,,,,6134a727fc1e3f0ee23aab8a,Mężczyzna,19,2021-09-06_18h31.44.209,rantool2,2021.1.4,Win32,59.89099838,6135e006383e6ea6c3d06a28,613641bd55f3acba28ae0f09,"[""period""]",0,[0.250899999999433],22,0,22,0,1
,,,,,,,6134a727fc1e3f0ee23aab8a,,,,,,6134a727fc1e3f0ee23aab8a,Mężczyzna,19,2021-09-06_18h31.44.209,rantool2,2021.1.4,Win32,59.89099838,6135e006383e6ea6c3d06a28,613641bd55f3acba28ae0f09,"[""comma""]",0,[0.36709999999959564],23,0,23,0,1
,,,,,,,6134a727fc1e3f0ee23aab8a,,,,,,6134a727fc1e3f0ee23aab8a,Mężczyzna,19,2021-09-06_18h31.44.209,rantool2,2021.1.4,Win32,59.89099838,6135e006383e6ea6c3d06a28,613641bd55f3acba28ae0f09,"[""period""]",0,[0.45040000000034297],24,0,24,0,1
,,,,,,,6134a727fc1e3f0ee23aab8a,,,,,,6134a727fc1e3f0ee23aab8a,Mężczyzna,19,2021-09-06_18h31.44.209,rantool2,2021.1.4,Win32,59.89099838,6135e006383e6ea6c3d06a28,613641bd55f3acba28ae0f09,"[""period""]",0,[0.6707000000001813],25,0,25,0,1
,,,,,,,6134a727fc1e3f0ee23aab8a,,,,,,6134a727fc1e3f0ee23aab8a,Mężczyzna,19,2021-09-06_18h31.44.209,rantool2,2021.1.4,Win32,59.89099838,6135e006383e6ea6c3d06a28,613641bd55f3acba28ae0f09,"[""comma""]",0,[0.3505000000000109],26,0,26,0,1
,,,,,,,6134a727fc1e3f0ee23aab8a,,,,,,6134a727fc1e3f0ee23aab8a,Mężczyzna,19,2021-09-06_18h31.44.209,rantool2,2021.1.4,Win32,59.89099838,6135e006383e6ea6c3d06a28,613641bd55f3acba28ae0f09,"[""comma""]",0,[0.30049999999999955],27,0,27,0,1
,,,,,,,6134a727fc1e3f0ee23aab8a,,,,,,6134a727fc1e3f0ee23aab8a,Mężczyzna,19,2021-09-06_18h31.44.209,rantool2,2021.1.4,Win32,59.89099838,6135e006383e6ea6c3d06a28,613641bd55f3acba28ae0f09,"[""period""]",0,[0.31720000000018445],28,0,28,0,1
,,,,,,,6134a727fc1e3f0ee23aab8a,,,,,,6134a727fc1e3f0ee23aab8a,Mężczyzna,19,2021-09-06_18h31.44.209,rantool2,2021.1.4,Win32,59.89099838,6135e006383e6ea6c3d06a28,613641bd55f3acba28ae0f09,"[""comma""]",0,[0.45050000000003365],29,0,29,0,1
,,,,,,,6134a727fc1e3f0ee23aab8a,,,,,,6134a727fc1e3f0ee23aab8a,Mężczyzna,19,2021-09-06_18h31.44.209,rantool2,2021.1.4,Win32,59.89099838,6135e006383e6ea6c3d06a28,613641bd55f3acba28ae0f09,"[""comma""]",0,[0.667299999999841],30,0,30,0,1
,,,,,,,6134a727fc1e3f0ee23aab8a,,,,,,6134a727fc1e3f0ee23aab8a,Mężczyzna,19,2021-09-06_18h31.44.209,rantool2,2021.1.4,Win32,59.89099838,6135e006383e6ea6c3d06a28,613641bd55f3acba28ae0f09,"[""comma""]",0,[0.6336000000005697],31,0,31,0,1
,,,,,,,6134a727fc1e3f0ee23aab8a,,,,,,6134a727fc1e3f0ee23aab8a,Mężczyzna,19,2021-09-06_18h31.44.209,rantool2,2021.1.4,Win32,59.89099838,6135e006383e6ea6c3d06a28,613641bd55f3acba28ae0f09,"[""comma""]",0,[0.9839999999999804],32,0,32,0,1
,,,,,,,6134a727fc1e3f0ee23aab8a,,,,,,6134a727fc1e3f0ee23aab8a,Mężczyzna,19,2021-09-06_18h31.44.209,rantool2,2021.1.4,Win32,59.89099838,6135e006383e6ea6c3d06a28,613641bd55f3acba28ae0f09,"[""period""]",0,[0.23379999999980328],33,0,33,0,1
,,,,,,,6134a727fc1e3f0ee23aab8a,,,,,,6134a727fc1e3f0ee23aab8a,Mężczyzna,19,2021-09-06_18h31.44.209,rantool2,2021.1.4,Win32,59.89099838,6135e006383e6ea6c3d06a28,613641bd55f3acba28ae0f09,"[""comma""]",0,[0.2587999999998374],34,0,34,0,1
,,,,,,,6134a727fc1e3f0ee23aab8a,,,,,,6134a727fc1e3f0ee23aab8a,Mężczyzna,19,2021-09-06_18h31.44.209,rantool2,2021.1.4,Win32,59.89099838,6135e006383e6ea6c3d06a28,613641bd55f3acba28ae0f09,"[""comma""]",0,[0.5119000000003666],35,0,35,0,1
,,,,,,,6134a727fc1e3f0ee23aab8a,,,,,,6134a727fc1e3f0ee23aab8a,Mężczyzna,19,2021-09-06_18h31.44.209,rantool2,2021.1.4,Win32,59.89099838,6135e006383e6ea6c3d06a28,613641bd55f3acba28ae0f09,"[""period""]",0,[0.5552999999998178],36,0,36,0,1
,,,,,,,6134a727fc1e3f0ee23aab8a,,,,,,6134a727fc1e3f0ee23aab8a,Mężczyzna,19,2021-09-06_18h31.44.209,rantool2,2021.1.4,Win32,59.89099838,6135e006383e6ea6c3d06a28,613641bd55f3acba28ae0f09,"[""comma""]",0,[0.4741999999992572],37,0,37,0,1
,,,,,,,6134a727fc1e3f0ee23aab8a,,,,,,6134a727fc1e3f0ee23aab8a,Mężczyzna,19,2021-09-06_18h31.44.209,rantool2,2021.1.4,Win32,59.89099838,6135e006383e6ea6c3d06a28,613641bd55f3acba28ae0f09,"[""period""]",0,[0.23709999999965703],38,0,38,0,1
,,,,,,,6134a727fc1e3f0ee23aab8a,,,,,,6134a727fc1e3f0ee23aab8a,Mężczyzna,19,2021-09-06_18h31.44.209,rantool2,2021.1.4,Win32,59.89099838,6135e006383e6ea6c3d06a28,613641bd55f3acba28ae0f09,"[""comma"",""comma""]",0,"[0.23349999999999227,1.954400000000362]",39,0,39,0,1
,,,,,,,6134a727fc1e3f0ee23aab8a,,,,,,6134a727fc1e3f0ee23aab8a,Mężczyzna,19,2021-09-06_18h31.44.209,rantool2,2021.1.4,Win32,59.89099838,6135e006383e6ea6c3d06a28,613641bd55f3acba28ae0f09,0,0,,40,0,40,0,1
,,,,,,,6134a727fc1e3f0ee23aab8a,,,,,,6134a727fc1e3f0ee23aab8a,Mężczyzna,19,2021-09-06_18h31.44.209,rantool2,2021.1.4,Win32,59.89099838,6135e006383e6ea6c3d06a28,613641bd55f3acba28ae0f09,"[""period""]",0,[0.42960000000050513],41,0,41,0,1
,,,,,,,6134a727fc1e3f0ee23aab8a,,,,,,6134a727fc1e3f0ee23aab8a,Mężczyzna,19,2021-09-06_18h31.44.209,rantool2,2021.1.4,Win32,59.89099838,6135e006383e6ea6c3d06a28,613641bd55f3acba28ae0f09,"[""comma""]",0,[0.34330000000073824],42,0,42,0,1
,,,,,,,6134a727fc1e3f0ee23aab8a,,,,,,6134a727fc1e3f0ee23aab8a,Mężczyzna,19,2021-09-06_18h31.44.209,rantool2,2021.1.4,Win32,59.89099838,6135e006383e6ea6c3d06a28,613641bd55f3acba28ae0f09,"[""period""]",0,[0.3597999999998365],43,0,43,0,1
,,,,,,,6134a727fc1e3f0ee23aab8a,,,,,,6134a727fc1e3f0ee23aab8a,Mężczyzna,19,2021-09-06_18h31.44.209,rantool2,2021.1.4,Win32,59.89099838,6135e006383e6ea6c3d06a28,613641bd55f3acba28ae0f09,"[""comma""]",0,[0.4500000000000455],44,0,44,0,1
,,,,,,,6134a727fc1e3f0ee23aab8a,,,,,,6134a727fc1e3f0ee23aab8a,Mężczyzna,19,2021-09-06_18h31.44.209,rantool2,2021.1.4,Win32,59.89099838,6135e006383e6ea6c3d06a28,613641bd55f3acba28ae0f09,"[""period""]",0,[0.2842000000002258],45,0,45,0,1
,,,,,,,6134a727fc1e3f0ee23aab8a,,,,,,6134a727fc1e3f0ee23aab8a,Mężczyzna,19,2021-09-06_18h31.44.209,rantool2,2021.1.4,Win32,59.89099838,6135e006383e6ea6c3d06a28,613641bd55f3acba28ae0f09,"[""comma"",""period""]",0,"[0.3170999999996411,1.0327000000001476]",46,0,46,0,1
,,,,,,,6134a727fc1e3f0ee23aab8a,,,,,,6134a727fc1e3f0ee23aab8a,Mężczyzna,19,2021-09-06_18h31.44.209,rantool2,2021.1.4,Win32,59.89099838,6135e006383e6ea6c3d06a28,613641bd55f3acba28ae0f09,"[""period""]",0,[0.31209999999964566],47,0,47,0,1
,,,,,,,6134a727fc1e3f0ee23aab8a,,,,,,6134a727fc1e3f0ee23aab8a,Mężczyzna,19,2021-09-06_18h31.44.209,rantool2,2021.1.4,Win32,59.89099838,6135e006383e6ea6c3d06a28,613641bd55f3acba28ae0f09,"[""period""]",0,[0.5268999999994435],48,0,48,0,1
,,,,,,,6134a727fc1e3f0ee23aab8a,,,,,,6134a727fc1e3f0ee23aab8a,Mężczyzna,19,2021-09-06_18h31.44.209,rantool2,2021.1.4,Win32,59.89099838,6135e006383e6ea6c3d06a28,613641bd55f3acba28ae0f09,"[""comma""]",0,[0.6001999999992336],49,0,49,0,1
,,,,,,,6134a727fc1e3f0ee23aab8a,,,,,,6134a727fc1e3f0ee23aab8a,Mężczyzna,19,2021-09-06_18h31.44.209,rantool2,2021.1.4,Win32,59.89099838,6135e006383e6ea6c3d06a28,613641bd55f3acba28ae0f09,"[""period""]",0,[0.40570000000013806],50,0,50,0,1
,,,,,,,6134a727fc1e3f0ee23aab8a,,,,,,6134a727fc1e3f0ee23aab8a,Mężczyzna,19,2021-09-06_18h31.44.209,rantool2,2021.1.4,Win32,59.89099838,6135e006383e6ea6c3d06a28,613641bd55f3acba28ae0f09,"[""comma""]",0,[0.5870999999996229],51,0,51,0,1
,,,,,,,6134a727fc1e3f0ee23aab8a,,,,,,6134a727fc1e3f0ee23aab8a,Mężczyzna,19,2021-09-06_18h31.44.209,rantool2,2021.1.4,Win32,59.89099838,6135e006383e6ea6c3d06a28,613641bd55f3acba28ae0f09,"[""period""]",0,[0.450399999998524],52,0,52,0,1
,,,,,,,6134a727fc1e3f0ee23aab8a,,,,,,6134a727fc1e3f0ee23aab8a,Mężczyzna,19,2021-09-06_18h31.44.209,rantool2,2021.1.4,Win32,59.89099838,6135e006383e6ea6c3d06a28,613641bd55f3acba28ae0f09,"[""comma""]",0,[0.9843000000007578],53,0,53,0,1
,,,,,,,6134a727fc1e3f0ee23aab8a,,,,,,6134a727fc1e3f0ee23aab8a,Mężczyzna,19,2021-09-06_18h31.44.209,rantool2,2021.1.4,Win32,59.89099838,6135e006383e6ea6c3d06a28,613641bd55f3acba28ae0f09,"[""period""]",0,[0.3504000000003771],54,0,54,0,1
,,,,,,,6134a727fc1e3f0ee23aab8a,,,,,,6134a727fc1e3f0ee23aab8a,Mężczyzna,19,2021-09-06_18h31.44.209,rantool2,2021.1.4,Win32,59.89099838,6135e006383e6ea6c3d06a28,613641bd55f3acba28ae0f09,"[""comma""]",0,[0.38719999999926813],55,0,55,0,1
,,,,,,,6134a727fc1e3f0ee23aab8a,,,,,,6134a727fc1e3f0ee23aab8a,Mężczyzna,19,2021-09-06_18h31.44.209,rantool2,2021.1.4,Win32,59.89099838,6135e006383e6ea6c3d06a28,613641bd55f3acba28ae0f09,"[""period""]",0,[0.40040000000038845],56,0,56,0,1
,,,,,,,6134a727fc1e3f0ee23aab8a,,,,,,6134a727fc1e3f0ee23aab8a,Mężczyzna,19,2021-09-06_18h31.44.209,rantool2,2021.1.4,Win32,59.89099838,6135e006383e6ea6c3d06a28,613641bd55f3acba28ae0f09,"[""comma""]",0,[0.38309999999967204],57,0,57,0,1
,,,,,,,6134a727fc1e3f0ee23aab8a,,,,,,6134a727fc1e3f0ee23aab8a,Mężczyzna,19,2021-09-06_18h31.44.209,rantool2,2021.1.4,Win32,59.89099838,6135e006383e6ea6c3d06a28,613641bd55f3acba28ae0f09,"[""comma""]",0,[0.5784000000003857],58,0,58,0,1
,,,,,,,6134a727fc1e3f0ee23aab8a,,,,,,6134a727fc1e3f0ee23aab8a,Mężczyzna,19,2021-09-06_18h31.44.209,rantool2,2021.1.4,Win32,59.89099838,6135e006383e6ea6c3d06a28,613641bd55f3acba28ae0f09,"[""comma""]",0,[0.38299999999998136],59,0,59,0,1
,,,,,,,6134a727fc1e3f0ee23aab8a,,,,,,6134a727fc1e3f0ee23aab8a,Mężczyzna,19,2021-09-06_18h31.44.209,rantool2,2021.1.4,Win32,59.89099838,6135e006383e6ea6c3d06a28,613641bd55f3acba28ae0f09,"[""period""]",0,[0.3005999999996334],60,0,60,0,1
,,,,,,,6134a727fc1e3f0ee23aab8a,,,,,,6134a727fc1e3f0ee23aab8a,Mężczyzna,19,2021-09-06_18h31.44.209,rantool2,2021.1.4,Win32,59.89099838,6135e006383e6ea6c3d06a28,613641bd55f3acba28ae0f09,"[""period""]",0,[0.5171999999992636],61,0,61,0,1
,,,,,,,6134a727fc1e3f0ee23aab8a,,,,,,6134a727fc1e3f0ee23aab8a,Mężczyzna,19,2021-09-06_18h31.44.209,rantool2,2021.1.4,Win32,59.89099838,6135e006383e6ea6c3d06a28,613641bd55f3acba28ae0f09,"[""comma""]",0,[0.3839000000003807],62,0,62,0,1
,,,,,,,6134a727fc1e3f0ee23aab8a,,,,,,6134a727fc1e3f0ee23aab8a,Mężczyzna,19,2021-09-06_18h31.44.209,rantool2,2021.1.4,Win32,59.89099838,6135e006383e6ea6c3d06a28,613641bd55f3acba28ae0f09,"[""period""]",0,[0.3830999999996152],63,0,63,0,1
,,,,,,,6134a727fc1e3f0ee23aab8a,,,,,,6134a727fc1e3f0ee23aab8a,Mężczyzna,19,2021-09-06_18h31.44.209,rantool2,2021.1.4,Win32,59.89099838,6135e006383e6ea6c3d06a28,613641bd55f3acba28ae0f09,"[""comma""]",0,[0.44979999999890197],64,0,64,0,1
,,,,,,,6134a727fc1e3f0ee23aab8a,,,,,,6134a727fc1e3f0ee23aab8a,Mężczyzna,19,2021-09-06_18h31.44.209,rantool2,2021.1.4,Win32,59.89099838,6135e006383e6ea6c3d06a28,613641bd55f3acba28ae0f09,"[""comma""]",0,[0.4576000000014915],65,0,65,0,1
,,,,,,,6134a727fc1e3f0ee23aab8a,,,,,,6134a727fc1e3f0ee23aab8a,Mężczyzna,19,2021-09-06_18h31.44.209,rantool2,2021.1.4,Win32,59.89099838,6135e006383e6ea6c3d06a28,613641bd55f3acba28ae0f09,"[""period""]",0,[0.5827999999988833],66,0,66,0,1
,,,,,,,6134a727fc1e3f0ee23aab8a,,,,,,6134a727fc1e3f0ee23aab8a,Mężczyzna,19,2021-09-06_18h31.44.209,rantool2,2021.1.4,Win32,59.89099838,6135e006383e6ea6c3d06a28,613641bd55f3acba28ae0f09,"[""period""]",0,[0.4598000000007687],67,0,67,0,1
,,,,,,,6134a727fc1e3f0ee23aab8a,,,,,,6134a727fc1e3f0ee23aab8a,Mężczyzna,19,2021-09-06_18h31.44.209,rantool2,2021.1.4,Win32,59.89099838,6135e006383e6ea6c3d06a28,613641bd55f3acba28ae0f09,"[""period""]",0,[0.6504999999999654],68,0,68,0,1
,,,,,,,6134a727fc1e3f0ee23aab8a,,,,,,6134a727fc1e3f0ee23aab8a,Mężczyzna,19,2021-09-06_18h31.44.209,rantool2,2021.1.4,Win32,59.89099838,6135e006383e6ea6c3d06a28,613641bd55f3acba28ae0f09,"[""comma""]",0,[0.6007000000010976],69,0,69,0,1
,,,,,,,6134a727fc1e3f0ee23aab8a,,,,,,6134a727fc1e3f0ee23aab8a,Mężczyzna,19,2021-09-06_18h31.44.209,rantool2,2021.1.4,Win32,59.89099838,6135e006383e6ea6c3d06a28,613641bd55f3acba28ae0f09,"[""comma""]",0,[0.49500000000000455],70,0,70,0,1
,,,,,,,6134a727fc1e3f0ee23aab8a,,,,,,6134a727fc1e3f0ee23aab8a,Mężczyzna,19,2021-09-06_18h31.44.209,rantool2,2021.1.4,Win32,59.89099838,6135e006383e6ea6c3d06a28,613641bd55f3acba28ae0f09,"[""period""]",0,[0.28409999999962565],71,0,71,0,1
,,,,,,,6134a727fc1e3f0ee23aab8a,,,,,,6134a727fc1e3f0ee23aab8a,Mężczyzna,19,2021-09-06_18h31.44.209,rantool2,2021.1.4,Win32,59.89099838,6135e006383e6ea6c3d06a28,613641bd55f3acba28ae0f09,"[""period""]",0,[0.7900999999996543],72,0,72,0,1
,,,,,,,6134a727fc1e3f0ee23aab8a,,,,,,6134a727fc1e3f0ee23aab8a,Mężczyzna,19,2021-09-06_18h31.44.209,rantool2,2021.1.4,Win32,59.89099838,6135e006383e6ea6c3d06a28,613641bd55f3acba28ae0f09,"[""period""]",0,[0.6284000000003402],73,0,73,0,1
,,,,,,,6134a727fc1e3f0ee23aab8a,,,,,,6134a727fc1e3f0ee23aab8a,Mężczyzna,19,2021-09-06_18h31.44.209,rantool2,2021.1.4,Win32,59.89099838,6135e006383e6ea6c3d06a28,613641bd55f3acba28ae0f09,"[""comma""]",0,[0.40040000000038845],74,0,74,0,1
,,,,,,,6134a727fc1e3f0ee23aab8a,,,,,,6134a727fc1e3f0ee23aab8a,Mężczyzna,19,2021-09-06_18h31.44.209,rantool2,2021.1.4,Win32,59.89099838,6135e006383e6ea6c3d06a28,613641bd55f3acba28ae0f09,"[""comma""]",0,[0.38789999999846714],75,0,75,0,1
,,,,,,,6134a727fc1e3f0ee23aab8a,,,,,,6134a727fc1e3f0ee23aab8a,Mężczyzna,19,2021-09-06_18h31.44.209,rantool2,2021.1.4,Win32,59.89099838,6135e006383e6ea6c3d06a28,613641bd55f3acba28ae0f09,"[""period""]",0,[0.3172000000011508],76,0,76,0,1
,,,,,,,6134a727fc1e3f0ee23aab8a,,,,,,6134a727fc1e3f0ee23aab8a,Mężczyzna,19,2021-09-06_18h31.44.209,rantool2,2021.1.4,Win32,59.89099838,6135e006383e6ea6c3d06a28,613641bd55f3acba28ae0f09,"[""period""]",0,[0.3105999999996243],77,0,77,0,1
,,,,,,,6134a727fc1e3f0ee23aab8a,,,,,,6134a727fc1e3f0ee23aab8a,Mężczyzna,19,2021-09-06_18h31.44.209,rantool2,2021.1.4,Win32,59.89099838,6135e006383e6ea6c3d06a28,613641bd55f3acba28ae0f09,"[""period""]",0,[0.6706999999992718],78,0,78,0,1
,,,,,,,6134a727fc1e3f0ee23aab8a,,,,,,6134a727fc1e3f0ee23aab8a,Mężczyzna,19,2021-09-06_18h31.44.209,rantool2,2021.1.4,Win32,59.89099838,6135e006383e6ea6c3d06a28,613641bd55f3acba28ae0f09,"[""comma""]",0,[0.4670999999996184],79,0,79,0,1
,,,,,,,6134a727fc1e3f0ee23aab8a,,,,,,6134a727fc1e3f0ee23aab8a,Mężczyzna,19,2021-09-06_18h31.44.209,rantool2,2021.1.4,Win32,59.89099838,6135e006383e6ea6c3d06a28,613641bd55f3acba28ae0f09,"[""period""]",0,[0.41680000000076234],80,0,80,0,1
,,,,,,,6134a727fc1e3f0ee23aab8a,,,,,,6134a727fc1e3f0ee23aab8a,Mężczyzna,19,2021-09-06_18h31.44.209,rantool2,2021.1.4,Win32,59.89099838,6135e006383e6ea6c3d06a28,613641bd55f3acba28ae0f09,"[""period""]",0,[0.3772999999988542],81,0,81,0,1
,,,,,,,6134a727fc1e3f0ee23aab8a,,,,,,6134a727fc1e3f0ee23aab8a,Mężczyzna,19,2021-09-06_18h31.44.209,rantool2,2021.1.4,Win32,59.89099838,6135e006383e6ea6c3d06a28,613641bd55f3acba28ae0f09,"[""period""]",0,[0.38429999999891606],82,0,82,0,1
,,,,,,,6134a727fc1e3f0ee23aab8a,,,,,,6134a727fc1e3f0ee23aab8a,Mężczyzna,19,2021-09-06_18h31.44.209,rantool2,2021.1.4,Win32,59.89099838,6135e006383e6ea6c3d06a28,613641bd55f3acba28ae0f09,"[""comma""]",0,[0.5371999999992454],83,0,83,0,1
,,,,,,,6134a727fc1e3f0ee23aab8a,,,,,,6134a727fc1e3f0ee23aab8a,Mężczyzna,19,2021-09-06_18h31.44.209,rantool2,2021.1.4,Win32,59.89099838,6135e006383e6ea6c3d06a28,613641bd55f3acba28ae0f09,"[""period""]",0,[0.40040000000038845],84,0,84,0,1
,,,,,,,6134a727fc1e3f0ee23aab8a,,,,,,6134a727fc1e3f0ee23aab8a,Mężczyzna,19,2021-09-06_18h31.44.209,rantool2,2021.1.4,Win32,59.89099838,6135e006383e6ea6c3d06a28,613641bd55f3acba28ae0f09,"[""comma""]",0,[1.0252000000011208],85,0,85,0,1
,,,,,,,6134a727fc1e3f0ee23aab8a,,,,,,6134a727fc1e3f0ee23aab8a,Mężczyzna,19,2021-09-06_18h31.44.209,rantool2,2021.1.4,Win32,59.89099838,6135e006383e6ea6c3d06a28,613641bd55f3acba28ae0f09,"[""period""]",0,[0.25859999999960337],86,0,86,0,1
,,,,,,,6134a727fc1e3f0ee23aab8a,,,,,,6134a727fc1e3f0ee23aab8a,Mężczyzna,19,2021-09-06_18h31.44.209,rantool2,2021.1.4,Win32,59.89099838,6135e006383e6ea6c3d06a28,613641bd55f3acba28ae0f09,"[""comma""]",0,[0.3001000000014642],87,0,87,0,1
,,,,,,,6134a727fc1e3f0ee23aab8a,,,,,,6134a727fc1e3f0ee23aab8a,Mężczyzna,19,2021-09-06_18h31.44.209,rantool2,2021.1.4,Win32,59.89099838,6135e006383e6ea6c3d06a28,613641bd55f3acba28ae0f09,"[""period""]",0,[0.27219999999925903],88,0,88,0,1
,,,,,,,6134a727fc1e3f0ee23aab8a,,,,,,6134a727fc1e3f0ee23aab8a,Mężczyzna,19,2021-09-06_18h31.44.209,rantool2,2021.1.4,Win32,59.89099838,6135e006383e6ea6c3d06a28,613641bd55f3acba28ae0f09,"[""period""]",0,[0.3334000000003243],89,0,89,0,1
,,,,,,,6134a727fc1e3f0ee23aab8a,,,,,,6134a727fc1e3f0ee23aab8a,Mężczyzna,19,2021-09-06_18h31.44.209,rantool2,2021.1.4,Win32,59.89099838,6135e006383e6ea6c3d06a28,613641bd55f3acba28ae0f09,"[""comma""]",0,[0.40609999999963975],90,0,90,0,1
,,,,,,,6134a727fc1e3f0ee23aab8a,,,,,,6134a727fc1e3f0ee23aab8a,Mężczyzna,19,2021-09-06_18h31.44.209,rantool2,2021.1.4,Win32,59.89099838,6135e006383e6ea6c3d06a28,613641bd55f3acba28ae0f09,"[""period""]",0,[0.3704000000003589],91,0,91,0,1
,,,,,,,6134a727fc1e3f0ee23aab8a,,,,,,6134a727fc1e3f0ee23aab8a,Mężczyzna,19,2021-09-06_18h31.44.209,rantool2,2021.1.4,Win32,59.89099838,6135e006383e6ea6c3d06a28,613641bd55f3acba28ae0f09,"[""comma""]",0,[0.3507000000010976],92,0,92,0,1
,,,,,,,6134a727fc1e3f0ee23aab8a,,,,,,6134a727fc1e3f0ee23aab8a,Mężczyzna,19,2021-09-06_18h31.44.209,rantool2,2021.1.4,Win32,59.89099838,6135e006383e6ea6c3d06a28,613641bd55f3acba28ae0f09,"[""period""]",0,[0.3835999999996602],93,0,93,0,1
,,,,,,,6134a727fc1e3f0ee23aab8a,,,,,,6134a727fc1e3f0ee23aab8a,Mężczyzna,19,2021-09-06_18h31.44.209,rantool2,2021.1.4,Win32,59.89099838,6135e006383e6ea6c3d06a28,613641bd55f3acba28ae0f09,"[""period""]",0,[0.7496000000015215],94,0,94,0,1
,,,,,,,6134a727fc1e3f0ee23aab8a,,,,,,6134a727fc1e3f0ee23aab8a,Mężczyzna,19,2021-09-06_18h31.44.209,rantool2,2021.1.4,Win32,59.89099838,6135e006383e6ea6c3d06a28,613641bd55f3acba28ae0f09,"[""period""]",0,[0.35310000000146147],95,0,95,0,1
,,,,,,,6134a727fc1e3f0ee23aab8a,,,,,,6134a727fc1e3f0ee23aab8a,Mężczyzna,19,2021-09-06_18h31.44.209,rantool2,2021.1.4,Win32,59.89099838,6135e006383e6ea6c3d06a28,613641bd55f3acba28ae0f09,"[""comma""]",0,[0.550199999999279],96,0,96,0,1
,,,,,,,6134a727fc1e3f0ee23aab8a,,,,,,6134a727fc1e3f0ee23aab8a,Mężczyzna,19,2021-09-06_18h31.44.209,rantool2,2021.1.4,Win32,59.89099838,6135e006383e6ea6c3d06a28,613641bd55f3acba28ae0f09,"[""comma""]",0,[0.4005999999996561],97,0,97,0,1
,,,,,,,6134a727fc1e3f0ee23aab8a,,,,,,6134a727fc1e3f0ee23aab8a,Mężczyzna,19,2021-09-06_18h31.44.209,rantool2,2021.1.4,Win32,59.89099838,6135e006383e6ea6c3d06a28,613641bd55f3acba28ae0f09,"[""comma""]",0,[0.6002000000011094],98,0,98,0,1
,,,,,,,6134a727fc1e3f0ee23aab8a,,,,,,6134a727fc1e3f0ee23aab8a,Mężczyzna,19,2021-09-06_18h31.44.209,rantool2,2021.1.4,Win32,59.89099838,6135e006383e6ea6c3d06a28,613641bd55f3acba28ae0f09,"[""period""]",0,[0.8501000000015324],99,0,99,0,1
,,,,,,,6134a727fc1e3f0ee23aab8a,,,,,,6134a727fc1e3f0ee23aab8a,Mężczyzna,19,2021-09-06_18h31.44.209,rantool2,2021.1.4,Win32,59.89099838,6135e006383e6ea6c3d06a28,613641bd55f3acba28ae0f09,"[""comma""]",0,[0.26740000000035025],100,0,100,0,1
,,,,,,,6134a727fc1e3f0ee23aab8a,,,,,,6134a727fc1e3f0ee23aab8a,Mężczyzna,19,2021-09-06_18h31.44.209,rantool2,2021.1.4,Win32,59.89099838,6135e006383e6ea6c3d06a28,613641bd55f3acba28ae0f09,"[""period""]",0,[0.30019999999927904],101,0,101,0,1
,,,,,,,6134a727fc1e3f0ee23aab8a,,,,,,6134a727fc1e3f0ee23aab8a,Mężczyzna,19,2021-09-06_18h31.44.209,rantool2,2021.1.4,Win32,59.89099838,6135e006383e6ea6c3d06a28,613641bd55f3acba28ae0f09,"[""comma""]",0,[0.25040000000035434],102,0,102,0,1
,,,,,,,6134a727fc1e3f0ee23aab8a,,,,,,6134a727fc1e3f0ee23aab8a,Mężczyzna,19,2021-09-06_18h31.44.209,rantool2,2021.1.4,Win32,59.89099838,6135e006383e6ea6c3d06a28,613641bd55f3acba28ae0f09,"[""period""]",0,[0.3165000000000191],103,0,103,0,1
,,,,,,,6134a727fc1e3f0ee23aab8a,,,,,,6134a727fc1e3f0ee23aab8a,Mężczyzna,19,2021-09-06_18h31.44.209,rantool2,2021.1.4,Win32,59.89099838,6135e006383e6ea6c3d06a28,613641bd55f3acba28ae0f09,"[""comma""]",0,[0.31150000000002365],104,0,104,0,1
,,,,,,,6134a727fc1e3f0ee23aab8a,,,,,,6134a727fc1e3f0ee23aab8a,Mężczyzna,19,2021-09-06_18h31.44.209,rantool2,2021.1.4,Win32,59.89099838,6135e006383e6ea6c3d06a28,613641bd55f3acba28ae0f09,"[""period""]",0,[0.333500000000015],105,0,105,0,1
,,,,,,,6134a727fc1e3f0ee23aab8a,,,,,,6134a727fc1e3f0ee23aab8a,Mężczyzna,19,2021-09-06_18h31.44.209,rantool2,2021.1.4,Win32,59.89099838,6135e006383e6ea6c3d06a28,613641bd55f3acba28ae0f09,"[""comma""]",0,[0.3004000000003657],106,0,106,0,1
,,,,,,,6134a727fc1e3f0ee23aab8a,,,,,,6134a727fc1e3f0ee23aab8a,Mężczyzna,19,2021-09-06_18h31.44.209,rantool2,2021.1.4,Win32,59.89099838,6135e006383e6ea6c3d06a28,613641bd55f3acba28ae0f09,"[""period""]",0,[0.25090000000039936],107,0,107,0,1
,,,,,,,6134a727fc1e3f0ee23aab8a,,,,,,6134a727fc1e3f0ee23aab8a,Mężczyzna,19,2021-09-06_18h31.44.209,rantool2,2021.1.4,Win32,59.89099838,6135e006383e6ea6c3d06a28,613641bd55f3acba28ae0f09,"[""period""]",0,[0.3501999999992904],108,0,108,0,1
,,,,,,,6134a727fc1e3f0ee23aab8a,,,,,,6134a727fc1e3f0ee23aab8a,Mężczyzna,19,2021-09-06_18h31.44.209,rantool2,2021.1.4,Win32,59.89099838,6135e006383e6ea6c3d06a28,613641bd55f3acba28ae0f09,"[""comma""]",0,[0.31690000000037344],109,0,109,0,1
,,,,,,,6134a727fc1e3f0ee23aab8a,,,,,,6134a727fc1e3f0ee23aab8a,Mężczyzna,19,2021-09-06_18h31.44.209,rantool2,2021.1.4,Win32,59.89099838,6135e006383e6ea6c3d06a28,613641bd55f3acba28ae0f09,"[""comma""]",0,[0.2999000000003207],110,0,110,0,1
,,,,,,,6134a727fc1e3f0ee23aab8a,,,,,,6134a727fc1e3f0ee23aab8a,Mężczyzna,19,2021-09-06_18h31.44.209,rantool2,2021.1.4,Win32,59.89099838,6135e006383e6ea6c3d06a28,613641bd55f3acba28ae0f09,"[""period""]",0,[0.30040000000042255],111,0,111,0,1
,,,,,,,6134a727fc1e3f0ee23aab8a,,,,,,6134a727fc1e3f0ee23aab8a,Mężczyzna,19,2021-09-06_18h31.44.209,rantool2,2021.1.4,Win32,59.89099838,6135e006383e6ea6c3d06a28,613641bd55f3acba28ae0f09,"[""period""]",0,[0.4500999999996793],112,0,112,0,1
,,,,,,,6134a727fc1e3f0ee23aab8a,,,,,,6134a727fc1e3f0ee23aab8a,Mężczyzna,19,2021-09-06_18h31.44.209,rantool2,2021.1.4,Win32,59.89099838,6135e006383e6ea6c3d06a28,613641bd55f3acba28ae0f09,"[""period""]",0,[0.5170999999995729],113,0,113,0,1
,,,,,,,6134a727fc1e3f0ee23aab8a,,,,,,6134a727fc1e3f0ee23aab8a,Mężczyzna,19,2021-09-06_18h31.44.209,rantool2,2021.1.4,Win32,59.89099838,6135e006383e6ea6c3d06a28,613641bd55f3acba28ae0f09,"[""period""]",0,[0.23419999999930496],114,0,114,0,1
,,,,,,,6134a727fc1e3f0ee23aab8a,,,,,,6134a727fc1e3f0ee23aab8a,Mężczyzna,19,2021-09-06_18h31.44.209,rantool2,2021.1.4,Win32,59.89099838,6135e006383e6ea6c3d06a28,613641bd55f3acba28ae0f09,"[""comma""]",0,[0.4037999999989097],115,0,115,0,1
,,,,,,,6134a727fc1e3f0ee23aab8a,,,,,,6134a727fc1e3f0ee23aab8a,Mężczyzna,19,2021-09-06_18h31.44.209,rantool2,2021.1.4,Win32,59.89099838,6135e006383e6ea6c3d06a28,613641bd55f3acba28ae0f09,"[""period""]",0,[0.5336999999992713],116,0,116,0,1
,,,,,,,6134a727fc1e3f0ee23aab8a,,,,,,6134a727fc1e3f0ee23aab8a,Mężczyzna,19,2021-09-06_18h31.44.209,rantool2,2021.1.4,Win32,59.89099838,6135e006383e6ea6c3d06a28,613641bd55f3acba28ae0f09,"[""comma""]",0,[0.5004000000003543],117,0,117,0,1
,,,,,,,6134a727fc1e3f0ee23aab8a,,,,,,6134a727fc1e3f0ee23aab8a,Mężczyzna,19,2021-09-06_18h31.44.209,rantool2,2021.1.4,Win32,59.89099838,6135e006383e6ea6c3d06a28,613641bd55f3acba28ae0f09,"[""period""]",0,[0.5704000000004044],118,0,118,0,1
,,,,,,,6134a727fc1e3f0ee23aab8a,,,,,,6134a727fc1e3f0ee23aab8a,Mężczyzna,19,2021-09-06_18h31.44.209,rantool2,2021.1.4,Win32,59.89099838,6135e006383e6ea6c3d06a28,613641bd55f3acba28ae0f09,"[""comma""]",0,[0.8672000000011622],119,0,119,0,1
