key_resp_5.keys,key_resp_5.corr,key_resp_5.rt,trials.thisRepN,trials.thisTrialN,trials.thisN,trials.thisIndex,trials.ran,id*,Płeć*,Wiek*,date,expName,psychopyVersion,OS,frameRate,id,STUDY_ID,SESSION_ID,key_resp_7.keys,key_resp_7.rt,trials_2.thisRepN,trials_2.thisTrialN,trials_2.thisN,trials_2.thisIndex,trials_2.ran,series_0,series_1,acss_0,acss_1,comparison
0,,,0,0,0,0,1,6066e7e5642c6520dabcdb5b,Mężczyzna,20,2021-07-13_21h54.11.883,rantool2,2021.1.4,Win32,59.89458553,6066e7e5642c6520dabcdb5b,60d9d14f4a8a35a482e0d9bf,60edef3eee977e4d5a263b78,,,,,,,,,,,,
0,,,1,0,1,0,1,6066e7e5642c6520dabcdb5b,Mężczyzna,20,2021-07-13_21h54.11.883,rantool2,2021.1.4,Win32,59.89458553,6066e7e5642c6520dabcdb5b,60d9d14f4a8a35a482e0d9bf,60edef3eee977e4d5a263b78,,,,,,,,,,,,
0,,,2,0,2,0,1,6066e7e5642c6520dabcdb5b,Mężczyzna,20,2021-07-13_21h54.11.883,rantool2,2021.1.4,Win32,59.89458553,6066e7e5642c6520dabcdb5b,60d9d14f4a8a35a482e0d9bf,60edef3eee977e4d5a263b78,,,,,,,,,,,,
"[""comma""]",0,[0.6368000000119238],3,0,3,0,1,6066e7e5642c6520dabcdb5b,Mężczyzna,20,2021-07-13_21h54.11.883,rantool2,2021.1.4,Win32,59.89458553,6066e7e5642c6520dabcdb5b,60d9d14f4a8a35a482e0d9bf,60edef3eee977e4d5a263b78,,,,,,,,,,,,
"[""comma"",""period""]",0,"[0.3258999999761585,1.9776000000238412]",4,0,4,0,1,6066e7e5642c6520dabcdb5b,Mężczyzna,20,2021-07-13_21h54.11.883,rantool2,2021.1.4,Win32,59.89458553,6066e7e5642c6520dabcdb5b,60d9d14f4a8a35a482e0d9bf,60edef3eee977e4d5a263b78,,,,,,,,,,,,
"[""comma""]",0,[1.8399000000357617],5,0,5,0,1,6066e7e5642c6520dabcdb5b,Mężczyzna,20,2021-07-13_21h54.11.883,rantool2,2021.1.4,Win32,59.89458553,6066e7e5642c6520dabcdb5b,60d9d14f4a8a35a482e0d9bf,60edef3eee977e4d5a263b78,,,,,,,,,,,,
"[""period""]",0,[1.8918999999761539],6,0,6,0,1,6066e7e5642c6520dabcdb5b,Mężczyzna,20,2021-07-13_21h54.11.883,rantool2,2021.1.4,Win32,59.89458553,6066e7e5642c6520dabcdb5b,60d9d14f4a8a35a482e0d9bf,60edef3eee977e4d5a263b78,,,,,,,,,,,,
"[""period""]",0,[1.9386999999880814],7,0,7,0,1,6066e7e5642c6520dabcdb5b,Mężczyzna,20,2021-07-13_21h54.11.883,rantool2,2021.1.4,Win32,59.89458553,6066e7e5642c6520dabcdb5b,60d9d14f4a8a35a482e0d9bf,60edef3eee977e4d5a263b78,,,,,,,,,,,,
"[""comma""]",0,[1.922599999964234],8,0,8,0,1,6066e7e5642c6520dabcdb5b,Mężczyzna,20,2021-07-13_21h54.11.883,rantool2,2021.1.4,Win32,59.89458553,6066e7e5642c6520dabcdb5b,60d9d14f4a8a35a482e0d9bf,60edef3eee977e4d5a263b78,,,,,,,,,,,,
"[""comma""]",0,[1.9378000000119258],9,0,9,0,1,6066e7e5642c6520dabcdb5b,Mężczyzna,20,2021-07-13_21h54.11.883,rantool2,2021.1.4,Win32,59.89458553,6066e7e5642c6520dabcdb5b,60d9d14f4a8a35a482e0d9bf,60edef3eee977e4d5a263b78,,,,,,,,,,,,
"[""comma""]",0,[1.9699999999999989],10,0,10,0,1,6066e7e5642c6520dabcdb5b,Mężczyzna,20,2021-07-13_21h54.11.883,rantool2,2021.1.4,Win32,59.89458553,6066e7e5642c6520dabcdb5b,60d9d14f4a8a35a482e0d9bf,60edef3eee977e4d5a263b78,,,,,,,,,,,,
0,0,,11,0,11,0,1,6066e7e5642c6520dabcdb5b,Mężczyzna,20,2021-07-13_21h54.11.883,rantool2,2021.1.4,Win32,59.89458553,6066e7e5642c6520dabcdb5b,60d9d14f4a8a35a482e0d9bf,60edef3eee977e4d5a263b78,,,,,,,,,,,,
"[""period""]",0,[0.05830000001192559],12,0,12,0,1,6066e7e5642c6520dabcdb5b,Mężczyzna,20,2021-07-13_21h54.11.883,rantool2,2021.1.4,Win32,59.89458553,6066e7e5642c6520dabcdb5b,60d9d14f4a8a35a482e0d9bf,60edef3eee977e4d5a263b78,,,,,,,,,,,,
"[""period""]",0,[0.04029999995232458],13,0,13,0,1,6066e7e5642c6520dabcdb5b,Mężczyzna,20,2021-07-13_21h54.11.883,rantool2,2021.1.4,Win32,59.89458553,6066e7e5642c6520dabcdb5b,60d9d14f4a8a35a482e0d9bf,60edef3eee977e4d5a263b78,,,,,,,,,,,,
"[""comma"",""period""]",0,"[0.03350000000000364,1.9578000000119289]",14,0,14,0,1,6066e7e5642c6520dabcdb5b,Mężczyzna,20,2021-07-13_21h54.11.883,rantool2,2021.1.4,Win32,59.89458553,6066e7e5642c6520dabcdb5b,60d9d14f4a8a35a482e0d9bf,60edef3eee977e4d5a263b78,,,,,,,,,,,,
"[""period""]",0,[1.7149000000357546],15,0,15,0,1,6066e7e5642c6520dabcdb5b,Mężczyzna,20,2021-07-13_21h54.11.883,rantool2,2021.1.4,Win32,59.89458553,6066e7e5642c6520dabcdb5b,60d9d14f4a8a35a482e0d9bf,60edef3eee977e4d5a263b78,,,,,,,,,,,,
"[""period""]",0,[1.9308000000119279],16,0,16,0,1,6066e7e5642c6520dabcdb5b,Mężczyzna,20,2021-07-13_21h54.11.883,rantool2,2021.1.4,Win32,59.89458553,6066e7e5642c6520dabcdb5b,60d9d14f4a8a35a482e0d9bf,60edef3eee977e4d5a263b78,,,,,,,,,,,,
"[""comma""]",0,[1.9573000000119265],17,0,17,0,1,6066e7e5642c6520dabcdb5b,Mężczyzna,20,2021-07-13_21h54.11.883,rantool2,2021.1.4,Win32,59.89458553,6066e7e5642c6520dabcdb5b,60d9d14f4a8a35a482e0d9bf,60edef3eee977e4d5a263b78,,,,,,,,,,,,
0,0,,18,0,18,0,1,6066e7e5642c6520dabcdb5b,Mężczyzna,20,2021-07-13_21h54.11.883,rantool2,2021.1.4,Win32,59.89458553,6066e7e5642c6520dabcdb5b,60d9d14f4a8a35a482e0d9bf,60edef3eee977e4d5a263b78,,,,,,,,,,,,
"[""comma""]",0,[0.027600000023838334],19,0,19,0,1,6066e7e5642c6520dabcdb5b,Mężczyzna,20,2021-07-13_21h54.11.883,rantool2,2021.1.4,Win32,59.89458553,6066e7e5642c6520dabcdb5b,60d9d14f4a8a35a482e0d9bf,60edef3eee977e4d5a263b78,,,,,,,,,,,,
"[""period""]",0,[0.034600000023843336],20,0,20,0,1,6066e7e5642c6520dabcdb5b,Mężczyzna,20,2021-07-13_21h54.11.883,rantool2,2021.1.4,Win32,59.89458553,6066e7e5642c6520dabcdb5b,60d9d14f4a8a35a482e0d9bf,60edef3eee977e4d5a263b78,,,,,,,,,,,,
"[""comma"",""period""]",0,"[0.0014999999999929514,1.9424999999999955]",21,0,21,0,1,6066e7e5642c6520dabcdb5b,Mężczyzna,20,2021-07-13_21h54.11.883,rantool2,2021.1.4,Win32,59.89458553,6066e7e5642c6520dabcdb5b,60d9d14f4a8a35a482e0d9bf,60edef3eee977e4d5a263b78,,,,,,,,,,,,
0,0,,22,0,22,0,1,6066e7e5642c6520dabcdb5b,Mężczyzna,20,2021-07-13_21h54.11.883,rantool2,2021.1.4,Win32,59.89458553,6066e7e5642c6520dabcdb5b,60d9d14f4a8a35a482e0d9bf,60edef3eee977e4d5a263b78,,,,,,,,,,,,
"[""comma""]",0,[0.06809999996423244],23,0,23,0,1,6066e7e5642c6520dabcdb5b,Mężczyzna,20,2021-07-13_21h54.11.883,rantool2,2021.1.4,Win32,59.89458553,6066e7e5642c6520dabcdb5b,60d9d14f4a8a35a482e0d9bf,60edef3eee977e4d5a263b78,,,,,,,,,,,,
"[""period""]",0,[-0.006099999964234826],24,0,24,0,1,6066e7e5642c6520dabcdb5b,Mężczyzna,20,2021-07-13_21h54.11.883,rantool2,2021.1.4,Win32,59.89458553,6066e7e5642c6520dabcdb5b,60d9d14f4a8a35a482e0d9bf,60edef3eee977e4d5a263b78,,,,,,,,,,,,
"[""period""]",0,[0.18500000000000227],25,0,25,0,1,6066e7e5642c6520dabcdb5b,Mężczyzna,20,2021-07-13_21h54.11.883,rantool2,2021.1.4,Win32,59.89458553,6066e7e5642c6520dabcdb5b,60d9d14f4a8a35a482e0d9bf,60edef3eee977e4d5a263b78,,,,,,,,,,,,
"[""period""]",0,[0.027000000000001023],26,0,26,0,1,6066e7e5642c6520dabcdb5b,Mężczyzna,20,2021-07-13_21h54.11.883,rantool2,2021.1.4,Win32,59.89458553,6066e7e5642c6520dabcdb5b,60d9d14f4a8a35a482e0d9bf,60edef3eee977e4d5a263b78,,,,,,,,,,,,
"[""period"",""comma""]",0,"[0.0893999999761661,1.9701999999880826]",27,0,27,0,1,6066e7e5642c6520dabcdb5b,Mężczyzna,20,2021-07-13_21h54.11.883,rantool2,2021.1.4,Win32,59.89458553,6066e7e5642c6520dabcdb5b,60d9d14f4a8a35a482e0d9bf,60edef3eee977e4d5a263b78,,,,,,,,,,,,
"[""period""]",0,[1.720200000047683],28,0,28,0,1,6066e7e5642c6520dabcdb5b,Mężczyzna,20,2021-07-13_21h54.11.883,rantool2,2021.1.4,Win32,59.89458553,6066e7e5642c6520dabcdb5b,60d9d14f4a8a35a482e0d9bf,60edef3eee977e4d5a263b78,,,,,,,,,,,,
0,0,,29,0,29,0,1,6066e7e5642c6520dabcdb5b,Mężczyzna,20,2021-07-13_21h54.11.883,rantool2,2021.1.4,Win32,59.89458553,6066e7e5642c6520dabcdb5b,60d9d14f4a8a35a482e0d9bf,60edef3eee977e4d5a263b78,,,,,,,,,,,,
"[""comma""]",0,[0.059499999999999886],30,0,30,0,1,6066e7e5642c6520dabcdb5b,Mężczyzna,20,2021-07-13_21h54.11.883,rantool2,2021.1.4,Win32,59.89458553,6066e7e5642c6520dabcdb5b,60d9d14f4a8a35a482e0d9bf,60edef3eee977e4d5a263b78,,,,,,,,,,,,
"[""period""]",0,[0.025399999976158938],31,0,31,0,1,6066e7e5642c6520dabcdb5b,Mężczyzna,20,2021-07-13_21h54.11.883,rantool2,2021.1.4,Win32,59.89458553,6066e7e5642c6520dabcdb5b,60d9d14f4a8a35a482e0d9bf,60edef3eee977e4d5a263b78,,,,,,,,,,,,
"[""period""]",0,[0.16730000001192025],32,0,32,0,1,6066e7e5642c6520dabcdb5b,Mężczyzna,20,2021-07-13_21h54.11.883,rantool2,2021.1.4,Win32,59.89458553,6066e7e5642c6520dabcdb5b,60d9d14f4a8a35a482e0d9bf,60edef3eee977e4d5a263b78,,,,,,,,,,,,
"[""comma"",""comma""]",0,"[0.06850000000000023,1.9215999999642293]",33,0,33,0,1,6066e7e5642c6520dabcdb5b,Mężczyzna,20,2021-07-13_21h54.11.883,rantool2,2021.1.4,Win32,59.89458553,6066e7e5642c6520dabcdb5b,60d9d14f4a8a35a482e0d9bf,60edef3eee977e4d5a263b78,,,,,,,,,,,,
"[""period""]",0,[1.942300000011926],34,0,34,0,1,6066e7e5642c6520dabcdb5b,Mężczyzna,20,2021-07-13_21h54.11.883,rantool2,2021.1.4,Win32,59.89458553,6066e7e5642c6520dabcdb5b,60d9d14f4a8a35a482e0d9bf,60edef3eee977e4d5a263b78,,,,,,,,,,,,
0,0,,35,0,35,0,1,6066e7e5642c6520dabcdb5b,Mężczyzna,20,2021-07-13_21h54.11.883,rantool2,2021.1.4,Win32,59.89458553,6066e7e5642c6520dabcdb5b,60d9d14f4a8a35a482e0d9bf,60edef3eee977e4d5a263b78,,,,,,,,,,,,
"[""period"",""comma""]",0,"[0.16730000001192025,1.9056999999880873]",36,0,36,0,1,6066e7e5642c6520dabcdb5b,Mężczyzna,20,2021-07-13_21h54.11.883,rantool2,2021.1.4,Win32,59.89458553,6066e7e5642c6520dabcdb5b,60d9d14f4a8a35a482e0d9bf,60edef3eee977e4d5a263b78,,,,,,,,,,,,
0,0,,37,0,37,0,1,6066e7e5642c6520dabcdb5b,Mężczyzna,20,2021-07-13_21h54.11.883,rantool2,2021.1.4,Win32,59.89458553,6066e7e5642c6520dabcdb5b,60d9d14f4a8a35a482e0d9bf,60edef3eee977e4d5a263b78,,,,,,,,,,,,
"[""comma""]",0,[0.01679999995231185],38,0,38,0,1,6066e7e5642c6520dabcdb5b,Mężczyzna,20,2021-07-13_21h54.11.883,rantool2,2021.1.4,Win32,59.89458553,6066e7e5642c6520dabcdb5b,60d9d14f4a8a35a482e0d9bf,60edef3eee977e4d5a263b78,,,,,,,,,,,,
"[""period""]",0,[0.033900000035757216],39,0,39,0,1,6066e7e5642c6520dabcdb5b,Mężczyzna,20,2021-07-13_21h54.11.883,rantool2,2021.1.4,Win32,59.89458553,6066e7e5642c6520dabcdb5b,60d9d14f4a8a35a482e0d9bf,60edef3eee977e4d5a263b78,,,,,,,,,,,,
"[""comma""]",0,[0.16969999998808305],40,0,40,0,1,6066e7e5642c6520dabcdb5b,Mężczyzna,20,2021-07-13_21h54.11.883,rantool2,2021.1.4,Win32,59.89458553,6066e7e5642c6520dabcdb5b,60d9d14f4a8a35a482e0d9bf,60edef3eee977e4d5a263b78,,,,,,,,,,,,
"[""comma""]",0,[0.1145999999642271],41,0,41,0,1,6066e7e5642c6520dabcdb5b,Mężczyzna,20,2021-07-13_21h54.11.883,rantool2,2021.1.4,Win32,59.89458553,6066e7e5642c6520dabcdb5b,60d9d14f4a8a35a482e0d9bf,60edef3eee977e4d5a263b78,,,,,,,,,,,,
"[""comma"",""period""]",0,"[0.0683000000119307,1.8391000000238478]",42,0,42,0,1,6066e7e5642c6520dabcdb5b,Mężczyzna,20,2021-07-13_21h54.11.883,rantool2,2021.1.4,Win32,59.89458553,6066e7e5642c6520dabcdb5b,60d9d14f4a8a35a482e0d9bf,60edef3eee977e4d5a263b78,,,,,,,,,,,,
0,0,,43,0,43,0,1,6066e7e5642c6520dabcdb5b,Mężczyzna,20,2021-07-13_21h54.11.883,rantool2,2021.1.4,Win32,59.89458553,6066e7e5642c6520dabcdb5b,60d9d14f4a8a35a482e0d9bf,60edef3eee977e4d5a263b78,,,,,,,,,,,,
"[""period""]",0,[-0.013699999988077138],44,0,44,0,1,6066e7e5642c6520dabcdb5b,Mężczyzna,20,2021-07-13_21h54.11.883,rantool2,2021.1.4,Win32,59.89458553,6066e7e5642c6520dabcdb5b,60d9d14f4a8a35a482e0d9bf,60edef3eee977e4d5a263b78,,,,,,,,,,,,
"[""comma""]",0,[0.0010999999642251623],45,0,45,0,1,6066e7e5642c6520dabcdb5b,Mężczyzna,20,2021-07-13_21h54.11.883,rantool2,2021.1.4,Win32,59.89458553,6066e7e5642c6520dabcdb5b,60d9d14f4a8a35a482e0d9bf,60edef3eee977e4d5a263b78,,,,,,,,,,,,
"[""period"",""comma""]",0,"[0.0023999999761485924,1.910399999976164]",46,0,46,0,1,6066e7e5642c6520dabcdb5b,Mężczyzna,20,2021-07-13_21h54.11.883,rantool2,2021.1.4,Win32,59.89458553,6066e7e5642c6520dabcdb5b,60d9d14f4a8a35a482e0d9bf,60edef3eee977e4d5a263b78,,,,,,,,,,,,
0,0,,47,0,47,0,1,6066e7e5642c6520dabcdb5b,Mężczyzna,20,2021-07-13_21h54.11.883,rantool2,2021.1.4,Win32,59.89458553,6066e7e5642c6520dabcdb5b,60d9d14f4a8a35a482e0d9bf,60edef3eee977e4d5a263b78,,,,,,,,,,,,
"[""comma""]",0,[-0.009500000000002728],48,0,48,0,1,6066e7e5642c6520dabcdb5b,Mężczyzna,20,2021-07-13_21h54.11.883,rantool2,2021.1.4,Win32,59.89458553,6066e7e5642c6520dabcdb5b,60d9d14f4a8a35a482e0d9bf,60edef3eee977e4d5a263b78,,,,,,,,,,,,
"[""period"",""period""]",0,"[0.005900000035751418,1.8798000000118975]",49,0,49,0,1,6066e7e5642c6520dabcdb5b,Mężczyzna,20,2021-07-13_21h54.11.883,rantool2,2021.1.4,Win32,59.89458553,6066e7e5642c6520dabcdb5b,60d9d14f4a8a35a482e0d9bf,60edef3eee977e4d5a263b78,,,,,,,,,,,,
0,0,,50,0,50,0,1,6066e7e5642c6520dabcdb5b,Mężczyzna,20,2021-07-13_21h54.11.883,rantool2,2021.1.4,Win32,59.89458553,6066e7e5642c6520dabcdb5b,60d9d14f4a8a35a482e0d9bf,60edef3eee977e4d5a263b78,,,,,,,,,,,,
"[""period""]",0,[0.17849999999998545],51,0,51,0,1,6066e7e5642c6520dabcdb5b,Mężczyzna,20,2021-07-13_21h54.11.883,rantool2,2021.1.4,Win32,59.89458553,6066e7e5642c6520dabcdb5b,60d9d14f4a8a35a482e0d9bf,60edef3eee977e4d5a263b78,,,,,,,,,,,,
"[""period""]",0,[0.23460000002384618],52,0,52,0,1,6066e7e5642c6520dabcdb5b,Mężczyzna,20,2021-07-13_21h54.11.883,rantool2,2021.1.4,Win32,59.89458553,6066e7e5642c6520dabcdb5b,60d9d14f4a8a35a482e0d9bf,60edef3eee977e4d5a263b78,,,,,,,,,,,,
"[""comma"",""period""]",0,"[0.12519999998806952,1.9408000000119046]",53,0,53,0,1,6066e7e5642c6520dabcdb5b,Mężczyzna,20,2021-07-13_21h54.11.883,rantool2,2021.1.4,Win32,59.89458553,6066e7e5642c6520dabcdb5b,60d9d14f4a8a35a482e0d9bf,60edef3eee977e4d5a263b78,,,,,,,,,,,,
0,0,,54,0,54,0,1,6066e7e5642c6520dabcdb5b,Mężczyzna,20,2021-07-13_21h54.11.883,rantool2,2021.1.4,Win32,59.89458553,6066e7e5642c6520dabcdb5b,60d9d14f4a8a35a482e0d9bf,60edef3eee977e4d5a263b78,,,,,,,,,,,,
"[""comma"",""comma""]",0,"[0.0391000000238364,1.92739999997616]",55,0,55,0,1,6066e7e5642c6520dabcdb5b,Mężczyzna,20,2021-07-13_21h54.11.883,rantool2,2021.1.4,Win32,59.89458553,6066e7e5642c6520dabcdb5b,60d9d14f4a8a35a482e0d9bf,60edef3eee977e4d5a263b78,,,,,,,,,,,,
0,0,,56,0,56,0,1,6066e7e5642c6520dabcdb5b,Mężczyzna,20,2021-07-13_21h54.11.883,rantool2,2021.1.4,Win32,59.89458553,6066e7e5642c6520dabcdb5b,60d9d14f4a8a35a482e0d9bf,60edef3eee977e4d5a263b78,,,,,,,,,,,,
"[""period"",""comma""]",0,"[0.04330000001192502,1.8468000000119105]",57,0,57,0,1,6066e7e5642c6520dabcdb5b,Mężczyzna,20,2021-07-13_21h54.11.883,rantool2,2021.1.4,Win32,59.89458553,6066e7e5642c6520dabcdb5b,60d9d14f4a8a35a482e0d9bf,60edef3eee977e4d5a263b78,,,,,,,,,,,,
"[""period""]",0,[1.877199999988079],58,0,58,0,1,6066e7e5642c6520dabcdb5b,Mężczyzna,20,2021-07-13_21h54.11.883,rantool2,2021.1.4,Win32,59.89458553,6066e7e5642c6520dabcdb5b,60d9d14f4a8a35a482e0d9bf,60edef3eee977e4d5a263b78,,,,,,,,,,,,
0,0,,59,0,59,0,1,6066e7e5642c6520dabcdb5b,Mężczyzna,20,2021-07-13_21h54.11.883,rantool2,2021.1.4,Win32,59.89458553,6066e7e5642c6520dabcdb5b,60d9d14f4a8a35a482e0d9bf,60edef3eee977e4d5a263b78,,,,,,,,,,,,
"[""comma""]",0,[-0.00969999998807225],60,0,60,0,1,6066e7e5642c6520dabcdb5b,Mężczyzna,20,2021-07-13_21h54.11.883,rantool2,2021.1.4,Win32,59.89458553,6066e7e5642c6520dabcdb5b,60d9d14f4a8a35a482e0d9bf,60edef3eee977e4d5a263b78,,,,,,,,,,,,
"[""period""]",0,[0.10180000001193434],61,0,61,0,1,6066e7e5642c6520dabcdb5b,Mężczyzna,20,2021-07-13_21h54.11.883,rantool2,2021.1.4,Win32,59.89458553,6066e7e5642c6520dabcdb5b,60d9d14f4a8a35a482e0d9bf,60edef3eee977e4d5a263b78,,,,,,,,,,,,
"[""comma""]",0,[0.14919999998807043],62,0,62,0,1,6066e7e5642c6520dabcdb5b,Mężczyzna,20,2021-07-13_21h54.11.883,rantool2,2021.1.4,Win32,59.89458553,6066e7e5642c6520dabcdb5b,60d9d14f4a8a35a482e0d9bf,60edef3eee977e4d5a263b78,,,,,,,,,,,,
"[""period""]",0,[0.20130000001191206],63,0,63,0,1,6066e7e5642c6520dabcdb5b,Mężczyzna,20,2021-07-13_21h54.11.883,rantool2,2021.1.4,Win32,59.89458553,6066e7e5642c6520dabcdb5b,60d9d14f4a8a35a482e0d9bf,60edef3eee977e4d5a263b78,,,,,,,,,,,,
"[""period""]",0,[0.12560000002386573],64,0,64,0,1,6066e7e5642c6520dabcdb5b,Mężczyzna,20,2021-07-13_21h54.11.883,rantool2,2021.1.4,Win32,59.89458553,6066e7e5642c6520dabcdb5b,60d9d14f4a8a35a482e0d9bf,60edef3eee977e4d5a263b78,,,,,,,,,,,,
"[""comma"",""period""]",0,"[0.15140000003577825,1.9409000000357537]",65,0,65,0,1,6066e7e5642c6520dabcdb5b,Mężczyzna,20,2021-07-13_21h54.11.883,rantool2,2021.1.4,Win32,59.89458553,6066e7e5642c6520dabcdb5b,60d9d14f4a8a35a482e0d9bf,60edef3eee977e4d5a263b78,,,,,,,,,,,,
0,0,,66,0,66,0,1,6066e7e5642c6520dabcdb5b,Mężczyzna,20,2021-07-13_21h54.11.883,rantool2,2021.1.4,Win32,59.89458553,6066e7e5642c6520dabcdb5b,60d9d14f4a8a35a482e0d9bf,60edef3eee977e4d5a263b78,,,,,,,,,,,,
"[""comma""]",0,[-0.016100000023840266],67,0,67,0,1,6066e7e5642c6520dabcdb5b,Mężczyzna,20,2021-07-13_21h54.11.883,rantool2,2021.1.4,Win32,59.89458553,6066e7e5642c6520dabcdb5b,60d9d14f4a8a35a482e0d9bf,60edef3eee977e4d5a263b78,,,,,,,,,,,,
"[""comma""]",0,[0.017799999952302414],68,0,68,0,1,6066e7e5642c6520dabcdb5b,Mężczyzna,20,2021-07-13_21h54.11.883,rantool2,2021.1.4,Win32,59.89458553,6066e7e5642c6520dabcdb5b,60d9d14f4a8a35a482e0d9bf,60edef3eee977e4d5a263b78,,,,,,,,,,,,
"[""period"",""comma"",""period""]",0,"[-0.008899999976165418,1.7728000000119266,1.8099000000357535]",69,0,69,0,1,6066e7e5642c6520dabcdb5b,Mężczyzna,20,2021-07-13_21h54.11.883,rantool2,2021.1.4,Win32,59.89458553,6066e7e5642c6520dabcdb5b,60d9d14f4a8a35a482e0d9bf,60edef3eee977e4d5a263b78,,,,,,,,,,,,
0,0,,70,0,70,0,1,6066e7e5642c6520dabcdb5b,Mężczyzna,20,2021-07-13_21h54.11.883,rantool2,2021.1.4,Win32,59.89458553,6066e7e5642c6520dabcdb5b,60d9d14f4a8a35a482e0d9bf,60edef3eee977e4d5a263b78,,,,,,,,,,,,
"[""period""]",0,[0.1343999999761536],71,0,71,0,1,6066e7e5642c6520dabcdb5b,Mężczyzna,20,2021-07-13_21h54.11.883,rantool2,2021.1.4,Win32,59.89458553,6066e7e5642c6520dabcdb5b,60d9d14f4a8a35a482e0d9bf,60edef3eee977e4d5a263b78,,,,,,,,,,,,
"[""comma"",""comma""]",0,"[0.04060000002382935,1.9573000000119123]",72,0,72,0,1,6066e7e5642c6520dabcdb5b,Mężczyzna,20,2021-07-13_21h54.11.883,rantool2,2021.1.4,Win32,59.89458553,6066e7e5642c6520dabcdb5b,60d9d14f4a8a35a482e0d9bf,60edef3eee977e4d5a263b78,,,,,,,,,,,,
0,0,,73,0,73,0,1,6066e7e5642c6520dabcdb5b,Mężczyzna,20,2021-07-13_21h54.11.883,rantool2,2021.1.4,Win32,59.89458553,6066e7e5642c6520dabcdb5b,60d9d14f4a8a35a482e0d9bf,60edef3eee977e4d5a263b78,,,,,,,,,,,,
"[""period""]",0,[0.08930000001191729],74,0,74,0,1,6066e7e5642c6520dabcdb5b,Mężczyzna,20,2021-07-13_21h54.11.883,rantool2,2021.1.4,Win32,59.89458553,6066e7e5642c6520dabcdb5b,60d9d14f4a8a35a482e0d9bf,60edef3eee977e4d5a263b78,,,,,,,,,,,,
"[""comma""]",0,[-0.006800000011935481],75,0,75,0,1,6066e7e5642c6520dabcdb5b,Mężczyzna,20,2021-07-13_21h54.11.883,rantool2,2021.1.4,Win32,59.89458553,6066e7e5642c6520dabcdb5b,60d9d14f4a8a35a482e0d9bf,60edef3eee977e4d5a263b78,,,,,,,,,,,,
"[""period"",""comma""]",0,"[0.03450000000000841,1.9313999999761506]",76,0,76,0,1,6066e7e5642c6520dabcdb5b,Mężczyzna,20,2021-07-13_21h54.11.883,rantool2,2021.1.4,Win32,59.89458553,6066e7e5642c6520dabcdb5b,60d9d14f4a8a35a482e0d9bf,60edef3eee977e4d5a263b78,,,,,,,,,,,,
"[""period""]",0,[1.887899999976156],77,0,77,0,1,6066e7e5642c6520dabcdb5b,Mężczyzna,20,2021-07-13_21h54.11.883,rantool2,2021.1.4,Win32,59.89458553,6066e7e5642c6520dabcdb5b,60d9d14f4a8a35a482e0d9bf,60edef3eee977e4d5a263b78,,,,,,,,,,,,
"[""period""]",0,[1.839800000011934],78,0,78,0,1,6066e7e5642c6520dabcdb5b,Mężczyzna,20,2021-07-13_21h54.11.883,rantool2,2021.1.4,Win32,59.89458553,6066e7e5642c6520dabcdb5b,60d9d14f4a8a35a482e0d9bf,60edef3eee977e4d5a263b78,,,,,,,,,,,,
"[""period""]",0,[1.95980000001191],79,0,79,0,1,6066e7e5642c6520dabcdb5b,Mężczyzna,20,2021-07-13_21h54.11.883,rantool2,2021.1.4,Win32,59.89458553,6066e7e5642c6520dabcdb5b,60d9d14f4a8a35a482e0d9bf,60edef3eee977e4d5a263b78,,,,,,,,,,,,
"[""comma""]",0,[1.9503000000119073],80,0,80,0,1,6066e7e5642c6520dabcdb5b,Mężczyzna,20,2021-07-13_21h54.11.883,rantool2,2021.1.4,Win32,59.89458553,6066e7e5642c6520dabcdb5b,60d9d14f4a8a35a482e0d9bf,60edef3eee977e4d5a263b78,,,,,,,,,,,,
"[""comma""]",0,[1.9357000000476887],81,0,81,0,1,6066e7e5642c6520dabcdb5b,Mężczyzna,20,2021-07-13_21h54.11.883,rantool2,2021.1.4,Win32,59.89458553,6066e7e5642c6520dabcdb5b,60d9d14f4a8a35a482e0d9bf,60edef3eee977e4d5a263b78,,,,,,,,,,,,
0,0,,82,0,82,0,1,6066e7e5642c6520dabcdb5b,Mężczyzna,20,2021-07-13_21h54.11.883,rantool2,2021.1.4,Win32,59.89458553,6066e7e5642c6520dabcdb5b,60d9d14f4a8a35a482e0d9bf,60edef3eee977e4d5a263b78,,,,,,,,,,,,
"[""period""]",0,[0.0058999999761510935],83,0,83,0,1,6066e7e5642c6520dabcdb5b,Mężczyzna,20,2021-07-13_21h54.11.883,rantool2,2021.1.4,Win32,59.89458553,6066e7e5642c6520dabcdb5b,60d9d14f4a8a35a482e0d9bf,60edef3eee977e4d5a263b78,,,,,,,,,,,,
"[""comma""]",0,[0.005599999964232438],84,0,84,0,1,6066e7e5642c6520dabcdb5b,Mężczyzna,20,2021-07-13_21h54.11.883,rantool2,2021.1.4,Win32,59.89458553,6066e7e5642c6520dabcdb5b,60d9d14f4a8a35a482e0d9bf,60edef3eee977e4d5a263b78,,,,,,,,,,,,
"[""period""]",0,[0.016800000011926386],85,0,85,0,1,6066e7e5642c6520dabcdb5b,Mężczyzna,20,2021-07-13_21h54.11.883,rantool2,2021.1.4,Win32,59.89458553,6066e7e5642c6520dabcdb5b,60d9d14f4a8a35a482e0d9bf,60edef3eee977e4d5a263b78,,,,,,,,,,,,
"[""period""]",0,[0.03830000001192957],86,0,86,0,1,6066e7e5642c6520dabcdb5b,Mężczyzna,20,2021-07-13_21h54.11.883,rantool2,2021.1.4,Win32,59.89458553,6066e7e5642c6520dabcdb5b,60d9d14f4a8a35a482e0d9bf,60edef3eee977e4d5a263b78,,,,,,,,,,,,
"[""comma"",""comma""]",0,"[-0.01580000001192161,1.9563000000119075]",87,0,87,0,1,6066e7e5642c6520dabcdb5b,Mężczyzna,20,2021-07-13_21h54.11.883,rantool2,2021.1.4,Win32,59.89458553,6066e7e5642c6520dabcdb5b,60d9d14f4a8a35a482e0d9bf,60edef3eee977e4d5a263b78,,,,,,,,,,,,
0,0,,88,0,88,0,1,6066e7e5642c6520dabcdb5b,Mężczyzna,20,2021-07-13_21h54.11.883,rantool2,2021.1.4,Win32,59.89458553,6066e7e5642c6520dabcdb5b,60d9d14f4a8a35a482e0d9bf,60edef3eee977e4d5a263b78,,,,,,,,,,,,
"[""comma""]",0,[0.5394000000357551],89,0,89,0,1,6066e7e5642c6520dabcdb5b,Mężczyzna,20,2021-07-13_21h54.11.883,rantool2,2021.1.4,Win32,59.89458553,6066e7e5642c6520dabcdb5b,60d9d14f4a8a35a482e0d9bf,60edef3eee977e4d5a263b78,,,,,,,,,,,,
"[""period""]",0,[0.310100000023823],90,0,90,0,1,6066e7e5642c6520dabcdb5b,Mężczyzna,20,2021-07-13_21h54.11.883,rantool2,2021.1.4,Win32,59.89458553,6066e7e5642c6520dabcdb5b,60d9d14f4a8a35a482e0d9bf,60edef3eee977e4d5a263b78,,,,,,,,,,,,
"[""period""]",0,[0.03419999998808976],91,0,91,0,1,6066e7e5642c6520dabcdb5b,Mężczyzna,20,2021-07-13_21h54.11.883,rantool2,2021.1.4,Win32,59.89458553,6066e7e5642c6520dabcdb5b,60d9d14f4a8a35a482e0d9bf,60edef3eee977e4d5a263b78,,,,,,,,,,,,
"[""comma""]",0,[-0.017200000047665753],92,0,92,0,1,6066e7e5642c6520dabcdb5b,Mężczyzna,20,2021-07-13_21h54.11.883,rantool2,2021.1.4,Win32,59.89458553,6066e7e5642c6520dabcdb5b,60d9d14f4a8a35a482e0d9bf,60edef3eee977e4d5a263b78,,,,,,,,,,,,
"[""comma""]",0,[0.033999999999991815],93,0,93,0,1,6066e7e5642c6520dabcdb5b,Mężczyzna,20,2021-07-13_21h54.11.883,rantool2,2021.1.4,Win32,59.89458553,6066e7e5642c6520dabcdb5b,60d9d14f4a8a35a482e0d9bf,60edef3eee977e4d5a263b78,,,,,,,,,,,,
"[""comma""]",0,[0.3079000000357439],94,0,94,0,1,6066e7e5642c6520dabcdb5b,Mężczyzna,20,2021-07-13_21h54.11.883,rantool2,2021.1.4,Win32,59.89458553,6066e7e5642c6520dabcdb5b,60d9d14f4a8a35a482e0d9bf,60edef3eee977e4d5a263b78,,,,,,,,,,,,
"[""comma""]",0,[0.2733000000119148],95,0,95,0,1,6066e7e5642c6520dabcdb5b,Mężczyzna,20,2021-07-13_21h54.11.883,rantool2,2021.1.4,Win32,59.89458553,6066e7e5642c6520dabcdb5b,60d9d14f4a8a35a482e0d9bf,60edef3eee977e4d5a263b78,,,,,,,,,,,,
"[""comma"",""period""]",0,"[0.1518999999761661,1.9376000000238491]",96,0,96,0,1,6066e7e5642c6520dabcdb5b,Mężczyzna,20,2021-07-13_21h54.11.883,rantool2,2021.1.4,Win32,59.89458553,6066e7e5642c6520dabcdb5b,60d9d14f4a8a35a482e0d9bf,60edef3eee977e4d5a263b78,,,,,,,,,,,,
"[""comma""]",0,[1.945999999999998],97,0,97,0,1,6066e7e5642c6520dabcdb5b,Mężczyzna,20,2021-07-13_21h54.11.883,rantool2,2021.1.4,Win32,59.89458553,6066e7e5642c6520dabcdb5b,60d9d14f4a8a35a482e0d9bf,60edef3eee977e4d5a263b78,,,,,,,,,,,,
0,0,,98,0,98,0,1,6066e7e5642c6520dabcdb5b,Mężczyzna,20,2021-07-13_21h54.11.883,rantool2,2021.1.4,Win32,59.89458553,6066e7e5642c6520dabcdb5b,60d9d14f4a8a35a482e0d9bf,60edef3eee977e4d5a263b78,,,,,,,,,,,,
"[""period""]",0,[0.05060000002384868],99,0,99,0,1,6066e7e5642c6520dabcdb5b,Mężczyzna,20,2021-07-13_21h54.11.883,rantool2,2021.1.4,Win32,59.89458553,6066e7e5642c6520dabcdb5b,60d9d14f4a8a35a482e0d9bf,60edef3eee977e4d5a263b78,,,,,,,,,,,,
"[""comma""]",0,[0.01719999998806543],100,0,100,0,1,6066e7e5642c6520dabcdb5b,Mężczyzna,20,2021-07-13_21h54.11.883,rantool2,2021.1.4,Win32,59.89458553,6066e7e5642c6520dabcdb5b,60d9d14f4a8a35a482e0d9bf,60edef3eee977e4d5a263b78,,,,,,,,,,,,
"[""period"",""period""]",0,"[0.03760000002384345,1.9803000000119368]",101,0,101,0,1,6066e7e5642c6520dabcdb5b,Mężczyzna,20,2021-07-13_21h54.11.883,rantool2,2021.1.4,Win32,59.89458553,6066e7e5642c6520dabcdb5b,60d9d14f4a8a35a482e0d9bf,60edef3eee977e4d5a263b78,,,,,,,,,,,,
"[""period""]",0,[1.769199999988075],102,0,102,0,1,6066e7e5642c6520dabcdb5b,Mężczyzna,20,2021-07-13_21h54.11.883,rantool2,2021.1.4,Win32,59.89458553,6066e7e5642c6520dabcdb5b,60d9d14f4a8a35a482e0d9bf,60edef3eee977e4d5a263b78,,,,,,,,,,,,
"[""period""]",0,[1.9411000000238516],103,0,103,0,1,6066e7e5642c6520dabcdb5b,Mężczyzna,20,2021-07-13_21h54.11.883,rantool2,2021.1.4,Win32,59.89458553,6066e7e5642c6520dabcdb5b,60d9d14f4a8a35a482e0d9bf,60edef3eee977e4d5a263b78,,,,,,,,,,,,
"[""comma""]",0,[1.9043999999761638],104,0,104,0,1,6066e7e5642c6520dabcdb5b,Mężczyzna,20,2021-07-13_21h54.11.883,rantool2,2021.1.4,Win32,59.89458553,6066e7e5642c6520dabcdb5b,60d9d14f4a8a35a482e0d9bf,60edef3eee977e4d5a263b78,,,,,,,,,,,,
"[""comma""]",0,[1.8389000000357782],105,0,105,0,1,6066e7e5642c6520dabcdb5b,Mężczyzna,20,2021-07-13_21h54.11.883,rantool2,2021.1.4,Win32,59.89458553,6066e7e5642c6520dabcdb5b,60d9d14f4a8a35a482e0d9bf,60edef3eee977e4d5a263b78,,,,,,,,,,,,
0,0,,106,0,106,0,1,6066e7e5642c6520dabcdb5b,Mężczyzna,20,2021-07-13_21h54.11.883,rantool2,2021.1.4,Win32,59.89458553,6066e7e5642c6520dabcdb5b,60d9d14f4a8a35a482e0d9bf,60edef3eee977e4d5a263b78,,,,,,,,,,,,
"[""comma"",""comma""]",0,"[0.1343000000119332,0.7027000000476846]",107,0,107,0,1,6066e7e5642c6520dabcdb5b,Mężczyzna,20,2021-07-13_21h54.11.883,rantool2,2021.1.4,Win32,59.89458553,6066e7e5642c6520dabcdb5b,60d9d14f4a8a35a482e0d9bf,60edef3eee977e4d5a263b78,,,,,,,,,,,,
"[""period"",""comma""]",0,"[0.05410000002385118,1.9241999999881045]",108,0,108,0,1,6066e7e5642c6520dabcdb5b,Mężczyzna,20,2021-07-13_21h54.11.883,rantool2,2021.1.4,Win32,59.89458553,6066e7e5642c6520dabcdb5b,60d9d14f4a8a35a482e0d9bf,60edef3eee977e4d5a263b78,,,,,,,,,,,,
0,0,,109,0,109,0,1,6066e7e5642c6520dabcdb5b,Mężczyzna,20,2021-07-13_21h54.11.883,rantool2,2021.1.4,Win32,59.89458553,6066e7e5642c6520dabcdb5b,60d9d14f4a8a35a482e0d9bf,60edef3eee977e4d5a263b78,,,,,,,,,,,,
"[""period""]",0,[0.054400000035741414],110,0,110,0,1,6066e7e5642c6520dabcdb5b,Mężczyzna,20,2021-07-13_21h54.11.883,rantool2,2021.1.4,Win32,59.89458553,6066e7e5642c6520dabcdb5b,60d9d14f4a8a35a482e0d9bf,60edef3eee977e4d5a263b78,,,,,,,,,,,,
"[""comma""]",0,[0.21870000004770418],111,0,111,0,1,6066e7e5642c6520dabcdb5b,Mężczyzna,20,2021-07-13_21h54.11.883,rantool2,2021.1.4,Win32,59.89458553,6066e7e5642c6520dabcdb5b,60d9d14f4a8a35a482e0d9bf,60edef3eee977e4d5a263b78,,,,,,,,,,,,
"[""period"",""period""]",0,"[0.02680000001191729,1.9591000000238523]",112,0,112,0,1,6066e7e5642c6520dabcdb5b,Mężczyzna,20,2021-07-13_21h54.11.883,rantool2,2021.1.4,Win32,59.89458553,6066e7e5642c6520dabcdb5b,60d9d14f4a8a35a482e0d9bf,60edef3eee977e4d5a263b78,,,,,,,,,,,,
0,0,,113,0,113,0,1,6066e7e5642c6520dabcdb5b,Mężczyzna,20,2021-07-13_21h54.11.883,rantool2,2021.1.4,Win32,59.89458553,6066e7e5642c6520dabcdb5b,60d9d14f4a8a35a482e0d9bf,60edef3eee977e4d5a263b78,,,,,,,,,,,,
"[""period""]",0,[0.10349999999999682],114,0,114,0,1,6066e7e5642c6520dabcdb5b,Mężczyzna,20,2021-07-13_21h54.11.883,rantool2,2021.1.4,Win32,59.89458553,6066e7e5642c6520dabcdb5b,60d9d14f4a8a35a482e0d9bf,60edef3eee977e4d5a263b78,,,,,,,,,,,,
"[""period""]",0,[0.03149999999999409],115,0,115,0,1,6066e7e5642c6520dabcdb5b,Mężczyzna,20,2021-07-13_21h54.11.883,rantool2,2021.1.4,Win32,59.89458553,6066e7e5642c6520dabcdb5b,60d9d14f4a8a35a482e0d9bf,60edef3eee977e4d5a263b78,,,,,,,,,,,,
"[""comma"",""comma""]",0,"[0.044199999988109084,1.9783999999762045]",116,0,116,0,1,6066e7e5642c6520dabcdb5b,Mężczyzna,20,2021-07-13_21h54.11.883,rantool2,2021.1.4,Win32,59.89458553,6066e7e5642c6520dabcdb5b,60d9d14f4a8a35a482e0d9bf,60edef3eee977e4d5a263b78,,,,,,,,,,,,
"[""comma""]",0,[1.8315000000000055],117,0,117,0,1,6066e7e5642c6520dabcdb5b,Mężczyzna,20,2021-07-13_21h54.11.883,rantool2,2021.1.4,Win32,59.89458553,6066e7e5642c6520dabcdb5b,60d9d14f4a8a35a482e0d9bf,60edef3eee977e4d5a263b78,,,,,,,,,,,,
0,0,,118,0,118,0,1,6066e7e5642c6520dabcdb5b,Mężczyzna,20,2021-07-13_21h54.11.883,rantool2,2021.1.4,Win32,59.89458553,6066e7e5642c6520dabcdb5b,60d9d14f4a8a35a482e0d9bf,60edef3eee977e4d5a263b78,,,,,,,,,,,,
"[""comma""]",0,[0.19339999997617952],119,0,119,0,1,6066e7e5642c6520dabcdb5b,Mężczyzna,20,2021-07-13_21h54.11.883,rantool2,2021.1.4,Win32,59.89458553,6066e7e5642c6520dabcdb5b,60d9d14f4a8a35a482e0d9bf,60edef3eee977e4d5a263b78,,,,,,,,,,,,
,,,,,,,,6066e7e5642c6520dabcdb5b,Mężczyzna,20,2021-07-13_21h54.11.883,rantool2,2021.1.4,Win32,59.89458553,6066e7e5642c6520dabcdb5b,60d9d14f4a8a35a482e0d9bf,60edef3eee977e4d5a263b78,j,1.8767,0,0,0,20,1,OROROOO,OROROOR,21.31236711,21.90565814,series_1
,,,,,,,,6066e7e5642c6520dabcdb5b,Mężczyzna,20,2021-07-13_21h54.11.883,rantool2,2021.1.4,Win32,59.89458553,6066e7e5642c6520dabcdb5b,60d9d14f4a8a35a482e0d9bf,60edef3eee977e4d5a263b78,f,1.6383,0,1,1,11,1,OORORRO,OORORRR,22.18365867,22.6797523,series_1
,,,,,,,,6066e7e5642c6520dabcdb5b,Mężczyzna,20,2021-07-13_21h54.11.883,rantool2,2021.1.4,Win32,59.89458553,6066e7e5642c6520dabcdb5b,60d9d14f4a8a35a482e0d9bf,60edef3eee977e4d5a263b78,j,1.8212,0,2,2,44,1,RORROOO,RORROOR,21.66733484,22.02566557,series_1
,,,,,,,,6066e7e5642c6520dabcdb5b,Mężczyzna,20,2021-07-13_21h54.11.883,rantool2,2021.1.4,Win32,59.89458553,6066e7e5642c6520dabcdb5b,60d9d14f4a8a35a482e0d9bf,60edef3eee977e4d5a263b78,j,1.5793,0,3,3,33,1,ROOOORO,ROOOORR,20.83779602,22.03072203,series_1
,,,,,,,,6066e7e5642c6520dabcdb5b,Mężczyzna,20,2021-07-13_21h54.11.883,rantool2,2021.1.4,Win32,59.89458553,6066e7e5642c6520dabcdb5b,60d9d14f4a8a35a482e0d9bf,60edef3eee977e4d5a263b78,f,1.8209,0,4,4,25,1,ORROORO,ORROORR,21.79500819,22.61624387,series_1
,,,,,,,,6066e7e5642c6520dabcdb5b,Mężczyzna,20,2021-07-13_21h54.11.883,rantool2,2021.1.4,Win32,59.89458553,6066e7e5642c6520dabcdb5b,60d9d14f4a8a35a482e0d9bf,60edef3eee977e4d5a263b78,f,2.094,0,5,5,24,1,ORROOOO,ORROOOR,21.12383932,22.07102821,series_1
,,,,,,,,6066e7e5642c6520dabcdb5b,Mężczyzna,20,2021-07-13_21h54.11.883,rantool2,2021.1.4,Win32,59.89458553,6066e7e5642c6520dabcdb5b,60d9d14f4a8a35a482e0d9bf,60edef3eee977e4d5a263b78,j,1.6108,0,6,6,38,1,ROORROO,ROORROR,21.79500819,21.36812781,series_0
,,,,,,,,6066e7e5642c6520dabcdb5b,Mężczyzna,20,2021-07-13_21h54.11.883,rantool2,2021.1.4,Win32,59.89458553,6066e7e5642c6520dabcdb5b,60d9d14f4a8a35a482e0d9bf,60edef3eee977e4d5a263b78,f,2.7083,0,7,7,62,1,RRRRROO,RRRRROR,22.16413392,21.27974287,series_0
,,,,,,,,6066e7e5642c6520dabcdb5b,Mężczyzna,20,2021-07-13_21h54.11.883,rantool2,2021.1.4,Win32,59.89458553,6066e7e5642c6520dabcdb5b,60d9d14f4a8a35a482e0d9bf,60edef3eee977e4d5a263b78,j,1.6707,0,8,8,26,1,ORROROO,ORROROR,22.02732763,21.71443381,series_0
,,,,,,,,6066e7e5642c6520dabcdb5b,Mężczyzna,20,2021-07-13_21h54.11.883,rantool2,2021.1.4,Win32,59.89458553,6066e7e5642c6520dabcdb5b,60d9d14f4a8a35a482e0d9bf,60edef3eee977e4d5a263b78,f,2.0723,0,9,9,50,1,RROOROO,RROOROR,21.73568164,22.02566557,series_1
,,,,,,,,6066e7e5642c6520dabcdb5b,Mężczyzna,20,2021-07-13_21h54.11.883,rantool2,2021.1.4,Win32,59.89458553,6066e7e5642c6520dabcdb5b,60d9d14f4a8a35a482e0d9bf,60edef3eee977e4d5a263b78,j,1.922,0,10,10,45,1,RORRORO,RORRORR,20.78182524,21.22513037,series_1
,,,,,,,,6066e7e5642c6520dabcdb5b,Mężczyzna,20,2021-07-13_21h54.11.883,rantool2,2021.1.4,Win32,59.89458553,6066e7e5642c6520dabcdb5b,60d9d14f4a8a35a482e0d9bf,60edef3eee977e4d5a263b78,f,2.3761,0,11,11,35,1,ROOORRO,ROOORRR,21.76276513,22.16977179,series_1
,,,,,,,,6066e7e5642c6520dabcdb5b,Mężczyzna,20,2021-07-13_21h54.11.883,rantool2,2021.1.4,Win32,59.89458553,6066e7e5642c6520dabcdb5b,60d9d14f4a8a35a482e0d9bf,60edef3eee977e4d5a263b78,j,1.806,0,12,12,42,1,ROROROO,ROROROR,20.39515459,19.8361834,series_0
,,,,,,,,6066e7e5642c6520dabcdb5b,Mężczyzna,20,2021-07-13_21h54.11.883,rantool2,2021.1.4,Win32,59.89458553,6066e7e5642c6520dabcdb5b,60d9d14f4a8a35a482e0d9bf,60edef3eee977e4d5a263b78,f,2.5036,0,13,13,27,1,ORRORRO,ORRORRR,21.55250791,22.2428857,series_1
,,,,,,,,6066e7e5642c6520dabcdb5b,Mężczyzna,20,2021-07-13_21h54.11.883,rantool2,2021.1.4,Win32,59.89458553,6066e7e5642c6520dabcdb5b,60d9d14f4a8a35a482e0d9bf,60edef3eee977e4d5a263b78,j,2.0903,0,14,14,12,1,OORROOO,OORROOR,21.30250474,22.02786418,series_1
,,,,,,,,6066e7e5642c6520dabcdb5b,Mężczyzna,20,2021-07-13_21h54.11.883,rantool2,2021.1.4,Win32,59.89458553,6066e7e5642c6520dabcdb5b,60d9d14f4a8a35a482e0d9bf,60edef3eee977e4d5a263b78,f,2.6772,0,15,15,28,1,ORRROOO,ORRROOR,22.24142883,22.53364006,series_1
,,,,,,,,6066e7e5642c6520dabcdb5b,Mężczyzna,20,2021-07-13_21h54.11.883,rantool2,2021.1.4,Win32,59.89458553,6066e7e5642c6520dabcdb5b,60d9d14f4a8a35a482e0d9bf,60edef3eee977e4d5a263b78,j,1.0998,0,16,16,23,1,ORORRRO,ORORRRR,22.1285618,21.9921709,series_0
,,,,,,,,6066e7e5642c6520dabcdb5b,Mężczyzna,20,2021-07-13_21h54.11.883,rantool2,2021.1.4,Win32,59.89458553,6066e7e5642c6520dabcdb5b,60d9d14f4a8a35a482e0d9bf,60edef3eee977e4d5a263b78,f,1.1936,0,17,17,8,1,OOROOOO,OOROOOR,19.91402015,20.89823192,series_1
,,,,,,,,6066e7e5642c6520dabcdb5b,Mężczyzna,20,2021-07-13_21h54.11.883,rantool2,2021.1.4,Win32,59.89458553,6066e7e5642c6520dabcdb5b,60d9d14f4a8a35a482e0d9bf,60edef3eee977e4d5a263b78,j,1.1282,0,18,18,29,1,ORRRORO,ORRRORR,22.00300695,22.12173012,series_1
,,,,,,,,6066e7e5642c6520dabcdb5b,Mężczyzna,20,2021-07-13_21h54.11.883,rantool2,2021.1.4,Win32,59.89458553,6066e7e5642c6520dabcdb5b,60d9d14f4a8a35a482e0d9bf,60edef3eee977e4d5a263b78,j,1.0874,0,19,19,30,1,ORRRROO,ORRRROR,22.46748491,22.03072203,series_0
,,,,,,,,6066e7e5642c6520dabcdb5b,Mężczyzna,20,2021-07-13_21h54.11.883,rantool2,2021.1.4,Win32,59.89458553,6066e7e5642c6520dabcdb5b,60d9d14f4a8a35a482e0d9bf,60edef3eee977e4d5a263b78,f,0.8903,0,20,20,39,1,ROORRRO,ROORRRR,21.82425538,21.38562617,series_0
,,,,,,,,6066e7e5642c6520dabcdb5b,Mężczyzna,20,2021-07-13_21h54.11.883,rantool2,2021.1.4,Win32,59.89458553,6066e7e5642c6520dabcdb5b,60d9d14f4a8a35a482e0d9bf,60edef3eee977e4d5a263b78,f,1.4803,0,21,21,52,1,RROROOO,RROROOR,22.18365867,22.11097995,series_0
,,,,,,,,6066e7e5642c6520dabcdb5b,Mężczyzna,20,2021-07-13_21h54.11.883,rantool2,2021.1.4,Win32,59.89458553,6066e7e5642c6520dabcdb5b,60d9d14f4a8a35a482e0d9bf,60edef3eee977e4d5a263b78,j,1.1387,0,22,22,18,1,OROOROO,OROOROR,20.84860893,21.22513037,series_1
,,,,,,,,6066e7e5642c6520dabcdb5b,Mężczyzna,20,2021-07-13_21h54.11.883,rantool2,2021.1.4,Win32,59.89458553,6066e7e5642c6520dabcdb5b,60d9d14f4a8a35a482e0d9bf,60edef3eee977e4d5a263b78,f,1.0258,0,23,23,58,1,RRROROO,RRROROR,22.1285618,21.37121559,series_0
,,,,,,,,6066e7e5642c6520dabcdb5b,Mężczyzna,20,2021-07-13_21h54.11.883,rantool2,2021.1.4,Win32,59.89458553,6066e7e5642c6520dabcdb5b,60d9d14f4a8a35a482e0d9bf,60edef3eee977e4d5a263b78,j,2.0076,0,24,24,37,1,ROORORO,ROORORR,20.42602454,21.57657071,series_1
,,,,,,,,6066e7e5642c6520dabcdb5b,Mężczyzna,20,2021-07-13_21h54.11.883,rantool2,2021.1.4,Win32,59.89458553,6066e7e5642c6520dabcdb5b,60d9d14f4a8a35a482e0d9bf,60edef3eee977e4d5a263b78,f,1.528,0,25,25,14,1,OORRROO,OORRROR,22.24142883,22.16977179,series_0
,,,,,,,,6066e7e5642c6520dabcdb5b,Mężczyzna,20,2021-07-13_21h54.11.883,rantool2,2021.1.4,Win32,59.89458553,6066e7e5642c6520dabcdb5b,60d9d14f4a8a35a482e0d9bf,60edef3eee977e4d5a263b78,j,1.6205,0,26,26,61,1,RRRRORO,RRRRORR,21.81333602,21.17347734,series_0
,,,,,,,,6066e7e5642c6520dabcdb5b,Mężczyzna,20,2021-07-13_21h54.11.883,rantool2,2021.1.4,Win32,59.89458553,6066e7e5642c6520dabcdb5b,60d9d14f4a8a35a482e0d9bf,60edef3eee977e4d5a263b78,f,1.1024,0,27,27,49,1,RROOORO,RROOORR,21.76276513,22.53364006,series_1
,,,,,,,,6066e7e5642c6520dabcdb5b,Mężczyzna,20,2021-07-13_21h54.11.883,rantool2,2021.1.4,Win32,59.89458553,6066e7e5642c6520dabcdb5b,60d9d14f4a8a35a482e0d9bf,60edef3eee977e4d5a263b78,j,1.6434,0,28,28,15,1,OORRRRO,OORRRRR,22.10108823,21.74922619,series_0
,,,,,,,,6066e7e5642c6520dabcdb5b,Mężczyzna,20,2021-07-13_21h54.11.883,rantool2,2021.1.4,Win32,59.89458553,6066e7e5642c6520dabcdb5b,60d9d14f4a8a35a482e0d9bf,60edef3eee977e4d5a263b78,f,1.7157,0,29,29,3,1,OOOORRO,OOOORRR,20.90986523,21.74922619,series_1
,,,,,,,,6066e7e5642c6520dabcdb5b,Mężczyzna,20,2021-07-13_21h54.11.883,rantool2,2021.1.4,Win32,59.89458553,6066e7e5642c6520dabcdb5b,60d9d14f4a8a35a482e0d9bf,60edef3eee977e4d5a263b78,j,1.3361,0,30,30,59,1,RRRORRO,RRRORRR,21.56657303,20.89823192,series_0
,,,,,,,,6066e7e5642c6520dabcdb5b,Mężczyzna,20,2021-07-13_21h54.11.883,rantool2,2021.1.4,Win32,59.89458553,6066e7e5642c6520dabcdb5b,60d9d14f4a8a35a482e0d9bf,60edef3eee977e4d5a263b78,f,1.2382,0,31,31,48,1,RROOOOO,RROOOOR,20.90986523,22.15934078,series_1
,,,,,,,,6066e7e5642c6520dabcdb5b,Mężczyzna,20,2021-07-13_21h54.11.883,rantool2,2021.1.4,Win32,59.89458553,6066e7e5642c6520dabcdb5b,60d9d14f4a8a35a482e0d9bf,60edef3eee977e4d5a263b78,j,1.337,0,32,32,19,1,OROORRO,OROORRR,21.73568164,22.11181017,series_1
,,,,,,,,6066e7e5642c6520dabcdb5b,Mężczyzna,20,2021-07-13_21h54.11.883,rantool2,2021.1.4,Win32,59.89458553,6066e7e5642c6520dabcdb5b,60d9d14f4a8a35a482e0d9bf,60edef3eee977e4d5a263b78,f,1.0585,0,33,33,46,1,RORRROO,RORRROR,22.00300695,21.24781509,series_0
,,,,,,,,6066e7e5642c6520dabcdb5b,Mężczyzna,20,2021-07-13_21h54.11.883,rantool2,2021.1.4,Win32,59.89458553,6066e7e5642c6520dabcdb5b,60d9d14f4a8a35a482e0d9bf,60edef3eee977e4d5a263b78,j,1.4444,0,34,34,40,1,ROROOOO,ROROOOR,20.87963819,21.37121559,series_1
,,,,,,,,6066e7e5642c6520dabcdb5b,Mężczyzna,20,2021-07-13_21h54.11.883,rantool2,2021.1.4,Win32,59.89458553,6066e7e5642c6520dabcdb5b,60d9d14f4a8a35a482e0d9bf,60edef3eee977e4d5a263b78,f,1.3854,0,35,35,10,1,OOROROO,OOROROR,21.31236711,21.07490964,series_0
,,,,,,,,6066e7e5642c6520dabcdb5b,Mężczyzna,20,2021-07-13_21h54.11.883,rantool2,2021.1.4,Win32,59.89458553,6066e7e5642c6520dabcdb5b,60d9d14f4a8a35a482e0d9bf,60edef3eee977e4d5a263b78,j,1.2866,0,36,36,57,1,RRROORO,RRROORR,21.82425538,22.07102821,series_1
,,,,,,,,6066e7e5642c6520dabcdb5b,Mężczyzna,20,2021-07-13_21h54.11.883,rantool2,2021.1.4,Win32,59.89458553,6066e7e5642c6520dabcdb5b,60d9d14f4a8a35a482e0d9bf,60edef3eee977e4d5a263b78,f,1.3459,0,37,37,9,1,OOROORO,OOROORR,21.07991943,22.2428857,series_1
,,,,,,,,6066e7e5642c6520dabcdb5b,Mężczyzna,20,2021-07-13_21h54.11.883,rantool2,2021.1.4,Win32,59.89458553,6066e7e5642c6520dabcdb5b,60d9d14f4a8a35a482e0d9bf,60edef3eee977e4d5a263b78,j,1.0387,0,38,38,36,1,ROOROOO,ROOROOR,21.07991943,20.9984461,series_0
,,,,,,,,6066e7e5642c6520dabcdb5b,Mężczyzna,20,2021-07-13_21h54.11.883,rantool2,2021.1.4,Win32,59.89458553,6066e7e5642c6520dabcdb5b,60d9d14f4a8a35a482e0d9bf,60edef3eee977e4d5a263b78,f,1.2707,0,39,39,47,1,RORRRRO,RORRRRR,21.81333602,21.02936224,series_0
,,,,,,,,6066e7e5642c6520dabcdb5b,Mężczyzna,20,2021-07-13_21h54.11.883,rantool2,2021.1.4,Win32,59.89458553,6066e7e5642c6520dabcdb5b,60d9d14f4a8a35a482e0d9bf,60edef3eee977e4d5a263b78,j,0.9077,0,40,40,21,1,ORORORO,ORORORR,20.39515459,22.06781359,series_1
,,,,,,,,6066e7e5642c6520dabcdb5b,Mężczyzna,20,2021-07-13_21h54.11.883,rantool2,2021.1.4,Win32,59.89458553,6066e7e5642c6520dabcdb5b,60d9d14f4a8a35a482e0d9bf,60edef3eee977e4d5a263b78,f,1.0025,0,41,41,4,1,OOOROOO,OOOROOR,19.91402015,21.21223021,series_1
,,,,,,,,6066e7e5642c6520dabcdb5b,Mężczyzna,20,2021-07-13_21h54.11.883,rantool2,2021.1.4,Win32,59.89458553,6066e7e5642c6520dabcdb5b,60d9d14f4a8a35a482e0d9bf,60edef3eee977e4d5a263b78,j,1.0861,0,42,42,7,1,OOORRRO,OOORRRR,21.6194508,21.899017,series_1
,,,,,,,,6066e7e5642c6520dabcdb5b,Mężczyzna,20,2021-07-13_21h54.11.883,rantool2,2021.1.4,Win32,59.89458553,6066e7e5642c6520dabcdb5b,60d9d14f4a8a35a482e0d9bf,60edef3eee977e4d5a263b78,j,1.2054,0,43,43,34,1,ROOOROO,ROOOROR,21.03750787,21.24781509,series_1
,,,,,,,,6066e7e5642c6520dabcdb5b,Mężczyzna,20,2021-07-13_21h54.11.883,rantool2,2021.1.4,Win32,59.89458553,6066e7e5642c6520dabcdb5b,60d9d14f4a8a35a482e0d9bf,60edef3eee977e4d5a263b78,j,1.204,0,44,44,2,1,OOOOROO,OOOOROR,20.43051175,21.02936224,series_1
,,,,,,,,6066e7e5642c6520dabcdb5b,Mężczyzna,20,2021-07-13_21h54.11.883,rantool2,2021.1.4,Win32,59.89458553,6066e7e5642c6520dabcdb5b,60d9d14f4a8a35a482e0d9bf,60edef3eee977e4d5a263b78,f,1.2543,0,45,45,31,1,ORRRRRO,ORRRRRR,22.16413392,20.74050628,series_0
,,,,,,,,6066e7e5642c6520dabcdb5b,Mężczyzna,20,2021-07-13_21h54.11.883,rantool2,2021.1.4,Win32,59.89458553,6066e7e5642c6520dabcdb5b,60d9d14f4a8a35a482e0d9bf,60edef3eee977e4d5a263b78,j,1.2877,0,46,46,1,1,OOOOORO,OOOOORR,19.92253567,20.74050628,series_1
,,,,,,,,6066e7e5642c6520dabcdb5b,Mężczyzna,20,2021-07-13_21h54.11.883,rantool2,2021.1.4,Win32,59.89458553,6066e7e5642c6520dabcdb5b,60d9d14f4a8a35a482e0d9bf,60edef3eee977e4d5a263b78,f,1.0197,0,47,47,6,1,OOORROO,OOORROR,21.12383932,21.38562617,series_1
,,,,,,,,6066e7e5642c6520dabcdb5b,Mężczyzna,20,2021-07-13_21h54.11.883,rantool2,2021.1.4,Win32,59.89458553,6066e7e5642c6520dabcdb5b,60d9d14f4a8a35a482e0d9bf,60edef3eee977e4d5a263b78,j,0.9025,0,48,48,32,1,ROOOOOO,ROOOOOR,19.92253567,21.27974287,series_1
,,,,,,,,6066e7e5642c6520dabcdb5b,Mężczyzna,20,2021-07-13_21h54.11.883,rantool2,2021.1.4,Win32,59.89458553,6066e7e5642c6520dabcdb5b,60d9d14f4a8a35a482e0d9bf,60edef3eee977e4d5a263b78,f,1.3237,0,49,49,16,1,OROOOOO,OROOOOR,20.43051175,21.17347734,series_1
,,,,,,,,6066e7e5642c6520dabcdb5b,Mężczyzna,20,2021-07-13_21h54.11.883,rantool2,2021.1.4,Win32,59.89458553,6066e7e5642c6520dabcdb5b,60d9d14f4a8a35a482e0d9bf,60edef3eee977e4d5a263b78,j,0.9913,0,50,50,51,1,RROORRO,RROORRR,21.89852628,22.02786418,series_1
,,,,,,,,6066e7e5642c6520dabcdb5b,Mężczyzna,20,2021-07-13_21h54.11.883,rantool2,2021.1.4,Win32,59.89458553,6066e7e5642c6520dabcdb5b,60d9d14f4a8a35a482e0d9bf,60edef3eee977e4d5a263b78,j,1.0018,0,51,51,13,1,OORRORO,OORRORR,21.66733484,22.11181017,series_1
,,,,,,,,6066e7e5642c6520dabcdb5b,Mężczyzna,20,2021-07-13_21h54.11.883,rantool2,2021.1.4,Win32,59.89458553,6066e7e5642c6520dabcdb5b,60d9d14f4a8a35a482e0d9bf,60edef3eee977e4d5a263b78,j,1.138,0,52,52,0,1,OOOOOOO,OOOOOOR,18.52739004,19.62521613,series_1
,,,,,,,,6066e7e5642c6520dabcdb5b,Mężczyzna,20,2021-07-13_21h54.11.883,rantool2,2021.1.4,Win32,59.89458553,6066e7e5642c6520dabcdb5b,60d9d14f4a8a35a482e0d9bf,60edef3eee977e4d5a263b78,f,1.6142,0,53,53,17,1,OROOORO,OROOORR,21.03750787,22.12173012,series_1
,,,,,,,,6066e7e5642c6520dabcdb5b,Mężczyzna,20,2021-07-13_21h54.11.883,rantool2,2021.1.4,Win32,59.89458553,6066e7e5642c6520dabcdb5b,60d9d14f4a8a35a482e0d9bf,60edef3eee977e4d5a263b78,j,1.0879,0,54,54,56,1,RRROOOO,RRROOOR,21.6194508,22.31681875,series_1
,,,,,,,,6066e7e5642c6520dabcdb5b,Mężczyzna,20,2021-07-13_21h54.11.883,rantool2,2021.1.4,Win32,59.89458553,6066e7e5642c6520dabcdb5b,60d9d14f4a8a35a482e0d9bf,60edef3eee977e4d5a263b78,f,1.1984,0,55,55,60,1,RRRROOO,RRRROOR,22.10108823,22.15934078,series_1
,,,,,,,,6066e7e5642c6520dabcdb5b,Mężczyzna,20,2021-07-13_21h54.11.883,rantool2,2021.1.4,Win32,59.89458553,6066e7e5642c6520dabcdb5b,60d9d14f4a8a35a482e0d9bf,60edef3eee977e4d5a263b78,j,1.1359,0,56,56,41,1,ROROORO,ROROORR,20.42602454,21.71443381,series_1
,,,,,,,,6066e7e5642c6520dabcdb5b,Mężczyzna,20,2021-07-13_21h54.11.883,rantool2,2021.1.4,Win32,59.89458553,6066e7e5642c6520dabcdb5b,60d9d14f4a8a35a482e0d9bf,60edef3eee977e4d5a263b78,f,0.9189,0,57,57,5,1,OOORORO,OOORORR,20.87963819,21.9921709,series_1
,,,,,,,,6066e7e5642c6520dabcdb5b,Mężczyzna,20,2021-07-13_21h54.11.883,rantool2,2021.1.4,Win32,59.89458553,6066e7e5642c6520dabcdb5b,60d9d14f4a8a35a482e0d9bf,60edef3eee977e4d5a263b78,f,1.1029,0,58,58,43,1,RORORRO,RORORRR,20.71309134,21.07490964,series_1
,,,,,,,,6066e7e5642c6520dabcdb5b,Mężczyzna,20,2021-07-13_21h54.11.883,rantool2,2021.1.4,Win32,59.89458553,6066e7e5642c6520dabcdb5b,60d9d14f4a8a35a482e0d9bf,60edef3eee977e4d5a263b78,f,1.5276,0,59,59,55,1,RRORRRO,RRORRRR,21.56657303,21.21223021,series_0
,,,,,,,,6066e7e5642c6520dabcdb5b,Mężczyzna,20,2021-07-13_21h54.11.883,rantool2,2021.1.4,Win32,59.89458553,6066e7e5642c6520dabcdb5b,60d9d14f4a8a35a482e0d9bf,60edef3eee977e4d5a263b78,f,1.4688,0,60,60,53,1,RRORORO,RRORORR,20.71309134,21.90565814,series_1
,,,,,,,,6066e7e5642c6520dabcdb5b,Mężczyzna,20,2021-07-13_21h54.11.883,rantool2,2021.1.4,Win32,59.89458553,6066e7e5642c6520dabcdb5b,60d9d14f4a8a35a482e0d9bf,60edef3eee977e4d5a263b78,f,1.7405,0,61,61,63,1,RRRRRRO,RRRRRRR,21.35278725,19.62521613,series_0
,,,,,,,,6066e7e5642c6520dabcdb5b,Mężczyzna,20,2021-07-13_21h54.11.883,rantool2,2021.1.4,Win32,59.89458553,6066e7e5642c6520dabcdb5b,60d9d14f4a8a35a482e0d9bf,60edef3eee977e4d5a263b78,j,1.1199,0,62,62,54,1,RRORROO,RRORROR,21.55250791,20.9984461,series_0
,,,,,,,,6066e7e5642c6520dabcdb5b,Mężczyzna,20,2021-07-13_21h54.11.883,rantool2,2021.1.4,Win32,59.89458553,6066e7e5642c6520dabcdb5b,60d9d14f4a8a35a482e0d9bf,60edef3eee977e4d5a263b78,f,1.1055,0,63,63,22,1,ORORROO,ORORROR,22.02732763,21.57657071,series_0
