key_resp_7.keys,key_resp_7.rt,trials_2.thisRepN,trials_2.thisTrialN,trials_2.thisN,trials_2.thisIndex,trials_2.ran,id,series_0,series_1,acss_0,acss_1,comparison,id*,Płeć*,Wiek*,date,expName,psychopyVersion,OS,frameRate,STUDY_ID,SESSION_ID,key_resp_5.keys,key_resp_5.corr,key_resp_5.rt,trials.thisRepN,trials.thisTrialN,trials.thisN,trials.thisIndex,trials.ran
f,1.763,0,0,0,33,1,5f15aec1e584f420d64ed291,ROOOORO,ROOOORR,20.83779602,22.03072203,series_1,5f15aec1e584f420d64ed291,Mężczyzna,31,2021-09-06_19h10.50.105,rantool2,2021.1.4,Win32,59.95203837,6135e006383e6ea6c3d06a28,61364b8090fdc783839617cf,,,,,,,,
f,2.908,0,1,1,0,1,5f15aec1e584f420d64ed291,OOOOOOO,OOOOOOR,18.52739004,19.62521613,series_1,5f15aec1e584f420d64ed291,Mężczyzna,31,2021-09-06_19h10.50.105,rantool2,2021.1.4,Win32,59.95203837,6135e006383e6ea6c3d06a28,61364b8090fdc783839617cf,,,,,,,,
j,1.921,0,2,2,15,1,5f15aec1e584f420d64ed291,OORRRRO,OORRRRR,22.10108823,21.74922619,series_0,5f15aec1e584f420d64ed291,Mężczyzna,31,2021-09-06_19h10.50.105,rantool2,2021.1.4,Win32,59.95203837,6135e006383e6ea6c3d06a28,61364b8090fdc783839617cf,,,,,,,,
f,2.522,0,3,3,4,1,5f15aec1e584f420d64ed291,OOOROOO,OOOROOR,19.91402015,21.21223021,series_1,5f15aec1e584f420d64ed291,Mężczyzna,31,2021-09-06_19h10.50.105,rantool2,2021.1.4,Win32,59.95203837,6135e006383e6ea6c3d06a28,61364b8090fdc783839617cf,,,,,,,,
j,0.921,0,4,4,20,1,5f15aec1e584f420d64ed291,OROROOO,OROROOR,21.31236711,21.90565814,series_1,5f15aec1e584f420d64ed291,Mężczyzna,31,2021-09-06_19h10.50.105,rantool2,2021.1.4,Win32,59.95203837,6135e006383e6ea6c3d06a28,61364b8090fdc783839617cf,,,,,,,,
j,0.653,0,5,5,31,1,5f15aec1e584f420d64ed291,ORRRRRO,ORRRRRR,22.16413392,20.74050628,series_0,5f15aec1e584f420d64ed291,Mężczyzna,31,2021-09-06_19h10.50.105,rantool2,2021.1.4,Win32,59.95203837,6135e006383e6ea6c3d06a28,61364b8090fdc783839617cf,,,,,,,,
j,0.66,0,6,6,6,1,5f15aec1e584f420d64ed291,OOORROO,OOORROR,21.12383932,21.38562617,series_1,5f15aec1e584f420d64ed291,Mężczyzna,31,2021-09-06_19h10.50.105,rantool2,2021.1.4,Win32,59.95203837,6135e006383e6ea6c3d06a28,61364b8090fdc783839617cf,,,,,,,,
f,1.204,0,7,7,21,1,5f15aec1e584f420d64ed291,ORORORO,ORORORR,20.39515459,22.06781359,series_1,5f15aec1e584f420d64ed291,Mężczyzna,31,2021-09-06_19h10.50.105,rantool2,2021.1.4,Win32,59.95203837,6135e006383e6ea6c3d06a28,61364b8090fdc783839617cf,,,,,,,,
f,1.62,0,8,8,51,1,5f15aec1e584f420d64ed291,RROORRO,RROORRR,21.89852628,22.02786418,series_1,5f15aec1e584f420d64ed291,Mężczyzna,31,2021-09-06_19h10.50.105,rantool2,2021.1.4,Win32,59.95203837,6135e006383e6ea6c3d06a28,61364b8090fdc783839617cf,,,,,,,,
j,1.384,0,9,9,52,1,5f15aec1e584f420d64ed291,RROROOO,RROROOR,22.18365867,22.11097995,series_0,5f15aec1e584f420d64ed291,Mężczyzna,31,2021-09-06_19h10.50.105,rantool2,2021.1.4,Win32,59.95203837,6135e006383e6ea6c3d06a28,61364b8090fdc783839617cf,,,,,,,,
j,1.486,0,10,10,57,1,5f15aec1e584f420d64ed291,RRROORO,RRROORR,21.82425538,22.07102821,series_1,5f15aec1e584f420d64ed291,Mężczyzna,31,2021-09-06_19h10.50.105,rantool2,2021.1.4,Win32,59.95203837,6135e006383e6ea6c3d06a28,61364b8090fdc783839617cf,,,,,,,,
f,1.475,0,11,11,41,1,5f15aec1e584f420d64ed291,ROROORO,ROROORR,20.42602454,21.71443381,series_1,5f15aec1e584f420d64ed291,Mężczyzna,31,2021-09-06_19h10.50.105,rantool2,2021.1.4,Win32,59.95203837,6135e006383e6ea6c3d06a28,61364b8090fdc783839617cf,,,,,,,,
j,1.355,0,12,12,58,1,5f15aec1e584f420d64ed291,RRROROO,RRROROR,22.1285618,21.37121559,series_0,5f15aec1e584f420d64ed291,Mężczyzna,31,2021-09-06_19h10.50.105,rantool2,2021.1.4,Win32,59.95203837,6135e006383e6ea6c3d06a28,61364b8090fdc783839617cf,,,,,,,,
f,1.243,0,13,13,38,1,5f15aec1e584f420d64ed291,ROORROO,ROORROR,21.79500819,21.36812781,series_0,5f15aec1e584f420d64ed291,Mężczyzna,31,2021-09-06_19h10.50.105,rantool2,2021.1.4,Win32,59.95203837,6135e006383e6ea6c3d06a28,61364b8090fdc783839617cf,,,,,,,,
f,1.605,0,14,14,48,1,5f15aec1e584f420d64ed291,RROOOOO,RROOOOR,20.90986523,22.15934078,series_1,5f15aec1e584f420d64ed291,Mężczyzna,31,2021-09-06_19h10.50.105,rantool2,2021.1.4,Win32,59.95203837,6135e006383e6ea6c3d06a28,61364b8090fdc783839617cf,,,,,,,,
j,1.519,0,15,15,53,1,5f15aec1e584f420d64ed291,RRORORO,RRORORR,20.71309134,21.90565814,series_1,5f15aec1e584f420d64ed291,Mężczyzna,31,2021-09-06_19h10.50.105,rantool2,2021.1.4,Win32,59.95203837,6135e006383e6ea6c3d06a28,61364b8090fdc783839617cf,,,,,,,,
f,1.504,0,16,16,61,1,5f15aec1e584f420d64ed291,RRRRORO,RRRRORR,21.81333602,21.17347734,series_0,5f15aec1e584f420d64ed291,Mężczyzna,31,2021-09-06_19h10.50.105,rantool2,2021.1.4,Win32,59.95203837,6135e006383e6ea6c3d06a28,61364b8090fdc783839617cf,,,,,,,,
f,1.151,0,17,17,34,1,5f15aec1e584f420d64ed291,ROOOROO,ROOOROR,21.03750787,21.24781509,series_1,5f15aec1e584f420d64ed291,Mężczyzna,31,2021-09-06_19h10.50.105,rantool2,2021.1.4,Win32,59.95203837,6135e006383e6ea6c3d06a28,61364b8090fdc783839617cf,,,,,,,,
j,1.274,0,18,18,55,1,5f15aec1e584f420d64ed291,RRORRRO,RRORRRR,21.56657303,21.21223021,series_0,5f15aec1e584f420d64ed291,Mężczyzna,31,2021-09-06_19h10.50.105,rantool2,2021.1.4,Win32,59.95203837,6135e006383e6ea6c3d06a28,61364b8090fdc783839617cf,,,,,,,,
j,1.32,0,19,19,50,1,5f15aec1e584f420d64ed291,RROOROO,RROOROR,21.73568164,22.02566557,series_1,5f15aec1e584f420d64ed291,Mężczyzna,31,2021-09-06_19h10.50.105,rantool2,2021.1.4,Win32,59.95203837,6135e006383e6ea6c3d06a28,61364b8090fdc783839617cf,,,,,,,,
j,1.641,0,20,20,10,1,5f15aec1e584f420d64ed291,OOROROO,OOROROR,21.31236711,21.07490964,series_0,5f15aec1e584f420d64ed291,Mężczyzna,31,2021-09-06_19h10.50.105,rantool2,2021.1.4,Win32,59.95203837,6135e006383e6ea6c3d06a28,61364b8090fdc783839617cf,,,,,,,,
j,1.587,0,21,21,2,1,5f15aec1e584f420d64ed291,OOOOROO,OOOOROR,20.43051175,21.02936224,series_1,5f15aec1e584f420d64ed291,Mężczyzna,31,2021-09-06_19h10.50.105,rantool2,2021.1.4,Win32,59.95203837,6135e006383e6ea6c3d06a28,61364b8090fdc783839617cf,,,,,,,,
f,1.57,0,22,22,62,1,5f15aec1e584f420d64ed291,RRRRROO,RRRRROR,22.16413392,21.27974287,series_0,5f15aec1e584f420d64ed291,Mężczyzna,31,2021-09-06_19h10.50.105,rantool2,2021.1.4,Win32,59.95203837,6135e006383e6ea6c3d06a28,61364b8090fdc783839617cf,,,,,,,,
j,1.698,0,23,23,9,1,5f15aec1e584f420d64ed291,OOROORO,OOROORR,21.07991943,22.2428857,series_1,5f15aec1e584f420d64ed291,Mężczyzna,31,2021-09-06_19h10.50.105,rantool2,2021.1.4,Win32,59.95203837,6135e006383e6ea6c3d06a28,61364b8090fdc783839617cf,,,,,,,,
j,1.771,0,24,24,43,1,5f15aec1e584f420d64ed291,RORORRO,RORORRR,20.71309134,21.07490964,series_1,5f15aec1e584f420d64ed291,Mężczyzna,31,2021-09-06_19h10.50.105,rantool2,2021.1.4,Win32,59.95203837,6135e006383e6ea6c3d06a28,61364b8090fdc783839617cf,,,,,,,,
f,1.556,0,25,25,16,1,5f15aec1e584f420d64ed291,OROOOOO,OROOOOR,20.43051175,21.17347734,series_1,5f15aec1e584f420d64ed291,Mężczyzna,31,2021-09-06_19h10.50.105,rantool2,2021.1.4,Win32,59.95203837,6135e006383e6ea6c3d06a28,61364b8090fdc783839617cf,,,,,,,,
f,1.018,0,26,26,42,1,5f15aec1e584f420d64ed291,ROROROO,ROROROR,20.39515459,19.8361834,series_0,5f15aec1e584f420d64ed291,Mężczyzna,31,2021-09-06_19h10.50.105,rantool2,2021.1.4,Win32,59.95203837,6135e006383e6ea6c3d06a28,61364b8090fdc783839617cf,,,,,,,,
j,1.51,0,27,27,37,1,5f15aec1e584f420d64ed291,ROORORO,ROORORR,20.42602454,21.57657071,series_1,5f15aec1e584f420d64ed291,Mężczyzna,31,2021-09-06_19h10.50.105,rantool2,2021.1.4,Win32,59.95203837,6135e006383e6ea6c3d06a28,61364b8090fdc783839617cf,,,,,,,,
f,1.771,0,28,28,29,1,5f15aec1e584f420d64ed291,ORRRORO,ORRRORR,22.00300695,22.12173012,series_1,5f15aec1e584f420d64ed291,Mężczyzna,31,2021-09-06_19h10.50.105,rantool2,2021.1.4,Win32,59.95203837,6135e006383e6ea6c3d06a28,61364b8090fdc783839617cf,,,,,,,,
j,1.116,0,29,29,12,1,5f15aec1e584f420d64ed291,OORROOO,OORROOR,21.30250474,22.02786418,series_1,5f15aec1e584f420d64ed291,Mężczyzna,31,2021-09-06_19h10.50.105,rantool2,2021.1.4,Win32,59.95203837,6135e006383e6ea6c3d06a28,61364b8090fdc783839617cf,,,,,,,,
j,1.459,0,30,30,30,1,5f15aec1e584f420d64ed291,ORRRROO,ORRRROR,22.46748491,22.03072203,series_0,5f15aec1e584f420d64ed291,Mężczyzna,31,2021-09-06_19h10.50.105,rantool2,2021.1.4,Win32,59.95203837,6135e006383e6ea6c3d06a28,61364b8090fdc783839617cf,,,,,,,,
j,1.268,0,31,31,23,1,5f15aec1e584f420d64ed291,ORORRRO,ORORRRR,22.1285618,21.9921709,series_0,5f15aec1e584f420d64ed291,Mężczyzna,31,2021-09-06_19h10.50.105,rantool2,2021.1.4,Win32,59.95203837,6135e006383e6ea6c3d06a28,61364b8090fdc783839617cf,,,,,,,,
j,1.571,0,32,32,28,1,5f15aec1e584f420d64ed291,ORRROOO,ORRROOR,22.24142883,22.53364006,series_1,5f15aec1e584f420d64ed291,Mężczyzna,31,2021-09-06_19h10.50.105,rantool2,2021.1.4,Win32,59.95203837,6135e006383e6ea6c3d06a28,61364b8090fdc783839617cf,,,,,,,,
f,1.262,0,33,33,63,1,5f15aec1e584f420d64ed291,RRRRRRO,RRRRRRR,21.35278725,19.62521613,series_0,5f15aec1e584f420d64ed291,Mężczyzna,31,2021-09-06_19h10.50.105,rantool2,2021.1.4,Win32,59.95203837,6135e006383e6ea6c3d06a28,61364b8090fdc783839617cf,,,,,,,,
j,1.392,0,34,34,40,1,5f15aec1e584f420d64ed291,ROROOOO,ROROOOR,20.87963819,21.37121559,series_1,5f15aec1e584f420d64ed291,Mężczyzna,31,2021-09-06_19h10.50.105,rantool2,2021.1.4,Win32,59.95203837,6135e006383e6ea6c3d06a28,61364b8090fdc783839617cf,,,,,,,,
f,1.01,0,35,35,11,1,5f15aec1e584f420d64ed291,OORORRO,OORORRR,22.18365867,22.6797523,series_1,5f15aec1e584f420d64ed291,Mężczyzna,31,2021-09-06_19h10.50.105,rantool2,2021.1.4,Win32,59.95203837,6135e006383e6ea6c3d06a28,61364b8090fdc783839617cf,,,,,,,,
j,1.002,0,36,36,46,1,5f15aec1e584f420d64ed291,RORRROO,RORRROR,22.00300695,21.24781509,series_0,5f15aec1e584f420d64ed291,Mężczyzna,31,2021-09-06_19h10.50.105,rantool2,2021.1.4,Win32,59.95203837,6135e006383e6ea6c3d06a28,61364b8090fdc783839617cf,,,,,,,,
j,0.969,0,37,37,35,1,5f15aec1e584f420d64ed291,ROOORRO,ROOORRR,21.76276513,22.16977179,series_1,5f15aec1e584f420d64ed291,Mężczyzna,31,2021-09-06_19h10.50.105,rantool2,2021.1.4,Win32,59.95203837,6135e006383e6ea6c3d06a28,61364b8090fdc783839617cf,,,,,,,,
f,1.052,0,38,38,32,1,5f15aec1e584f420d64ed291,ROOOOOO,ROOOOOR,19.92253567,21.27974287,series_1,5f15aec1e584f420d64ed291,Mężczyzna,31,2021-09-06_19h10.50.105,rantool2,2021.1.4,Win32,59.95203837,6135e006383e6ea6c3d06a28,61364b8090fdc783839617cf,,,,,,,,
j,1.998,0,39,39,39,1,5f15aec1e584f420d64ed291,ROORRRO,ROORRRR,21.82425538,21.38562617,series_0,5f15aec1e584f420d64ed291,Mężczyzna,31,2021-09-06_19h10.50.105,rantool2,2021.1.4,Win32,59.95203837,6135e006383e6ea6c3d06a28,61364b8090fdc783839617cf,,,,,,,,
f,1.258,0,40,40,1,1,5f15aec1e584f420d64ed291,OOOOORO,OOOOORR,19.92253567,20.74050628,series_1,5f15aec1e584f420d64ed291,Mężczyzna,31,2021-09-06_19h10.50.105,rantool2,2021.1.4,Win32,59.95203837,6135e006383e6ea6c3d06a28,61364b8090fdc783839617cf,,,,,,,,
j,1.285,0,41,41,3,1,5f15aec1e584f420d64ed291,OOOORRO,OOOORRR,20.90986523,21.74922619,series_1,5f15aec1e584f420d64ed291,Mężczyzna,31,2021-09-06_19h10.50.105,rantool2,2021.1.4,Win32,59.95203837,6135e006383e6ea6c3d06a28,61364b8090fdc783839617cf,,,,,,,,
j,0.979,0,42,42,24,1,5f15aec1e584f420d64ed291,ORROOOO,ORROOOR,21.12383932,22.07102821,series_1,5f15aec1e584f420d64ed291,Mężczyzna,31,2021-09-06_19h10.50.105,rantool2,2021.1.4,Win32,59.95203837,6135e006383e6ea6c3d06a28,61364b8090fdc783839617cf,,,,,,,,
f,0.851,0,43,43,22,1,5f15aec1e584f420d64ed291,ORORROO,ORORROR,22.02732763,21.57657071,series_0,5f15aec1e584f420d64ed291,Mężczyzna,31,2021-09-06_19h10.50.105,rantool2,2021.1.4,Win32,59.95203837,6135e006383e6ea6c3d06a28,61364b8090fdc783839617cf,,,,,,,,
f,0.821,0,44,44,26,1,5f15aec1e584f420d64ed291,ORROROO,ORROROR,22.02732763,21.71443381,series_0,5f15aec1e584f420d64ed291,Mężczyzna,31,2021-09-06_19h10.50.105,rantool2,2021.1.4,Win32,59.95203837,6135e006383e6ea6c3d06a28,61364b8090fdc783839617cf,,,,,,,,
j,0.843,0,45,45,27,1,5f15aec1e584f420d64ed291,ORRORRO,ORRORRR,21.55250791,22.2428857,series_1,5f15aec1e584f420d64ed291,Mężczyzna,31,2021-09-06_19h10.50.105,rantool2,2021.1.4,Win32,59.95203837,6135e006383e6ea6c3d06a28,61364b8090fdc783839617cf,,,,,,,,
j,0.909,0,46,46,56,1,5f15aec1e584f420d64ed291,RRROOOO,RRROOOR,21.6194508,22.31681875,series_1,5f15aec1e584f420d64ed291,Mężczyzna,31,2021-09-06_19h10.50.105,rantool2,2021.1.4,Win32,59.95203837,6135e006383e6ea6c3d06a28,61364b8090fdc783839617cf,,,,,,,,
f,0.87,0,47,47,5,1,5f15aec1e584f420d64ed291,OOORORO,OOORORR,20.87963819,21.9921709,series_1,5f15aec1e584f420d64ed291,Mężczyzna,31,2021-09-06_19h10.50.105,rantool2,2021.1.4,Win32,59.95203837,6135e006383e6ea6c3d06a28,61364b8090fdc783839617cf,,,,,,,,
j,0.893,0,48,48,49,1,5f15aec1e584f420d64ed291,RROOORO,RROOORR,21.76276513,22.53364006,series_1,5f15aec1e584f420d64ed291,Mężczyzna,31,2021-09-06_19h10.50.105,rantool2,2021.1.4,Win32,59.95203837,6135e006383e6ea6c3d06a28,61364b8090fdc783839617cf,,,,,,,,
f,0.823,0,49,49,25,1,5f15aec1e584f420d64ed291,ORROORO,ORROORR,21.79500819,22.61624387,series_1,5f15aec1e584f420d64ed291,Mężczyzna,31,2021-09-06_19h10.50.105,rantool2,2021.1.4,Win32,59.95203837,6135e006383e6ea6c3d06a28,61364b8090fdc783839617cf,,,,,,,,
f,0.854,0,50,50,14,1,5f15aec1e584f420d64ed291,OORRROO,OORRROR,22.24142883,22.16977179,series_0,5f15aec1e584f420d64ed291,Mężczyzna,31,2021-09-06_19h10.50.105,rantool2,2021.1.4,Win32,59.95203837,6135e006383e6ea6c3d06a28,61364b8090fdc783839617cf,,,,,,,,
j,0.808,0,51,51,18,1,5f15aec1e584f420d64ed291,OROOROO,OROOROR,20.84860893,21.22513037,series_1,5f15aec1e584f420d64ed291,Mężczyzna,31,2021-09-06_19h10.50.105,rantool2,2021.1.4,Win32,59.95203837,6135e006383e6ea6c3d06a28,61364b8090fdc783839617cf,,,,,,,,
j,1.363,0,52,52,47,1,5f15aec1e584f420d64ed291,RORRRRO,RORRRRR,21.81333602,21.02936224,series_0,5f15aec1e584f420d64ed291,Mężczyzna,31,2021-09-06_19h10.50.105,rantool2,2021.1.4,Win32,59.95203837,6135e006383e6ea6c3d06a28,61364b8090fdc783839617cf,,,,,,,,
j,1.687,0,53,53,19,1,5f15aec1e584f420d64ed291,OROORRO,OROORRR,21.73568164,22.11181017,series_1,5f15aec1e584f420d64ed291,Mężczyzna,31,2021-09-06_19h10.50.105,rantool2,2021.1.4,Win32,59.95203837,6135e006383e6ea6c3d06a28,61364b8090fdc783839617cf,,,,,,,,
f,1.145,0,54,54,54,1,5f15aec1e584f420d64ed291,RRORROO,RRORROR,21.55250791,20.9984461,series_0,5f15aec1e584f420d64ed291,Mężczyzna,31,2021-09-06_19h10.50.105,rantool2,2021.1.4,Win32,59.95203837,6135e006383e6ea6c3d06a28,61364b8090fdc783839617cf,,,,,,,,
j,0.81,0,55,55,36,1,5f15aec1e584f420d64ed291,ROOROOO,ROOROOR,21.07991943,20.9984461,series_0,5f15aec1e584f420d64ed291,Mężczyzna,31,2021-09-06_19h10.50.105,rantool2,2021.1.4,Win32,59.95203837,6135e006383e6ea6c3d06a28,61364b8090fdc783839617cf,,,,,,,,
j,0.779,0,56,56,7,1,5f15aec1e584f420d64ed291,OOORRRO,OOORRRR,21.6194508,21.899017,series_1,5f15aec1e584f420d64ed291,Mężczyzna,31,2021-09-06_19h10.50.105,rantool2,2021.1.4,Win32,59.95203837,6135e006383e6ea6c3d06a28,61364b8090fdc783839617cf,,,,,,,,
f,1.034,0,57,57,44,1,5f15aec1e584f420d64ed291,RORROOO,RORROOR,21.66733484,22.02566557,series_1,5f15aec1e584f420d64ed291,Mężczyzna,31,2021-09-06_19h10.50.105,rantool2,2021.1.4,Win32,59.95203837,6135e006383e6ea6c3d06a28,61364b8090fdc783839617cf,,,,,,,,
j,1.438,0,58,58,8,1,5f15aec1e584f420d64ed291,OOROOOO,OOROOOR,19.91402015,20.89823192,series_1,5f15aec1e584f420d64ed291,Mężczyzna,31,2021-09-06_19h10.50.105,rantool2,2021.1.4,Win32,59.95203837,6135e006383e6ea6c3d06a28,61364b8090fdc783839617cf,,,,,,,,
f,0.443,0,59,59,45,1,5f15aec1e584f420d64ed291,RORRORO,RORRORR,20.78182524,21.22513037,series_1,5f15aec1e584f420d64ed291,Mężczyzna,31,2021-09-06_19h10.50.105,rantool2,2021.1.4,Win32,59.95203837,6135e006383e6ea6c3d06a28,61364b8090fdc783839617cf,,,,,,,,
j,0.651,0,60,60,60,1,5f15aec1e584f420d64ed291,RRRROOO,RRRROOR,22.10108823,22.15934078,series_1,5f15aec1e584f420d64ed291,Mężczyzna,31,2021-09-06_19h10.50.105,rantool2,2021.1.4,Win32,59.95203837,6135e006383e6ea6c3d06a28,61364b8090fdc783839617cf,,,,,,,,
j,1.145,0,61,61,17,1,5f15aec1e584f420d64ed291,OROOORO,OROOORR,21.03750787,22.12173012,series_1,5f15aec1e584f420d64ed291,Mężczyzna,31,2021-09-06_19h10.50.105,rantool2,2021.1.4,Win32,59.95203837,6135e006383e6ea6c3d06a28,61364b8090fdc783839617cf,,,,,,,,
f,1.003,0,62,62,59,1,5f15aec1e584f420d64ed291,RRRORRO,RRRORRR,21.56657303,20.89823192,series_0,5f15aec1e584f420d64ed291,Mężczyzna,31,2021-09-06_19h10.50.105,rantool2,2021.1.4,Win32,59.95203837,6135e006383e6ea6c3d06a28,61364b8090fdc783839617cf,,,,,,,,
j,1.72,0,63,63,13,1,5f15aec1e584f420d64ed291,OORRORO,OORRORR,21.66733484,22.11181017,series_1,5f15aec1e584f420d64ed291,Mężczyzna,31,2021-09-06_19h10.50.105,rantool2,2021.1.4,Win32,59.95203837,6135e006383e6ea6c3d06a28,61364b8090fdc783839617cf,,,,,,,,
,,,,,,,5f15aec1e584f420d64ed291,,,,,,5f15aec1e584f420d64ed291,Mężczyzna,31,2021-09-06_19h10.50.105,rantool2,2021.1.4,Win32,59.95203837,6135e006383e6ea6c3d06a28,61364b8090fdc783839617cf,"[""comma""]",0,[1.68100000000004],0,0,0,0,1
,,,,,,,5f15aec1e584f420d64ed291,,,,,,5f15aec1e584f420d64ed291,Mężczyzna,31,2021-09-06_19h10.50.105,rantool2,2021.1.4,Win32,59.95203837,6135e006383e6ea6c3d06a28,61364b8090fdc783839617cf,"[""comma""]",0,[1.441000000000031],1,0,1,0,1
,,,,,,,5f15aec1e584f420d64ed291,,,,,,5f15aec1e584f420d64ed291,Mężczyzna,31,2021-09-06_19h10.50.105,rantool2,2021.1.4,Win32,59.95203837,6135e006383e6ea6c3d06a28,61364b8090fdc783839617cf,"[""comma""]",0,[1.5710000000000264],2,0,2,0,1
,,,,,,,5f15aec1e584f420d64ed291,,,,,,5f15aec1e584f420d64ed291,Mężczyzna,31,2021-09-06_19h10.50.105,rantool2,2021.1.4,Win32,59.95203837,6135e006383e6ea6c3d06a28,61364b8090fdc783839617cf,"[""period""]",0,[0.8519999999999754],3,0,3,0,1
,,,,,,,5f15aec1e584f420d64ed291,,,,,,5f15aec1e584f420d64ed291,Mężczyzna,31,2021-09-06_19h10.50.105,rantool2,2021.1.4,Win32,59.95203837,6135e006383e6ea6c3d06a28,61364b8090fdc783839617cf,"[""period"",""comma""]",0,"[0.29200000000003,0.9020000000000437]",4,0,4,0,1
,,,,,,,5f15aec1e584f420d64ed291,,,,,,5f15aec1e584f420d64ed291,Mężczyzna,31,2021-09-06_19h10.50.105,rantool2,2021.1.4,Win32,59.95203837,6135e006383e6ea6c3d06a28,61364b8090fdc783839617cf,"[""comma""]",0,[0.2339999999999236],5,0,5,0,1
,,,,,,,5f15aec1e584f420d64ed291,,,,,,5f15aec1e584f420d64ed291,Mężczyzna,31,2021-09-06_19h10.50.105,rantool2,2021.1.4,Win32,59.95203837,6135e006383e6ea6c3d06a28,61364b8090fdc783839617cf,"[""period""]",0,[0.20100000000002183],6,0,6,0,1
,,,,,,,5f15aec1e584f420d64ed291,,,,,,5f15aec1e584f420d64ed291,Mężczyzna,31,2021-09-06_19h10.50.105,rantool2,2021.1.4,Win32,59.95203837,6135e006383e6ea6c3d06a28,61364b8090fdc783839617cf,"[""period""]",0,[0.17000000000007276],7,0,7,0,1
,,,,,,,5f15aec1e584f420d64ed291,,,,,,5f15aec1e584f420d64ed291,Mężczyzna,31,2021-09-06_19h10.50.105,rantool2,2021.1.4,Win32,59.95203837,6135e006383e6ea6c3d06a28,61364b8090fdc783839617cf,"[""comma""]",0,[0.2519999999999527],8,0,8,0,1
,,,,,,,5f15aec1e584f420d64ed291,,,,,,5f15aec1e584f420d64ed291,Mężczyzna,31,2021-09-06_19h10.50.105,rantool2,2021.1.4,Win32,59.95203837,6135e006383e6ea6c3d06a28,61364b8090fdc783839617cf,"[""comma""]",0,[0.30500000000006366],9,0,9,0,1
,,,,,,,5f15aec1e584f420d64ed291,,,,,,5f15aec1e584f420d64ed291,Mężczyzna,31,2021-09-06_19h10.50.105,rantool2,2021.1.4,Win32,59.95203837,6135e006383e6ea6c3d06a28,61364b8090fdc783839617cf,"[""period""]",0,[0.20199999999999818],10,0,10,0,1
,,,,,,,5f15aec1e584f420d64ed291,,,,,,5f15aec1e584f420d64ed291,Mężczyzna,31,2021-09-06_19h10.50.105,rantool2,2021.1.4,Win32,59.95203837,6135e006383e6ea6c3d06a28,61364b8090fdc783839617cf,"[""period"",""comma""]",0,"[0.022000000000048203,0.02800000000002001]",11,0,11,0,1
,,,,,,,5f15aec1e584f420d64ed291,,,,,,5f15aec1e584f420d64ed291,Mężczyzna,31,2021-09-06_19h10.50.105,rantool2,2021.1.4,Win32,59.95203837,6135e006383e6ea6c3d06a28,61364b8090fdc783839617cf,"[""period"",""comma""]",0,"[0.2620000000000573,0.27300000000002456]",12,0,12,0,1
,,,,,,,5f15aec1e584f420d64ed291,,,,,,5f15aec1e584f420d64ed291,Mężczyzna,31,2021-09-06_19h10.50.105,rantool2,2021.1.4,Win32,59.95203837,6135e006383e6ea6c3d06a28,61364b8090fdc783839617cf,"[""comma""]",0,[0.29100000000005366],13,0,13,0,1
,,,,,,,5f15aec1e584f420d64ed291,,,,,,5f15aec1e584f420d64ed291,Mężczyzna,31,2021-09-06_19h10.50.105,rantool2,2021.1.4,Win32,59.95203837,6135e006383e6ea6c3d06a28,61364b8090fdc783839617cf,"[""comma"",""period""]",0,"[0.11799999999993815,1.8679999999999382]",14,0,14,0,1
,,,,,,,5f15aec1e584f420d64ed291,,,,,,5f15aec1e584f420d64ed291,Mężczyzna,31,2021-09-06_19h10.50.105,rantool2,2021.1.4,Win32,59.95203837,6135e006383e6ea6c3d06a28,61364b8090fdc783839617cf,0,0,,15,0,15,0,1
,,,,,,,5f15aec1e584f420d64ed291,,,,,,5f15aec1e584f420d64ed291,Mężczyzna,31,2021-09-06_19h10.50.105,rantool2,2021.1.4,Win32,59.95203837,6135e006383e6ea6c3d06a28,61364b8090fdc783839617cf,"[""period""]",0,[0.42200000000002547],16,0,16,0,1
,,,,,,,5f15aec1e584f420d64ed291,,,,,,5f15aec1e584f420d64ed291,Mężczyzna,31,2021-09-06_19h10.50.105,rantool2,2021.1.4,Win32,59.95203837,6135e006383e6ea6c3d06a28,61364b8090fdc783839617cf,"[""period""]",0,[0.44000000000005457],17,0,17,0,1
,,,,,,,5f15aec1e584f420d64ed291,,,,,,5f15aec1e584f420d64ed291,Mężczyzna,31,2021-09-06_19h10.50.105,rantool2,2021.1.4,Win32,59.95203837,6135e006383e6ea6c3d06a28,61364b8090fdc783839617cf,"[""comma""]",0,[0.4679999999999609],18,0,18,0,1
,,,,,,,5f15aec1e584f420d64ed291,,,,,,5f15aec1e584f420d64ed291,Mężczyzna,31,2021-09-06_19h10.50.105,rantool2,2021.1.4,Win32,59.95203837,6135e006383e6ea6c3d06a28,61364b8090fdc783839617cf,"[""comma"",""period""]",0,"[0.42399999999997817,0.4370000000000118]",19,0,19,0,1
,,,,,,,5f15aec1e584f420d64ed291,,,,,,5f15aec1e584f420d64ed291,Mężczyzna,31,2021-09-06_19h10.50.105,rantool2,2021.1.4,Win32,59.95203837,6135e006383e6ea6c3d06a28,61364b8090fdc783839617cf,"[""period""]",0,[0.3209999999999127],20,0,20,0,1
,,,,,,,5f15aec1e584f420d64ed291,,,,,,5f15aec1e584f420d64ed291,Mężczyzna,31,2021-09-06_19h10.50.105,rantool2,2021.1.4,Win32,59.95203837,6135e006383e6ea6c3d06a28,61364b8090fdc783839617cf,"[""comma""]",0,[0.25],21,0,21,0,1
,,,,,,,5f15aec1e584f420d64ed291,,,,,,5f15aec1e584f420d64ed291,Mężczyzna,31,2021-09-06_19h10.50.105,rantool2,2021.1.4,Win32,59.95203837,6135e006383e6ea6c3d06a28,61364b8090fdc783839617cf,"[""period""]",0,[0.029999999999972715],22,0,22,0,1
,,,,,,,5f15aec1e584f420d64ed291,,,,,,5f15aec1e584f420d64ed291,Mężczyzna,31,2021-09-06_19h10.50.105,rantool2,2021.1.4,Win32,59.95203837,6135e006383e6ea6c3d06a28,61364b8090fdc783839617cf,"[""comma""]",0,[0.9200000000000728],23,0,23,0,1
,,,,,,,5f15aec1e584f420d64ed291,,,,,,5f15aec1e584f420d64ed291,Mężczyzna,31,2021-09-06_19h10.50.105,rantool2,2021.1.4,Win32,59.95203837,6135e006383e6ea6c3d06a28,61364b8090fdc783839617cf,"[""period""]",0,[0.4210000000000491],24,0,24,0,1
,,,,,,,5f15aec1e584f420d64ed291,,,,,,5f15aec1e584f420d64ed291,Mężczyzna,31,2021-09-06_19h10.50.105,rantool2,2021.1.4,Win32,59.95203837,6135e006383e6ea6c3d06a28,61364b8090fdc783839617cf,"[""period""]",0,[0.2719999999999345],25,0,25,0,1
,,,,,,,5f15aec1e584f420d64ed291,,,,,,5f15aec1e584f420d64ed291,Mężczyzna,31,2021-09-06_19h10.50.105,rantool2,2021.1.4,Win32,59.95203837,6135e006383e6ea6c3d06a28,61364b8090fdc783839617cf,"[""period""]",0,[0.26699999999993906],26,0,26,0,1
,,,,,,,5f15aec1e584f420d64ed291,,,,,,5f15aec1e584f420d64ed291,Mężczyzna,31,2021-09-06_19h10.50.105,rantool2,2021.1.4,Win32,59.95203837,6135e006383e6ea6c3d06a28,61364b8090fdc783839617cf,"[""comma""]",0,[0.15599999999994907],27,0,27,0,1
,,,,,,,5f15aec1e584f420d64ed291,,,,,,5f15aec1e584f420d64ed291,Mężczyzna,31,2021-09-06_19h10.50.105,rantool2,2021.1.4,Win32,59.95203837,6135e006383e6ea6c3d06a28,61364b8090fdc783839617cf,"[""comma""]",0,[0.25099999999997635],28,0,28,0,1
,,,,,,,5f15aec1e584f420d64ed291,,,,,,5f15aec1e584f420d64ed291,Mężczyzna,31,2021-09-06_19h10.50.105,rantool2,2021.1.4,Win32,59.95203837,6135e006383e6ea6c3d06a28,61364b8090fdc783839617cf,"[""period""]",0,[0.2719999999999345],29,0,29,0,1
,,,,,,,5f15aec1e584f420d64ed291,,,,,,5f15aec1e584f420d64ed291,Mężczyzna,31,2021-09-06_19h10.50.105,rantool2,2021.1.4,Win32,59.95203837,6135e006383e6ea6c3d06a28,61364b8090fdc783839617cf,"[""period""]",0,[0.25],30,0,30,0,1
,,,,,,,5f15aec1e584f420d64ed291,,,,,,5f15aec1e584f420d64ed291,Mężczyzna,31,2021-09-06_19h10.50.105,rantool2,2021.1.4,Win32,59.95203837,6135e006383e6ea6c3d06a28,61364b8090fdc783839617cf,"[""comma""]",0,[0.25],31,0,31,0,1
,,,,,,,5f15aec1e584f420d64ed291,,,,,,5f15aec1e584f420d64ed291,Mężczyzna,31,2021-09-06_19h10.50.105,rantool2,2021.1.4,Win32,59.95203837,6135e006383e6ea6c3d06a28,61364b8090fdc783839617cf,"[""period""]",0,[0.28700000000003456],32,0,32,0,1
,,,,,,,5f15aec1e584f420d64ed291,,,,,,5f15aec1e584f420d64ed291,Mężczyzna,31,2021-09-06_19h10.50.105,rantool2,2021.1.4,Win32,59.95203837,6135e006383e6ea6c3d06a28,61364b8090fdc783839617cf,"[""period""]",0,[0.25300000000004275],33,0,33,0,1
,,,,,,,5f15aec1e584f420d64ed291,,,,,,5f15aec1e584f420d64ed291,Mężczyzna,31,2021-09-06_19h10.50.105,rantool2,2021.1.4,Win32,59.95203837,6135e006383e6ea6c3d06a28,61364b8090fdc783839617cf,"[""comma""]",0,[0.17600000000004457],34,0,34,0,1
,,,,,,,5f15aec1e584f420d64ed291,,,,,,5f15aec1e584f420d64ed291,Mężczyzna,31,2021-09-06_19h10.50.105,rantool2,2021.1.4,Win32,59.95203837,6135e006383e6ea6c3d06a28,61364b8090fdc783839617cf,"[""period"",""period""]",0,"[0.11199999999996635,1.7369999999999663]",35,0,35,0,1
,,,,,,,5f15aec1e584f420d64ed291,,,,,,5f15aec1e584f420d64ed291,Mężczyzna,31,2021-09-06_19h10.50.105,rantool2,2021.1.4,Win32,59.95203837,6135e006383e6ea6c3d06a28,61364b8090fdc783839617cf,"[""period""]",0,[0.72199999999998],36,0,36,0,1
,,,,,,,5f15aec1e584f420d64ed291,,,,,,5f15aec1e584f420d64ed291,Mężczyzna,31,2021-09-06_19h10.50.105,rantool2,2021.1.4,Win32,59.95203837,6135e006383e6ea6c3d06a28,61364b8090fdc783839617cf,"[""comma""]",0,[0.0019999999999527063],37,0,37,0,1
,,,,,,,5f15aec1e584f420d64ed291,,,,,,5f15aec1e584f420d64ed291,Mężczyzna,31,2021-09-06_19h10.50.105,rantool2,2021.1.4,Win32,59.95203837,6135e006383e6ea6c3d06a28,61364b8090fdc783839617cf,"[""comma""]",0,[0.3120000000000118],38,0,38,0,1
,,,,,,,5f15aec1e584f420d64ed291,,,,,,5f15aec1e584f420d64ed291,Mężczyzna,31,2021-09-06_19h10.50.105,rantool2,2021.1.4,Win32,59.95203837,6135e006383e6ea6c3d06a28,61364b8090fdc783839617cf,"[""comma""]",0,[0.5019999999999527],39,0,39,0,1
,,,,,,,5f15aec1e584f420d64ed291,,,,,,5f15aec1e584f420d64ed291,Mężczyzna,31,2021-09-06_19h10.50.105,rantool2,2021.1.4,Win32,59.95203837,6135e006383e6ea6c3d06a28,61364b8090fdc783839617cf,"[""comma""]",0,[0.7619999999999436],40,0,40,0,1
,,,,,,,5f15aec1e584f420d64ed291,,,,,,5f15aec1e584f420d64ed291,Mężczyzna,31,2021-09-06_19h10.50.105,rantool2,2021.1.4,Win32,59.95203837,6135e006383e6ea6c3d06a28,61364b8090fdc783839617cf,"[""period""]",0,[0.2680000000000291],41,0,41,0,1
,,,,,,,5f15aec1e584f420d64ed291,,,,,,5f15aec1e584f420d64ed291,Mężczyzna,31,2021-09-06_19h10.50.105,rantool2,2021.1.4,Win32,59.95203837,6135e006383e6ea6c3d06a28,61364b8090fdc783839617cf,"[""comma""]",0,[0.33600000000001273],42,0,42,0,1
,,,,,,,5f15aec1e584f420d64ed291,,,,,,5f15aec1e584f420d64ed291,Mężczyzna,31,2021-09-06_19h10.50.105,rantool2,2021.1.4,Win32,59.95203837,6135e006383e6ea6c3d06a28,61364b8090fdc783839617cf,"[""period""]",0,[0.22299999999995634],43,0,43,0,1
,,,,,,,5f15aec1e584f420d64ed291,,,,,,5f15aec1e584f420d64ed291,Mężczyzna,31,2021-09-06_19h10.50.105,rantool2,2021.1.4,Win32,59.95203837,6135e006383e6ea6c3d06a28,61364b8090fdc783839617cf,"[""comma""]",0,[0.2400000000000091],44,0,44,0,1
,,,,,,,5f15aec1e584f420d64ed291,,,,,,5f15aec1e584f420d64ed291,Mężczyzna,31,2021-09-06_19h10.50.105,rantool2,2021.1.4,Win32,59.95203837,6135e006383e6ea6c3d06a28,61364b8090fdc783839617cf,"[""period""]",0,[0.08600000000001273],45,0,45,0,1
,,,,,,,5f15aec1e584f420d64ed291,,,,,,5f15aec1e584f420d64ed291,Mężczyzna,31,2021-09-06_19h10.50.105,rantool2,2021.1.4,Win32,59.95203837,6135e006383e6ea6c3d06a28,61364b8090fdc783839617cf,"[""period""]",0,[0.053999999999973625],46,0,46,0,1
,,,,,,,5f15aec1e584f420d64ed291,,,,,,5f15aec1e584f420d64ed291,Mężczyzna,31,2021-09-06_19h10.50.105,rantool2,2021.1.4,Win32,59.95203837,6135e006383e6ea6c3d06a28,61364b8090fdc783839617cf,"[""period""]",0,[0.16800000000000637],47,0,47,0,1
,,,,,,,5f15aec1e584f420d64ed291,,,,,,5f15aec1e584f420d64ed291,Mężczyzna,31,2021-09-06_19h10.50.105,rantool2,2021.1.4,Win32,59.95203837,6135e006383e6ea6c3d06a28,61364b8090fdc783839617cf,"[""comma""]",0,[0.31799999999998363],48,0,48,0,1
,,,,,,,5f15aec1e584f420d64ed291,,,,,,5f15aec1e584f420d64ed291,Mężczyzna,31,2021-09-06_19h10.50.105,rantool2,2021.1.4,Win32,59.95203837,6135e006383e6ea6c3d06a28,61364b8090fdc783839617cf,"[""period""]",0,[0.36200000000008004],49,0,49,0,1
,,,,,,,5f15aec1e584f420d64ed291,,,,,,5f15aec1e584f420d64ed291,Mężczyzna,31,2021-09-06_19h10.50.105,rantool2,2021.1.4,Win32,59.95203837,6135e006383e6ea6c3d06a28,61364b8090fdc783839617cf,"[""comma""]",0,[0.30600000000004],50,0,50,0,1
,,,,,,,5f15aec1e584f420d64ed291,,,,,,5f15aec1e584f420d64ed291,Mężczyzna,31,2021-09-06_19h10.50.105,rantool2,2021.1.4,Win32,59.95203837,6135e006383e6ea6c3d06a28,61364b8090fdc783839617cf,"[""comma"",""comma""]",0,"[0.08800000000007913,1.9540000000000646]",51,0,51,0,1
,,,,,,,5f15aec1e584f420d64ed291,,,,,,5f15aec1e584f420d64ed291,Mężczyzna,31,2021-09-06_19h10.50.105,rantool2,2021.1.4,Win32,59.95203837,6135e006383e6ea6c3d06a28,61364b8090fdc783839617cf,0,0,,52,0,52,0,1
,,,,,,,5f15aec1e584f420d64ed291,,,,,,5f15aec1e584f420d64ed291,Mężczyzna,31,2021-09-06_19h10.50.105,rantool2,2021.1.4,Win32,59.95203837,6135e006383e6ea6c3d06a28,61364b8090fdc783839617cf,"[""comma""]",0,[0.22400000000004638],53,0,53,0,1
,,,,,,,5f15aec1e584f420d64ed291,,,,,,5f15aec1e584f420d64ed291,Mężczyzna,31,2021-09-06_19h10.50.105,rantool2,2021.1.4,Win32,59.95203837,6135e006383e6ea6c3d06a28,61364b8090fdc783839617cf,"[""period""]",0,[0.2949999999999591],54,0,54,0,1
,,,,,,,5f15aec1e584f420d64ed291,,,,,,5f15aec1e584f420d64ed291,Mężczyzna,31,2021-09-06_19h10.50.105,rantool2,2021.1.4,Win32,59.95203837,6135e006383e6ea6c3d06a28,61364b8090fdc783839617cf,"[""period""]",0,[0.31799999999998363],55,0,55,0,1
,,,,,,,5f15aec1e584f420d64ed291,,,,,,5f15aec1e584f420d64ed291,Mężczyzna,31,2021-09-06_19h10.50.105,rantool2,2021.1.4,Win32,59.95203837,6135e006383e6ea6c3d06a28,61364b8090fdc783839617cf,"[""comma""]",0,[0.2860000000000582],56,0,56,0,1
,,,,,,,5f15aec1e584f420d64ed291,,,,,,5f15aec1e584f420d64ed291,Mężczyzna,31,2021-09-06_19h10.50.105,rantool2,2021.1.4,Win32,59.95203837,6135e006383e6ea6c3d06a28,61364b8090fdc783839617cf,"[""period""]",0,[0.27699999999992997],57,0,57,0,1
,,,,,,,5f15aec1e584f420d64ed291,,,,,,5f15aec1e584f420d64ed291,Mężczyzna,31,2021-09-06_19h10.50.105,rantool2,2021.1.4,Win32,59.95203837,6135e006383e6ea6c3d06a28,61364b8090fdc783839617cf,"[""comma""]",0,[0.14999999999997726],58,0,58,0,1
,,,,,,,5f15aec1e584f420d64ed291,,,,,,5f15aec1e584f420d64ed291,Mężczyzna,31,2021-09-06_19h10.50.105,rantool2,2021.1.4,Win32,59.95203837,6135e006383e6ea6c3d06a28,61364b8090fdc783839617cf,"[""period"",""comma""]",0,"[0.16000000000008185,1.9460000000000264]",59,0,59,0,1
,,,,,,,5f15aec1e584f420d64ed291,,,,,,5f15aec1e584f420d64ed291,Mężczyzna,31,2021-09-06_19h10.50.105,rantool2,2021.1.4,Win32,59.95203837,6135e006383e6ea6c3d06a28,61364b8090fdc783839617cf,0,0,,60,0,60,0,1
,,,,,,,5f15aec1e584f420d64ed291,,,,,,5f15aec1e584f420d64ed291,Mężczyzna,31,2021-09-06_19h10.50.105,rantool2,2021.1.4,Win32,59.95203837,6135e006383e6ea6c3d06a28,61364b8090fdc783839617cf,"[""comma"",""comma""]",0,"[0.024999999999977263,0.45900000000006]",61,0,61,0,1
,,,,,,,5f15aec1e584f420d64ed291,,,,,,5f15aec1e584f420d64ed291,Mężczyzna,31,2021-09-06_19h10.50.105,rantool2,2021.1.4,Win32,59.95203837,6135e006383e6ea6c3d06a28,61364b8090fdc783839617cf,"[""comma""]",0,[0.1069999999999709],62,0,62,0,1
,,,,,,,5f15aec1e584f420d64ed291,,,,,,5f15aec1e584f420d64ed291,Mężczyzna,31,2021-09-06_19h10.50.105,rantool2,2021.1.4,Win32,59.95203837,6135e006383e6ea6c3d06a28,61364b8090fdc783839617cf,"[""period""]",0,[0.051000000000044565],63,0,63,0,1
,,,,,,,5f15aec1e584f420d64ed291,,,,,,5f15aec1e584f420d64ed291,Mężczyzna,31,2021-09-06_19h10.50.105,rantool2,2021.1.4,Win32,59.95203837,6135e006383e6ea6c3d06a28,61364b8090fdc783839617cf,"[""period""]",0,[0.2939999999999827],64,0,64,0,1
,,,,,,,5f15aec1e584f420d64ed291,,,,,,5f15aec1e584f420d64ed291,Mężczyzna,31,2021-09-06_19h10.50.105,rantool2,2021.1.4,Win32,59.95203837,6135e006383e6ea6c3d06a28,61364b8090fdc783839617cf,"[""period"",""period""]",0,"[0.08699999999998909,1.850999999999999]",65,0,65,0,1
,,,,,,,5f15aec1e584f420d64ed291,,,,,,5f15aec1e584f420d64ed291,Mężczyzna,31,2021-09-06_19h10.50.105,rantool2,2021.1.4,Win32,59.95203837,6135e006383e6ea6c3d06a28,61364b8090fdc783839617cf,0,0,,66,0,66,0,1
,,,,,,,5f15aec1e584f420d64ed291,,,,,,5f15aec1e584f420d64ed291,Mężczyzna,31,2021-09-06_19h10.50.105,rantool2,2021.1.4,Win32,59.95203837,6135e006383e6ea6c3d06a28,61364b8090fdc783839617cf,"[""comma""]",0,[0.2899999999999636],67,0,67,0,1
,,,,,,,5f15aec1e584f420d64ed291,,,,,,5f15aec1e584f420d64ed291,Mężczyzna,31,2021-09-06_19h10.50.105,rantool2,2021.1.4,Win32,59.95203837,6135e006383e6ea6c3d06a28,61364b8090fdc783839617cf,"[""period""]",0,[0.3669999999999618],68,0,68,0,1
,,,,,,,5f15aec1e584f420d64ed291,,,,,,5f15aec1e584f420d64ed291,Mężczyzna,31,2021-09-06_19h10.50.105,rantool2,2021.1.4,Win32,59.95203837,6135e006383e6ea6c3d06a28,61364b8090fdc783839617cf,"[""period""]",0,[0.27099999999995816],69,0,69,0,1
,,,,,,,5f15aec1e584f420d64ed291,,,,,,5f15aec1e584f420d64ed291,Mężczyzna,31,2021-09-06_19h10.50.105,rantool2,2021.1.4,Win32,59.95203837,6135e006383e6ea6c3d06a28,61364b8090fdc783839617cf,"[""period""]",0,[0.32200000000000273],70,0,70,0,1
,,,,,,,5f15aec1e584f420d64ed291,,,,,,5f15aec1e584f420d64ed291,Mężczyzna,31,2021-09-06_19h10.50.105,rantool2,2021.1.4,Win32,59.95203837,6135e006383e6ea6c3d06a28,61364b8090fdc783839617cf,"[""period""]",0,[0.01700000000005275],71,0,71,0,1
,,,,,,,5f15aec1e584f420d64ed291,,,,,,5f15aec1e584f420d64ed291,Mężczyzna,31,2021-09-06_19h10.50.105,rantool2,2021.1.4,Win32,59.95203837,6135e006383e6ea6c3d06a28,61364b8090fdc783839617cf,"[""period""]",0,[0.03899999999998727],72,0,72,0,1
,,,,,,,5f15aec1e584f420d64ed291,,,,,,5f15aec1e584f420d64ed291,Mężczyzna,31,2021-09-06_19h10.50.105,rantool2,2021.1.4,Win32,59.95203837,6135e006383e6ea6c3d06a28,61364b8090fdc783839617cf,"[""period""]",0,[0.2599999999999909],73,0,73,0,1
,,,,,,,5f15aec1e584f420d64ed291,,,,,,5f15aec1e584f420d64ed291,Mężczyzna,31,2021-09-06_19h10.50.105,rantool2,2021.1.4,Win32,59.95203837,6135e006383e6ea6c3d06a28,61364b8090fdc783839617cf,"[""comma""]",0,[0.2939999999999827],74,0,74,0,1
,,,,,,,5f15aec1e584f420d64ed291,,,,,,5f15aec1e584f420d64ed291,Mężczyzna,31,2021-09-06_19h10.50.105,rantool2,2021.1.4,Win32,59.95203837,6135e006383e6ea6c3d06a28,61364b8090fdc783839617cf,"[""period""]",0,[0.2720000000000482],75,0,75,0,1
,,,,,,,5f15aec1e584f420d64ed291,,,,,,5f15aec1e584f420d64ed291,Mężczyzna,31,2021-09-06_19h10.50.105,rantool2,2021.1.4,Win32,59.95203837,6135e006383e6ea6c3d06a28,61364b8090fdc783839617cf,"[""period"",""period""]",0,"[0.05099999999993088,1.893000000000029]",76,0,76,0,1
,,,,,,,5f15aec1e584f420d64ed291,,,,,,5f15aec1e584f420d64ed291,Mężczyzna,31,2021-09-06_19h10.50.105,rantool2,2021.1.4,Win32,59.95203837,6135e006383e6ea6c3d06a28,61364b8090fdc783839617cf,"[""comma""]",0,[1.8360000000000127],77,0,77,0,1
,,,,,,,5f15aec1e584f420d64ed291,,,,,,5f15aec1e584f420d64ed291,Mężczyzna,31,2021-09-06_19h10.50.105,rantool2,2021.1.4,Win32,59.95203837,6135e006383e6ea6c3d06a28,61364b8090fdc783839617cf,"[""period""]",0,[1.2449999999998909],78,0,78,0,1
,,,,,,,5f15aec1e584f420d64ed291,,,,,,5f15aec1e584f420d64ed291,Mężczyzna,31,2021-09-06_19h10.50.105,rantool2,2021.1.4,Win32,59.95203837,6135e006383e6ea6c3d06a28,61364b8090fdc783839617cf,0,0,,79,0,79,0,1
,,,,,,,5f15aec1e584f420d64ed291,,,,,,5f15aec1e584f420d64ed291,Mężczyzna,31,2021-09-06_19h10.50.105,rantool2,2021.1.4,Win32,59.95203837,6135e006383e6ea6c3d06a28,61364b8090fdc783839617cf,"[""period""]",0,[0.39400000000000546],80,0,80,0,1
,,,,,,,5f15aec1e584f420d64ed291,,,,,,5f15aec1e584f420d64ed291,Mężczyzna,31,2021-09-06_19h10.50.105,rantool2,2021.1.4,Win32,59.95203837,6135e006383e6ea6c3d06a28,61364b8090fdc783839617cf,"[""period"",""comma""]",0,"[0.18399999999996908,0.18500000000005912]",81,0,81,0,1
,,,,,,,5f15aec1e584f420d64ed291,,,,,,5f15aec1e584f420d64ed291,Mężczyzna,31,2021-09-06_19h10.50.105,rantool2,2021.1.4,Win32,59.95203837,6135e006383e6ea6c3d06a28,61364b8090fdc783839617cf,"[""comma"",""period""]",0,"[0.2680000000000291,0.27100000000007185]",82,0,82,0,1
,,,,,,,5f15aec1e584f420d64ed291,,,,,,5f15aec1e584f420d64ed291,Mężczyzna,31,2021-09-06_19h10.50.105,rantool2,2021.1.4,Win32,59.95203837,6135e006383e6ea6c3d06a28,61364b8090fdc783839617cf,"[""comma"",""period""]",0,"[0.35599999999999454,0.3569999999999709]",83,0,83,0,1
,,,,,,,5f15aec1e584f420d64ed291,,,,,,5f15aec1e584f420d64ed291,Mężczyzna,31,2021-09-06_19h10.50.105,rantool2,2021.1.4,Win32,59.95203837,6135e006383e6ea6c3d06a28,61364b8090fdc783839617cf,"[""comma"",""period""]",0,"[0.3089999999999691,0.3109999999999218]",84,0,84,0,1
,,,,,,,5f15aec1e584f420d64ed291,,,,,,5f15aec1e584f420d64ed291,Mężczyzna,31,2021-09-06_19h10.50.105,rantool2,2021.1.4,Win32,59.95203837,6135e006383e6ea6c3d06a28,61364b8090fdc783839617cf,"[""period"",""comma""]",0,"[0.27099999999995816,0.2740000000000009]",85,0,85,0,1
,,,,,,,5f15aec1e584f420d64ed291,,,,,,5f15aec1e584f420d64ed291,Mężczyzna,31,2021-09-06_19h10.50.105,rantool2,2021.1.4,Win32,59.95203837,6135e006383e6ea6c3d06a28,61364b8090fdc783839617cf,"[""period"",""comma""]",0,"[0.2539999999999054,0.2779999999999063]",86,0,86,0,1
,,,,,,,5f15aec1e584f420d64ed291,,,,,,5f15aec1e584f420d64ed291,Mężczyzna,31,2021-09-06_19h10.50.105,rantool2,2021.1.4,Win32,59.95203837,6135e006383e6ea6c3d06a28,61364b8090fdc783839617cf,"[""comma"",""period""]",0,"[0.2599999999999909,0.2719999999999345]",87,0,87,0,1
,,,,,,,5f15aec1e584f420d64ed291,,,,,,5f15aec1e584f420d64ed291,Mężczyzna,31,2021-09-06_19h10.50.105,rantool2,2021.1.4,Win32,59.95203837,6135e006383e6ea6c3d06a28,61364b8090fdc783839617cf,"[""period"",""comma""]",0,"[0.15300000000002,0.16999999999995907]",88,0,88,0,1
,,,,,,,5f15aec1e584f420d64ed291,,,,,,5f15aec1e584f420d64ed291,Mężczyzna,31,2021-09-06_19h10.50.105,rantool2,2021.1.4,Win32,59.95203837,6135e006383e6ea6c3d06a28,61364b8090fdc783839617cf,"[""period"",""comma""]",0,"[0.1959999999999127,0.20499999999992724]",89,0,89,0,1
,,,,,,,5f15aec1e584f420d64ed291,,,,,,5f15aec1e584f420d64ed291,Mężczyzna,31,2021-09-06_19h10.50.105,rantool2,2021.1.4,Win32,59.95203837,6135e006383e6ea6c3d06a28,61364b8090fdc783839617cf,"[""period"",""comma""]",0,"[0.011999999999943611,1.9729999999999563]",90,0,90,0,1
,,,,,,,5f15aec1e584f420d64ed291,,,,,,5f15aec1e584f420d64ed291,Mężczyzna,31,2021-09-06_19h10.50.105,rantool2,2021.1.4,Win32,59.95203837,6135e006383e6ea6c3d06a28,61364b8090fdc783839617cf,"[""comma""]",0,[1.6470000000000482],91,0,91,0,1
,,,,,,,5f15aec1e584f420d64ed291,,,,,,5f15aec1e584f420d64ed291,Mężczyzna,31,2021-09-06_19h10.50.105,rantool2,2021.1.4,Win32,59.95203837,6135e006383e6ea6c3d06a28,61364b8090fdc783839617cf,0,0,,92,0,92,0,1
,,,,,,,5f15aec1e584f420d64ed291,,,,,,5f15aec1e584f420d64ed291,Mężczyzna,31,2021-09-06_19h10.50.105,rantool2,2021.1.4,Win32,59.95203837,6135e006383e6ea6c3d06a28,61364b8090fdc783839617cf,"[""comma"",""comma""]",0,"[0.01999999999998181,1.8109999999999218]",93,0,93,0,1
,,,,,,,5f15aec1e584f420d64ed291,,,,,,5f15aec1e584f420d64ed291,Mężczyzna,31,2021-09-06_19h10.50.105,rantool2,2021.1.4,Win32,59.95203837,6135e006383e6ea6c3d06a28,61364b8090fdc783839617cf,"[""comma""]",0,[1.9119999999999209],94,0,94,0,1
,,,,,,,5f15aec1e584f420d64ed291,,,,,,5f15aec1e584f420d64ed291,Mężczyzna,31,2021-09-06_19h10.50.105,rantool2,2021.1.4,Win32,59.95203837,6135e006383e6ea6c3d06a28,61364b8090fdc783839617cf,"[""comma""]",0,[1.5889999999999418],95,0,95,0,1
,,,,,,,5f15aec1e584f420d64ed291,,,,,,5f15aec1e584f420d64ed291,Mężczyzna,31,2021-09-06_19h10.50.105,rantool2,2021.1.4,Win32,59.95203837,6135e006383e6ea6c3d06a28,61364b8090fdc783839617cf,"[""period""]",0,[1.5690000000000737],96,0,96,0,1
,,,,,,,5f15aec1e584f420d64ed291,,,,,,5f15aec1e584f420d64ed291,Mężczyzna,31,2021-09-06_19h10.50.105,rantool2,2021.1.4,Win32,59.95203837,6135e006383e6ea6c3d06a28,61364b8090fdc783839617cf,0,0,,97,0,97,0,1
,,,,,,,5f15aec1e584f420d64ed291,,,,,,5f15aec1e584f420d64ed291,Mężczyzna,31,2021-09-06_19h10.50.105,rantool2,2021.1.4,Win32,59.95203837,6135e006383e6ea6c3d06a28,61364b8090fdc783839617cf,"[""period""]",0,[0.37000000000000455],98,0,98,0,1
,,,,,,,5f15aec1e584f420d64ed291,,,,,,5f15aec1e584f420d64ed291,Mężczyzna,31,2021-09-06_19h10.50.105,rantool2,2021.1.4,Win32,59.95203837,6135e006383e6ea6c3d06a28,61364b8090fdc783839617cf,"[""period"",""period""]",0,"[0.33600000000001273,1.8659999999999854]",99,0,99,0,1
,,,,,,,5f15aec1e584f420d64ed291,,,,,,5f15aec1e584f420d64ed291,Mężczyzna,31,2021-09-06_19h10.50.105,rantool2,2021.1.4,Win32,59.95203837,6135e006383e6ea6c3d06a28,61364b8090fdc783839617cf,0,0,,100,0,100,0,1
,,,,,,,5f15aec1e584f420d64ed291,,,,,,5f15aec1e584f420d64ed291,Mężczyzna,31,2021-09-06_19h10.50.105,rantool2,2021.1.4,Win32,59.95203837,6135e006383e6ea6c3d06a28,61364b8090fdc783839617cf,"[""period""]",0,[0.2580000000000382],101,0,101,0,1
,,,,,,,5f15aec1e584f420d64ed291,,,,,,5f15aec1e584f420d64ed291,Mężczyzna,31,2021-09-06_19h10.50.105,rantool2,2021.1.4,Win32,59.95203837,6135e006383e6ea6c3d06a28,61364b8090fdc783839617cf,"[""period""]",0,[0.30100000000004457],102,0,102,0,1
,,,,,,,5f15aec1e584f420d64ed291,,,,,,5f15aec1e584f420d64ed291,Mężczyzna,31,2021-09-06_19h10.50.105,rantool2,2021.1.4,Win32,59.95203837,6135e006383e6ea6c3d06a28,61364b8090fdc783839617cf,"[""comma""]",0,[0.2859999999999445],103,0,103,0,1
,,,,,,,5f15aec1e584f420d64ed291,,,,,,5f15aec1e584f420d64ed291,Mężczyzna,31,2021-09-06_19h10.50.105,rantool2,2021.1.4,Win32,59.95203837,6135e006383e6ea6c3d06a28,61364b8090fdc783839617cf,"[""comma""]",0,[0.16999999999995907],104,0,104,0,1
,,,,,,,5f15aec1e584f420d64ed291,,,,,,5f15aec1e584f420d64ed291,Mężczyzna,31,2021-09-06_19h10.50.105,rantool2,2021.1.4,Win32,59.95203837,6135e006383e6ea6c3d06a28,61364b8090fdc783839617cf,"[""comma""]",0,[0.30299999999999727],105,0,105,0,1
,,,,,,,5f15aec1e584f420d64ed291,,,,,,5f15aec1e584f420d64ed291,Mężczyzna,31,2021-09-06_19h10.50.105,rantool2,2021.1.4,Win32,59.95203837,6135e006383e6ea6c3d06a28,61364b8090fdc783839617cf,"[""comma""]",0,[0.3350000000000364],106,0,106,0,1
,,,,,,,5f15aec1e584f420d64ed291,,,,,,5f15aec1e584f420d64ed291,Mężczyzna,31,2021-09-06_19h10.50.105,rantool2,2021.1.4,Win32,59.95203837,6135e006383e6ea6c3d06a28,61364b8090fdc783839617cf,"[""comma""]",0,[0.22900000000004184],107,0,107,0,1
,,,,,,,5f15aec1e584f420d64ed291,,,,,,5f15aec1e584f420d64ed291,Mężczyzna,31,2021-09-06_19h10.50.105,rantool2,2021.1.4,Win32,59.95203837,6135e006383e6ea6c3d06a28,61364b8090fdc783839617cf,"[""comma"",""comma""]",0,"[0.11300000000005639,1.8940000000000055]",108,0,108,0,1
,,,,,,,5f15aec1e584f420d64ed291,,,,,,5f15aec1e584f420d64ed291,Mężczyzna,31,2021-09-06_19h10.50.105,rantool2,2021.1.4,Win32,59.95203837,6135e006383e6ea6c3d06a28,61364b8090fdc783839617cf,"[""period""]",0,[1.8700000000000045],109,0,109,0,1
,,,,,,,5f15aec1e584f420d64ed291,,,,,,5f15aec1e584f420d64ed291,Mężczyzna,31,2021-09-06_19h10.50.105,rantool2,2021.1.4,Win32,59.95203837,6135e006383e6ea6c3d06a28,61364b8090fdc783839617cf,0,0,,110,0,110,0,1
,,,,,,,5f15aec1e584f420d64ed291,,,,,,5f15aec1e584f420d64ed291,Mężczyzna,31,2021-09-06_19h10.50.105,rantool2,2021.1.4,Win32,59.95203837,6135e006383e6ea6c3d06a28,61364b8090fdc783839617cf,"[""period""]",0,[0.1550000000000864],111,0,111,0,1
,,,,,,,5f15aec1e584f420d64ed291,,,,,,5f15aec1e584f420d64ed291,Mężczyzna,31,2021-09-06_19h10.50.105,rantool2,2021.1.4,Win32,59.95203837,6135e006383e6ea6c3d06a28,61364b8090fdc783839617cf,"[""comma"",""period""]",0,"[-0.013000000000033651,1.86099999999999]",112,0,112,0,1
,,,,,,,5f15aec1e584f420d64ed291,,,,,,5f15aec1e584f420d64ed291,Mężczyzna,31,2021-09-06_19h10.50.105,rantool2,2021.1.4,Win32,59.95203837,6135e006383e6ea6c3d06a28,61364b8090fdc783839617cf,0,0,,113,0,113,0,1
,,,,,,,5f15aec1e584f420d64ed291,,,,,,5f15aec1e584f420d64ed291,Mężczyzna,31,2021-09-06_19h10.50.105,rantool2,2021.1.4,Win32,59.95203837,6135e006383e6ea6c3d06a28,61364b8090fdc783839617cf,"[""comma""]",0,[0.19299999999998363],114,0,114,0,1
,,,,,,,5f15aec1e584f420d64ed291,,,,,,5f15aec1e584f420d64ed291,Mężczyzna,31,2021-09-06_19h10.50.105,rantool2,2021.1.4,Win32,59.95203837,6135e006383e6ea6c3d06a28,61364b8090fdc783839617cf,"[""period""]",0,[0.12600000000009004],115,0,115,0,1
,,,,,,,5f15aec1e584f420d64ed291,,,,,,5f15aec1e584f420d64ed291,Mężczyzna,31,2021-09-06_19h10.50.105,rantool2,2021.1.4,Win32,59.95203837,6135e006383e6ea6c3d06a28,61364b8090fdc783839617cf,"[""comma""]",0,[0.1190000000000282],116,0,116,0,1
,,,,,,,5f15aec1e584f420d64ed291,,,,,,5f15aec1e584f420d64ed291,Mężczyzna,31,2021-09-06_19h10.50.105,rantool2,2021.1.4,Win32,59.95203837,6135e006383e6ea6c3d06a28,61364b8090fdc783839617cf,"[""period""]",0,[0.06300000000010186],117,0,117,0,1
,,,,,,,5f15aec1e584f420d64ed291,,,,,,5f15aec1e584f420d64ed291,Mężczyzna,31,2021-09-06_19h10.50.105,rantool2,2021.1.4,Win32,59.95203837,6135e006383e6ea6c3d06a28,61364b8090fdc783839617cf,"[""comma""]",0,[0.15300000000002],118,0,118,0,1
,,,,,,,5f15aec1e584f420d64ed291,,,,,,5f15aec1e584f420d64ed291,Mężczyzna,31,2021-09-06_19h10.50.105,rantool2,2021.1.4,Win32,59.95203837,6135e006383e6ea6c3d06a28,61364b8090fdc783839617cf,"[""period""]",0,[0.2179999999999609],119,0,119,0,1
