key_resp_5.keys,key_resp_5.corr,key_resp_5.rt,trials.thisRepN,trials.thisTrialN,trials.thisN,trials.thisIndex,trials.ran,id*,Płeć*,Wiek*,date,expName,psychopyVersion,OS,frameRate,id,STUDY_ID,SESSION_ID,key_resp_7.keys,key_resp_7.rt,trials_2.thisRepN,trials_2.thisTrialN,trials_2.thisN,trials_2.thisIndex,trials_2.ran,series_0,series_1,acss_0,acss_1,comparison
"[""comma""]",0,[0.6890000000000214],0,0,0,0,1,5f832c1efcce9447bcbb28de,Mężczyzna,23,2021-07-13_21h25.35.768,rantool2,2021.1.4,Win32,60.0240096,5f832c1efcce9447bcbb28de,60d9d14f4a8a35a482e0d9bf,60ede86077011f5f46e619d3,,,,,,,,,,,,
"[""comma""]",0,[0.7110000000000127],1,0,1,0,1,5f832c1efcce9447bcbb28de,Mężczyzna,23,2021-07-13_21h25.35.768,rantool2,2021.1.4,Win32,60.0240096,5f832c1efcce9447bcbb28de,60d9d14f4a8a35a482e0d9bf,60ede86077011f5f46e619d3,,,,,,,,,,,,
"[""comma""]",0,[0.5230000000000246],2,0,2,0,1,5f832c1efcce9447bcbb28de,Mężczyzna,23,2021-07-13_21h25.35.768,rantool2,2021.1.4,Win32,60.0240096,5f832c1efcce9447bcbb28de,60d9d14f4a8a35a482e0d9bf,60ede86077011f5f46e619d3,,,,,,,,,,,,
"[""comma""]",0,[0.5840000000000032],3,0,3,0,1,5f832c1efcce9447bcbb28de,Mężczyzna,23,2021-07-13_21h25.35.768,rantool2,2021.1.4,Win32,60.0240096,5f832c1efcce9447bcbb28de,60d9d14f4a8a35a482e0d9bf,60ede86077011f5f46e619d3,,,,,,,,,,,,
"[""period""]",0,[0.5289999999999964],4,0,4,0,1,5f832c1efcce9447bcbb28de,Mężczyzna,23,2021-07-13_21h25.35.768,rantool2,2021.1.4,Win32,60.0240096,5f832c1efcce9447bcbb28de,60d9d14f4a8a35a482e0d9bf,60ede86077011f5f46e619d3,,,,,,,,,,,,
"[""period""]",0,[0.5050000000000239],5,0,5,0,1,5f832c1efcce9447bcbb28de,Mężczyzna,23,2021-07-13_21h25.35.768,rantool2,2021.1.4,Win32,60.0240096,5f832c1efcce9447bcbb28de,60d9d14f4a8a35a482e0d9bf,60ede86077011f5f46e619d3,,,,,,,,,,,,
"[""period""]",0,[0.3720000000000141],6,0,6,0,1,5f832c1efcce9447bcbb28de,Mężczyzna,23,2021-07-13_21h25.35.768,rantool2,2021.1.4,Win32,60.0240096,5f832c1efcce9447bcbb28de,60d9d14f4a8a35a482e0d9bf,60ede86077011f5f46e619d3,,,,,,,,,,,,
"[""period""]",0,[0.46800000000001774],7,0,7,0,1,5f832c1efcce9447bcbb28de,Mężczyzna,23,2021-07-13_21h25.35.768,rantool2,2021.1.4,Win32,60.0240096,5f832c1efcce9447bcbb28de,60d9d14f4a8a35a482e0d9bf,60ede86077011f5f46e619d3,,,,,,,,,,,,
"[""comma""]",0,[0.40800000000001546],8,0,8,0,1,5f832c1efcce9447bcbb28de,Mężczyzna,23,2021-07-13_21h25.35.768,rantool2,2021.1.4,Win32,60.0240096,5f832c1efcce9447bcbb28de,60d9d14f4a8a35a482e0d9bf,60ede86077011f5f46e619d3,,,,,,,,,,,,
"[""comma""]",0,[0.37000000000000455],9,0,9,0,1,5f832c1efcce9447bcbb28de,Mężczyzna,23,2021-07-13_21h25.35.768,rantool2,2021.1.4,Win32,60.0240096,5f832c1efcce9447bcbb28de,60d9d14f4a8a35a482e0d9bf,60ede86077011f5f46e619d3,,,,,,,,,,,,
"[""period""]",0,[0.4269999999999925],10,0,10,0,1,5f832c1efcce9447bcbb28de,Mężczyzna,23,2021-07-13_21h25.35.768,rantool2,2021.1.4,Win32,60.0240096,5f832c1efcce9447bcbb28de,60d9d14f4a8a35a482e0d9bf,60ede86077011f5f46e619d3,,,,,,,,,,,,
"[""period""]",0,[0.32800000000000296],11,0,11,0,1,5f832c1efcce9447bcbb28de,Mężczyzna,23,2021-07-13_21h25.35.768,rantool2,2021.1.4,Win32,60.0240096,5f832c1efcce9447bcbb28de,60d9d14f4a8a35a482e0d9bf,60ede86077011f5f46e619d3,,,,,,,,,,,,
"[""comma""]",0,[0.2669999999999959],12,0,12,0,1,5f832c1efcce9447bcbb28de,Mężczyzna,23,2021-07-13_21h25.35.768,rantool2,2021.1.4,Win32,60.0240096,5f832c1efcce9447bcbb28de,60d9d14f4a8a35a482e0d9bf,60ede86077011f5f46e619d3,,,,,,,,,,,,
"[""comma""]",0,[0.3240000000000123],13,0,13,0,1,5f832c1efcce9447bcbb28de,Mężczyzna,23,2021-07-13_21h25.35.768,rantool2,2021.1.4,Win32,60.0240096,5f832c1efcce9447bcbb28de,60d9d14f4a8a35a482e0d9bf,60ede86077011f5f46e619d3,,,,,,,,,,,,
"[""period""]",0,[0.22500000000002274],14,0,14,0,1,5f832c1efcce9447bcbb28de,Mężczyzna,23,2021-07-13_21h25.35.768,rantool2,2021.1.4,Win32,60.0240096,5f832c1efcce9447bcbb28de,60d9d14f4a8a35a482e0d9bf,60ede86077011f5f46e619d3,,,,,,,,,,,,
"[""period""]",0,[0.07500000000001705],15,0,15,0,1,5f832c1efcce9447bcbb28de,Mężczyzna,23,2021-07-13_21h25.35.768,rantool2,2021.1.4,Win32,60.0240096,5f832c1efcce9447bcbb28de,60d9d14f4a8a35a482e0d9bf,60ede86077011f5f46e619d3,,,,,,,,,,,,
"[""comma""]",0,[0.3190000000000168],16,0,16,0,1,5f832c1efcce9447bcbb28de,Mężczyzna,23,2021-07-13_21h25.35.768,rantool2,2021.1.4,Win32,60.0240096,5f832c1efcce9447bcbb28de,60d9d14f4a8a35a482e0d9bf,60ede86077011f5f46e619d3,,,,,,,,,,,,
"[""comma""]",0,[0.22800000000000864],17,0,17,0,1,5f832c1efcce9447bcbb28de,Mężczyzna,23,2021-07-13_21h25.35.768,rantool2,2021.1.4,Win32,60.0240096,5f832c1efcce9447bcbb28de,60d9d14f4a8a35a482e0d9bf,60ede86077011f5f46e619d3,,,,,,,,,,,,
"[""comma""]",0,[0.0730000000000075],18,0,18,0,1,5f832c1efcce9447bcbb28de,Mężczyzna,23,2021-07-13_21h25.35.768,rantool2,2021.1.4,Win32,60.0240096,5f832c1efcce9447bcbb28de,60d9d14f4a8a35a482e0d9bf,60ede86077011f5f46e619d3,,,,,,,,,,,,
"[""comma"",""period""]",0,"[0.1419999999999959,1.953000000000003]",19,0,19,0,1,5f832c1efcce9447bcbb28de,Mężczyzna,23,2021-07-13_21h25.35.768,rantool2,2021.1.4,Win32,60.0240096,5f832c1efcce9447bcbb28de,60d9d14f4a8a35a482e0d9bf,60ede86077011f5f46e619d3,,,,,,,,,,,,
0,0,,20,0,20,0,1,5f832c1efcce9447bcbb28de,Mężczyzna,23,2021-07-13_21h25.35.768,rantool2,2021.1.4,Win32,60.0240096,5f832c1efcce9447bcbb28de,60d9d14f4a8a35a482e0d9bf,60ede86077011f5f46e619d3,,,,,,,,,,,,
"[""period""]",0,[0.5180000000000007],21,0,21,0,1,5f832c1efcce9447bcbb28de,Mężczyzna,23,2021-07-13_21h25.35.768,rantool2,2021.1.4,Win32,60.0240096,5f832c1efcce9447bcbb28de,60d9d14f4a8a35a482e0d9bf,60ede86077011f5f46e619d3,,,,,,,,,,,,
"[""period""]",0,[0.492999999999995],22,0,22,0,1,5f832c1efcce9447bcbb28de,Mężczyzna,23,2021-07-13_21h25.35.768,rantool2,2021.1.4,Win32,60.0240096,5f832c1efcce9447bcbb28de,60d9d14f4a8a35a482e0d9bf,60ede86077011f5f46e619d3,,,,,,,,,,,,
"[""period""]",0,[0.46999999999999886],23,0,23,0,1,5f832c1efcce9447bcbb28de,Mężczyzna,23,2021-07-13_21h25.35.768,rantool2,2021.1.4,Win32,60.0240096,5f832c1efcce9447bcbb28de,60d9d14f4a8a35a482e0d9bf,60ede86077011f5f46e619d3,,,,,,,,,,,,
"[""period""]",0,[0.5500000000000114],24,0,24,0,1,5f832c1efcce9447bcbb28de,Mężczyzna,23,2021-07-13_21h25.35.768,rantool2,2021.1.4,Win32,60.0240096,5f832c1efcce9447bcbb28de,60d9d14f4a8a35a482e0d9bf,60ede86077011f5f46e619d3,,,,,,,,,,,,
0,0,,25,0,25,0,1,5f832c1efcce9447bcbb28de,Mężczyzna,23,2021-07-13_21h25.35.768,rantool2,2021.1.4,Win32,60.0240096,5f832c1efcce9447bcbb28de,60d9d14f4a8a35a482e0d9bf,60ede86077011f5f46e619d3,,,,,,,,,,,,
"[""period""]",0,[0.28700000000000614],26,0,26,0,1,5f832c1efcce9447bcbb28de,Mężczyzna,23,2021-07-13_21h25.35.768,rantool2,2021.1.4,Win32,60.0240096,5f832c1efcce9447bcbb28de,60d9d14f4a8a35a482e0d9bf,60ede86077011f5f46e619d3,,,,,,,,,,,,
"[""comma""]",0,[0.28000000000000114],27,0,27,0,1,5f832c1efcce9447bcbb28de,Mężczyzna,23,2021-07-13_21h25.35.768,rantool2,2021.1.4,Win32,60.0240096,5f832c1efcce9447bcbb28de,60d9d14f4a8a35a482e0d9bf,60ede86077011f5f46e619d3,,,,,,,,,,,,
"[""comma""]",0,[0.2680000000000007],28,0,28,0,1,5f832c1efcce9447bcbb28de,Mężczyzna,23,2021-07-13_21h25.35.768,rantool2,2021.1.4,Win32,60.0240096,5f832c1efcce9447bcbb28de,60d9d14f4a8a35a482e0d9bf,60ede86077011f5f46e619d3,,,,,,,,,,,,
"[""period""]",0,[0.28700000000000614],29,0,29,0,1,5f832c1efcce9447bcbb28de,Mężczyzna,23,2021-07-13_21h25.35.768,rantool2,2021.1.4,Win32,60.0240096,5f832c1efcce9447bcbb28de,60d9d14f4a8a35a482e0d9bf,60ede86077011f5f46e619d3,,,,,,,,,,,,
"[""comma""]",0,[0.367999999999995],30,0,30,0,1,5f832c1efcce9447bcbb28de,Mężczyzna,23,2021-07-13_21h25.35.768,rantool2,2021.1.4,Win32,60.0240096,5f832c1efcce9447bcbb28de,60d9d14f4a8a35a482e0d9bf,60ede86077011f5f46e619d3,,,,,,,,,,,,
"[""comma""]",0,[0.35300000000000864],31,0,31,0,1,5f832c1efcce9447bcbb28de,Mężczyzna,23,2021-07-13_21h25.35.768,rantool2,2021.1.4,Win32,60.0240096,5f832c1efcce9447bcbb28de,60d9d14f4a8a35a482e0d9bf,60ede86077011f5f46e619d3,,,,,,,,,,,,
"[""period""]",0,[0.27800000000002],32,0,32,0,1,5f832c1efcce9447bcbb28de,Mężczyzna,23,2021-07-13_21h25.35.768,rantool2,2021.1.4,Win32,60.0240096,5f832c1efcce9447bcbb28de,60d9d14f4a8a35a482e0d9bf,60ede86077011f5f46e619d3,,,,,,,,,,,,
"[""comma""]",0,[0.117999999999995],33,0,33,0,1,5f832c1efcce9447bcbb28de,Mężczyzna,23,2021-07-13_21h25.35.768,rantool2,2021.1.4,Win32,60.0240096,5f832c1efcce9447bcbb28de,60d9d14f4a8a35a482e0d9bf,60ede86077011f5f46e619d3,,,,,,,,,,,,
"[""comma""]",0,[0.028999999999996362],34,0,34,0,1,5f832c1efcce9447bcbb28de,Mężczyzna,23,2021-07-13_21h25.35.768,rantool2,2021.1.4,Win32,60.0240096,5f832c1efcce9447bcbb28de,60d9d14f4a8a35a482e0d9bf,60ede86077011f5f46e619d3,,,,,,,,,,,,
"[""period""]",0,[0.15100000000001046],35,0,35,0,1,5f832c1efcce9447bcbb28de,Mężczyzna,23,2021-07-13_21h25.35.768,rantool2,2021.1.4,Win32,60.0240096,5f832c1efcce9447bcbb28de,60d9d14f4a8a35a482e0d9bf,60ede86077011f5f46e619d3,,,,,,,,,,,,
"[""period""]",0,[0.12100000000000932],36,0,36,0,1,5f832c1efcce9447bcbb28de,Mężczyzna,23,2021-07-13_21h25.35.768,rantool2,2021.1.4,Win32,60.0240096,5f832c1efcce9447bcbb28de,60d9d14f4a8a35a482e0d9bf,60ede86077011f5f46e619d3,,,,,,,,,,,,
"[""period""]",0,[0.22499999999999432],37,0,37,0,1,5f832c1efcce9447bcbb28de,Mężczyzna,23,2021-07-13_21h25.35.768,rantool2,2021.1.4,Win32,60.0240096,5f832c1efcce9447bcbb28de,60d9d14f4a8a35a482e0d9bf,60ede86077011f5f46e619d3,,,,,,,,,,,,
"[""comma""]",0,[0.21100000000001273],38,0,38,0,1,5f832c1efcce9447bcbb28de,Mężczyzna,23,2021-07-13_21h25.35.768,rantool2,2021.1.4,Win32,60.0240096,5f832c1efcce9447bcbb28de,60d9d14f4a8a35a482e0d9bf,60ede86077011f5f46e619d3,,,,,,,,,,,,
"[""comma""]",0,[0.12600000000000477],39,0,39,0,1,5f832c1efcce9447bcbb28de,Mężczyzna,23,2021-07-13_21h25.35.768,rantool2,2021.1.4,Win32,60.0240096,5f832c1efcce9447bcbb28de,60d9d14f4a8a35a482e0d9bf,60ede86077011f5f46e619d3,,,,,,,,,,,,
"[""period""]",0,[0.15800000000001546],40,0,40,0,1,5f832c1efcce9447bcbb28de,Mężczyzna,23,2021-07-13_21h25.35.768,rantool2,2021.1.4,Win32,60.0240096,5f832c1efcce9447bcbb28de,60d9d14f4a8a35a482e0d9bf,60ede86077011f5f46e619d3,,,,,,,,,,,,
"[""comma""]",0,[0.08400000000000318],41,0,41,0,1,5f832c1efcce9447bcbb28de,Mężczyzna,23,2021-07-13_21h25.35.768,rantool2,2021.1.4,Win32,60.0240096,5f832c1efcce9447bcbb28de,60d9d14f4a8a35a482e0d9bf,60ede86077011f5f46e619d3,,,,,,,,,,,,
"[""comma""]",0,[0.2189999999999941],42,0,42,0,1,5f832c1efcce9447bcbb28de,Mężczyzna,23,2021-07-13_21h25.35.768,rantool2,2021.1.4,Win32,60.0240096,5f832c1efcce9447bcbb28de,60d9d14f4a8a35a482e0d9bf,60ede86077011f5f46e619d3,,,,,,,,,,,,
"[""period""]",0,[0.2600000000000193],43,0,43,0,1,5f832c1efcce9447bcbb28de,Mężczyzna,23,2021-07-13_21h25.35.768,rantool2,2021.1.4,Win32,60.0240096,5f832c1efcce9447bcbb28de,60d9d14f4a8a35a482e0d9bf,60ede86077011f5f46e619d3,,,,,,,,,,,,
"[""comma""]",0,[0.24100000000001387],44,0,44,0,1,5f832c1efcce9447bcbb28de,Mężczyzna,23,2021-07-13_21h25.35.768,rantool2,2021.1.4,Win32,60.0240096,5f832c1efcce9447bcbb28de,60d9d14f4a8a35a482e0d9bf,60ede86077011f5f46e619d3,,,,,,,,,,,,
"[""comma""]",0,[0.24399999999999977],45,0,45,0,1,5f832c1efcce9447bcbb28de,Mężczyzna,23,2021-07-13_21h25.35.768,rantool2,2021.1.4,Win32,60.0240096,5f832c1efcce9447bcbb28de,60d9d14f4a8a35a482e0d9bf,60ede86077011f5f46e619d3,,,,,,,,,,,,
"[""comma""]",0,[0.21399999999999864],46,0,46,0,1,5f832c1efcce9447bcbb28de,Mężczyzna,23,2021-07-13_21h25.35.768,rantool2,2021.1.4,Win32,60.0240096,5f832c1efcce9447bcbb28de,60d9d14f4a8a35a482e0d9bf,60ede86077011f5f46e619d3,,,,,,,,,,,,
"[""comma""]",0,[0.3300000000000125],47,0,47,0,1,5f832c1efcce9447bcbb28de,Mężczyzna,23,2021-07-13_21h25.35.768,rantool2,2021.1.4,Win32,60.0240096,5f832c1efcce9447bcbb28de,60d9d14f4a8a35a482e0d9bf,60ede86077011f5f46e619d3,,,,,,,,,,,,
"[""comma""]",0,[0.3410000000000082],48,0,48,0,1,5f832c1efcce9447bcbb28de,Mężczyzna,23,2021-07-13_21h25.35.768,rantool2,2021.1.4,Win32,60.0240096,5f832c1efcce9447bcbb28de,60d9d14f4a8a35a482e0d9bf,60ede86077011f5f46e619d3,,,,,,,,,,,,
"[""comma""]",0,[0.5600000000000023],49,0,49,0,1,5f832c1efcce9447bcbb28de,Mężczyzna,23,2021-07-13_21h25.35.768,rantool2,2021.1.4,Win32,60.0240096,5f832c1efcce9447bcbb28de,60d9d14f4a8a35a482e0d9bf,60ede86077011f5f46e619d3,,,,,,,,,,,,
"[""comma""]",0,[0.3789999999999907],50,0,50,0,1,5f832c1efcce9447bcbb28de,Mężczyzna,23,2021-07-13_21h25.35.768,rantool2,2021.1.4,Win32,60.0240096,5f832c1efcce9447bcbb28de,60d9d14f4a8a35a482e0d9bf,60ede86077011f5f46e619d3,,,,,,,,,,,,
"[""period""]",0,[0.6119999999999948],51,0,51,0,1,5f832c1efcce9447bcbb28de,Mężczyzna,23,2021-07-13_21h25.35.768,rantool2,2021.1.4,Win32,60.0240096,5f832c1efcce9447bcbb28de,60d9d14f4a8a35a482e0d9bf,60ede86077011f5f46e619d3,,,,,,,,,,,,
"[""period""]",0,[0.3120000000000118],52,0,52,0,1,5f832c1efcce9447bcbb28de,Mężczyzna,23,2021-07-13_21h25.35.768,rantool2,2021.1.4,Win32,60.0240096,5f832c1efcce9447bcbb28de,60d9d14f4a8a35a482e0d9bf,60ede86077011f5f46e619d3,,,,,,,,,,,,
"[""comma""]",0,[0.4439999999999884],53,0,53,0,1,5f832c1efcce9447bcbb28de,Mężczyzna,23,2021-07-13_21h25.35.768,rantool2,2021.1.4,Win32,60.0240096,5f832c1efcce9447bcbb28de,60d9d14f4a8a35a482e0d9bf,60ede86077011f5f46e619d3,,,,,,,,,,,,
"[""period""]",0,[0.3009999999999877],54,0,54,0,1,5f832c1efcce9447bcbb28de,Mężczyzna,23,2021-07-13_21h25.35.768,rantool2,2021.1.4,Win32,60.0240096,5f832c1efcce9447bcbb28de,60d9d14f4a8a35a482e0d9bf,60ede86077011f5f46e619d3,,,,,,,,,,,,
"[""period""]",0,[0.45799999999997],55,0,55,0,1,5f832c1efcce9447bcbb28de,Mężczyzna,23,2021-07-13_21h25.35.768,rantool2,2021.1.4,Win32,60.0240096,5f832c1efcce9447bcbb28de,60d9d14f4a8a35a482e0d9bf,60ede86077011f5f46e619d3,,,,,,,,,,,,
"[""comma""]",0,[0.4949999999999477],56,0,56,0,1,5f832c1efcce9447bcbb28de,Mężczyzna,23,2021-07-13_21h25.35.768,rantool2,2021.1.4,Win32,60.0240096,5f832c1efcce9447bcbb28de,60d9d14f4a8a35a482e0d9bf,60ede86077011f5f46e619d3,,,,,,,,,,,,
"[""comma""]",0,[0.4089999999999918],57,0,57,0,1,5f832c1efcce9447bcbb28de,Mężczyzna,23,2021-07-13_21h25.35.768,rantool2,2021.1.4,Win32,60.0240096,5f832c1efcce9447bcbb28de,60d9d14f4a8a35a482e0d9bf,60ede86077011f5f46e619d3,,,,,,,,,,,,
"[""comma""]",0,[0.4399999999999977],58,0,58,0,1,5f832c1efcce9447bcbb28de,Mężczyzna,23,2021-07-13_21h25.35.768,rantool2,2021.1.4,Win32,60.0240096,5f832c1efcce9447bcbb28de,60d9d14f4a8a35a482e0d9bf,60ede86077011f5f46e619d3,,,,,,,,,,,,
"[""comma""]",0,[0.35199999999997544],59,0,59,0,1,5f832c1efcce9447bcbb28de,Mężczyzna,23,2021-07-13_21h25.35.768,rantool2,2021.1.4,Win32,60.0240096,5f832c1efcce9447bcbb28de,60d9d14f4a8a35a482e0d9bf,60ede86077011f5f46e619d3,,,,,,,,,,,,
"[""comma""]",0,[0.3709999999999809],60,0,60,0,1,5f832c1efcce9447bcbb28de,Mężczyzna,23,2021-07-13_21h25.35.768,rantool2,2021.1.4,Win32,60.0240096,5f832c1efcce9447bcbb28de,60d9d14f4a8a35a482e0d9bf,60ede86077011f5f46e619d3,,,,,,,,,,,,
"[""comma""]",0,[0.34300000000001774],61,0,61,0,1,5f832c1efcce9447bcbb28de,Mężczyzna,23,2021-07-13_21h25.35.768,rantool2,2021.1.4,Win32,60.0240096,5f832c1efcce9447bcbb28de,60d9d14f4a8a35a482e0d9bf,60ede86077011f5f46e619d3,,,,,,,,,,,,
"[""comma""]",0,[0.47199999999998],62,0,62,0,1,5f832c1efcce9447bcbb28de,Mężczyzna,23,2021-07-13_21h25.35.768,rantool2,2021.1.4,Win32,60.0240096,5f832c1efcce9447bcbb28de,60d9d14f4a8a35a482e0d9bf,60ede86077011f5f46e619d3,,,,,,,,,,,,
"[""comma""]",0,[0.5959999999999468],63,0,63,0,1,5f832c1efcce9447bcbb28de,Mężczyzna,23,2021-07-13_21h25.35.768,rantool2,2021.1.4,Win32,60.0240096,5f832c1efcce9447bcbb28de,60d9d14f4a8a35a482e0d9bf,60ede86077011f5f46e619d3,,,,,,,,,,,,
"[""comma""]",0,[0.4479999999999791],64,0,64,0,1,5f832c1efcce9447bcbb28de,Mężczyzna,23,2021-07-13_21h25.35.768,rantool2,2021.1.4,Win32,60.0240096,5f832c1efcce9447bcbb28de,60d9d14f4a8a35a482e0d9bf,60ede86077011f5f46e619d3,,,,,,,,,,,,
"[""comma""]",0,[1.1679999999999495],65,0,65,0,1,5f832c1efcce9447bcbb28de,Mężczyzna,23,2021-07-13_21h25.35.768,rantool2,2021.1.4,Win32,60.0240096,5f832c1efcce9447bcbb28de,60d9d14f4a8a35a482e0d9bf,60ede86077011f5f46e619d3,,,,,,,,,,,,
"[""period""]",0,[0.3009999999999877],66,0,66,0,1,5f832c1efcce9447bcbb28de,Mężczyzna,23,2021-07-13_21h25.35.768,rantool2,2021.1.4,Win32,60.0240096,5f832c1efcce9447bcbb28de,60d9d14f4a8a35a482e0d9bf,60ede86077011f5f46e619d3,,,,,,,,,,,,
"[""comma""]",0,[0.2699999999999818],67,0,67,0,1,5f832c1efcce9447bcbb28de,Mężczyzna,23,2021-07-13_21h25.35.768,rantool2,2021.1.4,Win32,60.0240096,5f832c1efcce9447bcbb28de,60d9d14f4a8a35a482e0d9bf,60ede86077011f5f46e619d3,,,,,,,,,,,,
"[""comma""]",0,[0.18599999999997863],68,0,68,0,1,5f832c1efcce9447bcbb28de,Mężczyzna,23,2021-07-13_21h25.35.768,rantool2,2021.1.4,Win32,60.0240096,5f832c1efcce9447bcbb28de,60d9d14f4a8a35a482e0d9bf,60ede86077011f5f46e619d3,,,,,,,,,,,,
"[""period""]",0,[0.5289999999999964],69,0,69,0,1,5f832c1efcce9447bcbb28de,Mężczyzna,23,2021-07-13_21h25.35.768,rantool2,2021.1.4,Win32,60.0240096,5f832c1efcce9447bcbb28de,60d9d14f4a8a35a482e0d9bf,60ede86077011f5f46e619d3,,,,,,,,,,,,
"[""comma""]",0,[0.5189999999999486],70,0,70,0,1,5f832c1efcce9447bcbb28de,Mężczyzna,23,2021-07-13_21h25.35.768,rantool2,2021.1.4,Win32,60.0240096,5f832c1efcce9447bcbb28de,60d9d14f4a8a35a482e0d9bf,60ede86077011f5f46e619d3,,,,,,,,,,,,
"[""period""]",0,[0.31799999999998363],71,0,71,0,1,5f832c1efcce9447bcbb28de,Mężczyzna,23,2021-07-13_21h25.35.768,rantool2,2021.1.4,Win32,60.0240096,5f832c1efcce9447bcbb28de,60d9d14f4a8a35a482e0d9bf,60ede86077011f5f46e619d3,,,,,,,,,,,,
"[""period""]",0,[0.4049999999999727],72,0,72,0,1,5f832c1efcce9447bcbb28de,Mężczyzna,23,2021-07-13_21h25.35.768,rantool2,2021.1.4,Win32,60.0240096,5f832c1efcce9447bcbb28de,60d9d14f4a8a35a482e0d9bf,60ede86077011f5f46e619d3,,,,,,,,,,,,
"[""period""]",0,[0.3269999999999982],73,0,73,0,1,5f832c1efcce9447bcbb28de,Mężczyzna,23,2021-07-13_21h25.35.768,rantool2,2021.1.4,Win32,60.0240096,5f832c1efcce9447bcbb28de,60d9d14f4a8a35a482e0d9bf,60ede86077011f5f46e619d3,,,,,,,,,,,,
"[""comma""]",0,[0.5439999999999827],74,0,74,0,1,5f832c1efcce9447bcbb28de,Mężczyzna,23,2021-07-13_21h25.35.768,rantool2,2021.1.4,Win32,60.0240096,5f832c1efcce9447bcbb28de,60d9d14f4a8a35a482e0d9bf,60ede86077011f5f46e619d3,,,,,,,,,,,,
"[""comma""]",0,[0.3720000000000141],75,0,75,0,1,5f832c1efcce9447bcbb28de,Mężczyzna,23,2021-07-13_21h25.35.768,rantool2,2021.1.4,Win32,60.0240096,5f832c1efcce9447bcbb28de,60d9d14f4a8a35a482e0d9bf,60ede86077011f5f46e619d3,,,,,,,,,,,,
"[""comma""]",0,[0.3580000000000041],76,0,76,0,1,5f832c1efcce9447bcbb28de,Mężczyzna,23,2021-07-13_21h25.35.768,rantool2,2021.1.4,Win32,60.0240096,5f832c1efcce9447bcbb28de,60d9d14f4a8a35a482e0d9bf,60ede86077011f5f46e619d3,,,,,,,,,,,,
"[""period""]",0,[0.23399999999998045],77,0,77,0,1,5f832c1efcce9447bcbb28de,Mężczyzna,23,2021-07-13_21h25.35.768,rantool2,2021.1.4,Win32,60.0240096,5f832c1efcce9447bcbb28de,60d9d14f4a8a35a482e0d9bf,60ede86077011f5f46e619d3,,,,,,,,,,,,
"[""comma""]",0,[0.4259999999999877],78,0,78,0,1,5f832c1efcce9447bcbb28de,Mężczyzna,23,2021-07-13_21h25.35.768,rantool2,2021.1.4,Win32,60.0240096,5f832c1efcce9447bcbb28de,60d9d14f4a8a35a482e0d9bf,60ede86077011f5f46e619d3,,,,,,,,,,,,
"[""comma""]",0,[0.3939999999999486],79,0,79,0,1,5f832c1efcce9447bcbb28de,Mężczyzna,23,2021-07-13_21h25.35.768,rantool2,2021.1.4,Win32,60.0240096,5f832c1efcce9447bcbb28de,60d9d14f4a8a35a482e0d9bf,60ede86077011f5f46e619d3,,,,,,,,,,,,
"[""comma""]",0,[0.3919999999999959],80,0,80,0,1,5f832c1efcce9447bcbb28de,Mężczyzna,23,2021-07-13_21h25.35.768,rantool2,2021.1.4,Win32,60.0240096,5f832c1efcce9447bcbb28de,60d9d14f4a8a35a482e0d9bf,60ede86077011f5f46e619d3,,,,,,,,,,,,
"[""comma""]",0,[0.36099999999999],81,0,81,0,1,5f832c1efcce9447bcbb28de,Mężczyzna,23,2021-07-13_21h25.35.768,rantool2,2021.1.4,Win32,60.0240096,5f832c1efcce9447bcbb28de,60d9d14f4a8a35a482e0d9bf,60ede86077011f5f46e619d3,,,,,,,,,,,,
"[""comma""]",0,[0.45100000000002183],82,0,82,0,1,5f832c1efcce9447bcbb28de,Mężczyzna,23,2021-07-13_21h25.35.768,rantool2,2021.1.4,Win32,60.0240096,5f832c1efcce9447bcbb28de,60d9d14f4a8a35a482e0d9bf,60ede86077011f5f46e619d3,,,,,,,,,,,,
"[""period""]",0,[0.339999999999975],83,0,83,0,1,5f832c1efcce9447bcbb28de,Mężczyzna,23,2021-07-13_21h25.35.768,rantool2,2021.1.4,Win32,60.0240096,5f832c1efcce9447bcbb28de,60d9d14f4a8a35a482e0d9bf,60ede86077011f5f46e619d3,,,,,,,,,,,,
"[""period""]",0,[0.2720000000000482],84,0,84,0,1,5f832c1efcce9447bcbb28de,Mężczyzna,23,2021-07-13_21h25.35.768,rantool2,2021.1.4,Win32,60.0240096,5f832c1efcce9447bcbb28de,60d9d14f4a8a35a482e0d9bf,60ede86077011f5f46e619d3,,,,,,,,,,,,
"[""period""]",0,[0.36899999999997135],85,0,85,0,1,5f832c1efcce9447bcbb28de,Mężczyzna,23,2021-07-13_21h25.35.768,rantool2,2021.1.4,Win32,60.0240096,5f832c1efcce9447bcbb28de,60d9d14f4a8a35a482e0d9bf,60ede86077011f5f46e619d3,,,,,,,,,,,,
"[""comma""]",0,[0.26900000000000546],86,0,86,0,1,5f832c1efcce9447bcbb28de,Mężczyzna,23,2021-07-13_21h25.35.768,rantool2,2021.1.4,Win32,60.0240096,5f832c1efcce9447bcbb28de,60d9d14f4a8a35a482e0d9bf,60ede86077011f5f46e619d3,,,,,,,,,,,,
"[""comma""]",0,[0.4359999999999786],87,0,87,0,1,5f832c1efcce9447bcbb28de,Mężczyzna,23,2021-07-13_21h25.35.768,rantool2,2021.1.4,Win32,60.0240096,5f832c1efcce9447bcbb28de,60d9d14f4a8a35a482e0d9bf,60ede86077011f5f46e619d3,,,,,,,,,,,,
"[""comma""]",0,[0.3590000000000373],88,0,88,0,1,5f832c1efcce9447bcbb28de,Mężczyzna,23,2021-07-13_21h25.35.768,rantool2,2021.1.4,Win32,60.0240096,5f832c1efcce9447bcbb28de,60d9d14f4a8a35a482e0d9bf,60ede86077011f5f46e619d3,,,,,,,,,,,,
"[""comma""]",0,[0.39400000000000546],89,0,89,0,1,5f832c1efcce9447bcbb28de,Mężczyzna,23,2021-07-13_21h25.35.768,rantool2,2021.1.4,Win32,60.0240096,5f832c1efcce9447bcbb28de,60d9d14f4a8a35a482e0d9bf,60ede86077011f5f46e619d3,,,,,,,,,,,,
"[""comma""]",0,[0.33899999999999864],90,0,90,0,1,5f832c1efcce9447bcbb28de,Mężczyzna,23,2021-07-13_21h25.35.768,rantool2,2021.1.4,Win32,60.0240096,5f832c1efcce9447bcbb28de,60d9d14f4a8a35a482e0d9bf,60ede86077011f5f46e619d3,,,,,,,,,,,,
"[""comma""]",0,[0.49500000000000455],91,0,91,0,1,5f832c1efcce9447bcbb28de,Mężczyzna,23,2021-07-13_21h25.35.768,rantool2,2021.1.4,Win32,60.0240096,5f832c1efcce9447bcbb28de,60d9d14f4a8a35a482e0d9bf,60ede86077011f5f46e619d3,,,,,,,,,,,,
"[""period""]",0,[0.4119999999999777],92,0,92,0,1,5f832c1efcce9447bcbb28de,Mężczyzna,23,2021-07-13_21h25.35.768,rantool2,2021.1.4,Win32,60.0240096,5f832c1efcce9447bcbb28de,60d9d14f4a8a35a482e0d9bf,60ede86077011f5f46e619d3,,,,,,,,,,,,
"[""comma""]",0,[0.3860000000000241],93,0,93,0,1,5f832c1efcce9447bcbb28de,Mężczyzna,23,2021-07-13_21h25.35.768,rantool2,2021.1.4,Win32,60.0240096,5f832c1efcce9447bcbb28de,60d9d14f4a8a35a482e0d9bf,60ede86077011f5f46e619d3,,,,,,,,,,,,
"[""comma""]",0,[0.3059999999999832],94,0,94,0,1,5f832c1efcce9447bcbb28de,Mężczyzna,23,2021-07-13_21h25.35.768,rantool2,2021.1.4,Win32,60.0240096,5f832c1efcce9447bcbb28de,60d9d14f4a8a35a482e0d9bf,60ede86077011f5f46e619d3,,,,,,,,,,,,
"[""period""]",0,[0.2610000000000241],95,0,95,0,1,5f832c1efcce9447bcbb28de,Mężczyzna,23,2021-07-13_21h25.35.768,rantool2,2021.1.4,Win32,60.0240096,5f832c1efcce9447bcbb28de,60d9d14f4a8a35a482e0d9bf,60ede86077011f5f46e619d3,,,,,,,,,,,,
"[""period""]",0,[0.26499999999998636],96,0,96,0,1,5f832c1efcce9447bcbb28de,Mężczyzna,23,2021-07-13_21h25.35.768,rantool2,2021.1.4,Win32,60.0240096,5f832c1efcce9447bcbb28de,60d9d14f4a8a35a482e0d9bf,60ede86077011f5f46e619d3,,,,,,,,,,,,
"[""comma""]",0,[0.28000000000002956],97,0,97,0,1,5f832c1efcce9447bcbb28de,Mężczyzna,23,2021-07-13_21h25.35.768,rantool2,2021.1.4,Win32,60.0240096,5f832c1efcce9447bcbb28de,60d9d14f4a8a35a482e0d9bf,60ede86077011f5f46e619d3,,,,,,,,,,,,
"[""comma""]",0,[0.37100000000003774],98,0,98,0,1,5f832c1efcce9447bcbb28de,Mężczyzna,23,2021-07-13_21h25.35.768,rantool2,2021.1.4,Win32,60.0240096,5f832c1efcce9447bcbb28de,60d9d14f4a8a35a482e0d9bf,60ede86077011f5f46e619d3,,,,,,,,,,,,
"[""period""]",0,[0.29200000000003],99,0,99,0,1,5f832c1efcce9447bcbb28de,Mężczyzna,23,2021-07-13_21h25.35.768,rantool2,2021.1.4,Win32,60.0240096,5f832c1efcce9447bcbb28de,60d9d14f4a8a35a482e0d9bf,60ede86077011f5f46e619d3,,,,,,,,,,,,
"[""period""]",0,[0.28700000000003456],100,0,100,0,1,5f832c1efcce9447bcbb28de,Mężczyzna,23,2021-07-13_21h25.35.768,rantool2,2021.1.4,Win32,60.0240096,5f832c1efcce9447bcbb28de,60d9d14f4a8a35a482e0d9bf,60ede86077011f5f46e619d3,,,,,,,,,,,,
"[""comma""]",0,[0.28600000000000136],101,0,101,0,1,5f832c1efcce9447bcbb28de,Mężczyzna,23,2021-07-13_21h25.35.768,rantool2,2021.1.4,Win32,60.0240096,5f832c1efcce9447bcbb28de,60d9d14f4a8a35a482e0d9bf,60ede86077011f5f46e619d3,,,,,,,,,,,,
"[""period""]",0,[0.367999999999995],102,0,102,0,1,5f832c1efcce9447bcbb28de,Mężczyzna,23,2021-07-13_21h25.35.768,rantool2,2021.1.4,Win32,60.0240096,5f832c1efcce9447bcbb28de,60d9d14f4a8a35a482e0d9bf,60ede86077011f5f46e619d3,,,,,,,,,,,,
"[""comma""]",0,[0.30100000000004457],103,0,103,0,1,5f832c1efcce9447bcbb28de,Mężczyzna,23,2021-07-13_21h25.35.768,rantool2,2021.1.4,Win32,60.0240096,5f832c1efcce9447bcbb28de,60d9d14f4a8a35a482e0d9bf,60ede86077011f5f46e619d3,,,,,,,,,,,,
"[""period""]",0,[0.28600000000000136],104,0,104,0,1,5f832c1efcce9447bcbb28de,Mężczyzna,23,2021-07-13_21h25.35.768,rantool2,2021.1.4,Win32,60.0240096,5f832c1efcce9447bcbb28de,60d9d14f4a8a35a482e0d9bf,60ede86077011f5f46e619d3,,,,,,,,,,,,
"[""period""]",0,[0.3900000000000432],105,0,105,0,1,5f832c1efcce9447bcbb28de,Mężczyzna,23,2021-07-13_21h25.35.768,rantool2,2021.1.4,Win32,60.0240096,5f832c1efcce9447bcbb28de,60d9d14f4a8a35a482e0d9bf,60ede86077011f5f46e619d3,,,,,,,,,,,,
"[""comma""]",0,[0.41900000000003956],106,0,106,0,1,5f832c1efcce9447bcbb28de,Mężczyzna,23,2021-07-13_21h25.35.768,rantool2,2021.1.4,Win32,60.0240096,5f832c1efcce9447bcbb28de,60d9d14f4a8a35a482e0d9bf,60ede86077011f5f46e619d3,,,,,,,,,,,,
"[""period""]",0,[0.4560000000000173],107,0,107,0,1,5f832c1efcce9447bcbb28de,Mężczyzna,23,2021-07-13_21h25.35.768,rantool2,2021.1.4,Win32,60.0240096,5f832c1efcce9447bcbb28de,60d9d14f4a8a35a482e0d9bf,60ede86077011f5f46e619d3,,,,,,,,,,,,
"[""comma""]",0,[0.27600000000001046],108,0,108,0,1,5f832c1efcce9447bcbb28de,Mężczyzna,23,2021-07-13_21h25.35.768,rantool2,2021.1.4,Win32,60.0240096,5f832c1efcce9447bcbb28de,60d9d14f4a8a35a482e0d9bf,60ede86077011f5f46e619d3,,,,,,,,,,,,
"[""period""]",0,[0.2580000000000382],109,0,109,0,1,5f832c1efcce9447bcbb28de,Mężczyzna,23,2021-07-13_21h25.35.768,rantool2,2021.1.4,Win32,60.0240096,5f832c1efcce9447bcbb28de,60d9d14f4a8a35a482e0d9bf,60ede86077011f5f46e619d3,,,,,,,,,,,,
"[""comma""]",0,[0.2680000000000291],110,0,110,0,1,5f832c1efcce9447bcbb28de,Mężczyzna,23,2021-07-13_21h25.35.768,rantool2,2021.1.4,Win32,60.0240096,5f832c1efcce9447bcbb28de,60d9d14f4a8a35a482e0d9bf,60ede86077011f5f46e619d3,,,,,,,,,,,,
"[""period""]",0,[0.2750000000000341],111,0,111,0,1,5f832c1efcce9447bcbb28de,Mężczyzna,23,2021-07-13_21h25.35.768,rantool2,2021.1.4,Win32,60.0240096,5f832c1efcce9447bcbb28de,60d9d14f4a8a35a482e0d9bf,60ede86077011f5f46e619d3,,,,,,,,,,,,
"[""period""]",0,[0.18500000000000227],112,0,112,0,1,5f832c1efcce9447bcbb28de,Mężczyzna,23,2021-07-13_21h25.35.768,rantool2,2021.1.4,Win32,60.0240096,5f832c1efcce9447bcbb28de,60d9d14f4a8a35a482e0d9bf,60ede86077011f5f46e619d3,,,,,,,,,,,,
"[""comma""]",0,[0.2540000000000191],113,0,113,0,1,5f832c1efcce9447bcbb28de,Mężczyzna,23,2021-07-13_21h25.35.768,rantool2,2021.1.4,Win32,60.0240096,5f832c1efcce9447bcbb28de,60d9d14f4a8a35a482e0d9bf,60ede86077011f5f46e619d3,,,,,,,,,,,,
"[""period""]",0,[0.34000000000003183],114,0,114,0,1,5f832c1efcce9447bcbb28de,Mężczyzna,23,2021-07-13_21h25.35.768,rantool2,2021.1.4,Win32,60.0240096,5f832c1efcce9447bcbb28de,60d9d14f4a8a35a482e0d9bf,60ede86077011f5f46e619d3,,,,,,,,,,,,
"[""comma""]",0,[0.29599999999999227],115,0,115,0,1,5f832c1efcce9447bcbb28de,Mężczyzna,23,2021-07-13_21h25.35.768,rantool2,2021.1.4,Win32,60.0240096,5f832c1efcce9447bcbb28de,60d9d14f4a8a35a482e0d9bf,60ede86077011f5f46e619d3,,,,,,,,,,,,
0,0,,116,0,116,0,1,5f832c1efcce9447bcbb28de,Mężczyzna,23,2021-07-13_21h25.35.768,rantool2,2021.1.4,Win32,60.0240096,5f832c1efcce9447bcbb28de,60d9d14f4a8a35a482e0d9bf,60ede86077011f5f46e619d3,,,,,,,,,,,,
"[""period""]",0,[0.40200000000004366],117,0,117,0,1,5f832c1efcce9447bcbb28de,Mężczyzna,23,2021-07-13_21h25.35.768,rantool2,2021.1.4,Win32,60.0240096,5f832c1efcce9447bcbb28de,60d9d14f4a8a35a482e0d9bf,60ede86077011f5f46e619d3,,,,,,,,,,,,
"[""comma""]",0,[0.3230000000000359],118,0,118,0,1,5f832c1efcce9447bcbb28de,Mężczyzna,23,2021-07-13_21h25.35.768,rantool2,2021.1.4,Win32,60.0240096,5f832c1efcce9447bcbb28de,60d9d14f4a8a35a482e0d9bf,60ede86077011f5f46e619d3,,,,,,,,,,,,
"[""comma""]",0,[0.47800000000000864],119,0,119,0,1,5f832c1efcce9447bcbb28de,Mężczyzna,23,2021-07-13_21h25.35.768,rantool2,2021.1.4,Win32,60.0240096,5f832c1efcce9447bcbb28de,60d9d14f4a8a35a482e0d9bf,60ede86077011f5f46e619d3,,,,,,,,,,,,
,,,,,,,,5f832c1efcce9447bcbb28de,Mężczyzna,23,2021-07-13_21h25.35.768,rantool2,2021.1.4,Win32,60.0240096,5f832c1efcce9447bcbb28de,60d9d14f4a8a35a482e0d9bf,60ede86077011f5f46e619d3,f,0.997,0,0,0,21,1,ORORORO,ORORORR,20.39515459,22.06781359,series_1
,,,,,,,,5f832c1efcce9447bcbb28de,Mężczyzna,23,2021-07-13_21h25.35.768,rantool2,2021.1.4,Win32,60.0240096,5f832c1efcce9447bcbb28de,60d9d14f4a8a35a482e0d9bf,60ede86077011f5f46e619d3,j,0.938,0,1,1,20,1,OROROOO,OROROOR,21.31236711,21.90565814,series_1
,,,,,,,,5f832c1efcce9447bcbb28de,Mężczyzna,23,2021-07-13_21h25.35.768,rantool2,2021.1.4,Win32,60.0240096,5f832c1efcce9447bcbb28de,60d9d14f4a8a35a482e0d9bf,60ede86077011f5f46e619d3,f,0.862,0,2,2,7,1,OOORRRO,OOORRRR,21.6194508,21.899017,series_1
,,,,,,,,5f832c1efcce9447bcbb28de,Mężczyzna,23,2021-07-13_21h25.35.768,rantool2,2021.1.4,Win32,60.0240096,5f832c1efcce9447bcbb28de,60d9d14f4a8a35a482e0d9bf,60ede86077011f5f46e619d3,j,0.886,0,3,3,30,1,ORRRROO,ORRRROR,22.46748491,22.03072203,series_0
,,,,,,,,5f832c1efcce9447bcbb28de,Mężczyzna,23,2021-07-13_21h25.35.768,rantool2,2021.1.4,Win32,60.0240096,5f832c1efcce9447bcbb28de,60d9d14f4a8a35a482e0d9bf,60ede86077011f5f46e619d3,j,0.902,0,4,4,63,1,RRRRRRO,RRRRRRR,21.35278725,19.62521613,series_0
,,,,,,,,5f832c1efcce9447bcbb28de,Mężczyzna,23,2021-07-13_21h25.35.768,rantool2,2021.1.4,Win32,60.0240096,5f832c1efcce9447bcbb28de,60d9d14f4a8a35a482e0d9bf,60ede86077011f5f46e619d3,f,0.873,0,5,5,53,1,RRORORO,RRORORR,20.71309134,21.90565814,series_1
,,,,,,,,5f832c1efcce9447bcbb28de,Mężczyzna,23,2021-07-13_21h25.35.768,rantool2,2021.1.4,Win32,60.0240096,5f832c1efcce9447bcbb28de,60d9d14f4a8a35a482e0d9bf,60ede86077011f5f46e619d3,j,0.841,0,6,6,31,1,ORRRRRO,ORRRRRR,22.16413392,20.74050628,series_0
,,,,,,,,5f832c1efcce9447bcbb28de,Mężczyzna,23,2021-07-13_21h25.35.768,rantool2,2021.1.4,Win32,60.0240096,5f832c1efcce9447bcbb28de,60d9d14f4a8a35a482e0d9bf,60ede86077011f5f46e619d3,j,0.938,0,7,7,59,1,RRRORRO,RRRORRR,21.56657303,20.89823192,series_0
,,,,,,,,5f832c1efcce9447bcbb28de,Mężczyzna,23,2021-07-13_21h25.35.768,rantool2,2021.1.4,Win32,60.0240096,5f832c1efcce9447bcbb28de,60d9d14f4a8a35a482e0d9bf,60ede86077011f5f46e619d3,f,0.827,0,8,8,61,1,RRRRORO,RRRRORR,21.81333602,21.17347734,series_0
,,,,,,,,5f832c1efcce9447bcbb28de,Mężczyzna,23,2021-07-13_21h25.35.768,rantool2,2021.1.4,Win32,60.0240096,5f832c1efcce9447bcbb28de,60d9d14f4a8a35a482e0d9bf,60ede86077011f5f46e619d3,j,0.902,0,9,9,51,1,RROORRO,RROORRR,21.89852628,22.02786418,series_1
,,,,,,,,5f832c1efcce9447bcbb28de,Mężczyzna,23,2021-07-13_21h25.35.768,rantool2,2021.1.4,Win32,60.0240096,5f832c1efcce9447bcbb28de,60d9d14f4a8a35a482e0d9bf,60ede86077011f5f46e619d3,j,0.857,0,10,10,39,1,ROORRRO,ROORRRR,21.82425538,21.38562617,series_0
,,,,,,,,5f832c1efcce9447bcbb28de,Mężczyzna,23,2021-07-13_21h25.35.768,rantool2,2021.1.4,Win32,60.0240096,5f832c1efcce9447bcbb28de,60d9d14f4a8a35a482e0d9bf,60ede86077011f5f46e619d3,f,0.838,0,11,11,2,1,OOOOROO,OOOOROR,20.43051175,21.02936224,series_1
,,,,,,,,5f832c1efcce9447bcbb28de,Mężczyzna,23,2021-07-13_21h25.35.768,rantool2,2021.1.4,Win32,60.0240096,5f832c1efcce9447bcbb28de,60d9d14f4a8a35a482e0d9bf,60ede86077011f5f46e619d3,f,0.844,0,12,12,4,1,OOOROOO,OOOROOR,19.91402015,21.21223021,series_1
,,,,,,,,5f832c1efcce9447bcbb28de,Mężczyzna,23,2021-07-13_21h25.35.768,rantool2,2021.1.4,Win32,60.0240096,5f832c1efcce9447bcbb28de,60d9d14f4a8a35a482e0d9bf,60ede86077011f5f46e619d3,j,0.917,0,13,13,40,1,ROROOOO,ROROOOR,20.87963819,21.37121559,series_1
,,,,,,,,5f832c1efcce9447bcbb28de,Mężczyzna,23,2021-07-13_21h25.35.768,rantool2,2021.1.4,Win32,60.0240096,5f832c1efcce9447bcbb28de,60d9d14f4a8a35a482e0d9bf,60ede86077011f5f46e619d3,j,0.893,0,14,14,60,1,RRRROOO,RRRROOR,22.10108823,22.15934078,series_1
,,,,,,,,5f832c1efcce9447bcbb28de,Mężczyzna,23,2021-07-13_21h25.35.768,rantool2,2021.1.4,Win32,60.0240096,5f832c1efcce9447bcbb28de,60d9d14f4a8a35a482e0d9bf,60ede86077011f5f46e619d3,j,0.854,0,15,15,15,1,OORRRRO,OORRRRR,22.10108823,21.74922619,series_0
,,,,,,,,5f832c1efcce9447bcbb28de,Mężczyzna,23,2021-07-13_21h25.35.768,rantool2,2021.1.4,Win32,60.0240096,5f832c1efcce9447bcbb28de,60d9d14f4a8a35a482e0d9bf,60ede86077011f5f46e619d3,f,0.927,0,16,16,0,1,OOOOOOO,OOOOOOR,18.52739004,19.62521613,series_1
,,,,,,,,5f832c1efcce9447bcbb28de,Mężczyzna,23,2021-07-13_21h25.35.768,rantool2,2021.1.4,Win32,60.0240096,5f832c1efcce9447bcbb28de,60d9d14f4a8a35a482e0d9bf,60ede86077011f5f46e619d3,j,2.287,0,17,17,19,1,OROORRO,OROORRR,21.73568164,22.11181017,series_1
,,,,,,,,5f832c1efcce9447bcbb28de,Mężczyzna,23,2021-07-13_21h25.35.768,rantool2,2021.1.4,Win32,60.0240096,5f832c1efcce9447bcbb28de,60d9d14f4a8a35a482e0d9bf,60ede86077011f5f46e619d3,j,1.028,0,18,18,36,1,ROOROOO,ROOROOR,21.07991943,20.9984461,series_0
,,,,,,,,5f832c1efcce9447bcbb28de,Mężczyzna,23,2021-07-13_21h25.35.768,rantool2,2021.1.4,Win32,60.0240096,5f832c1efcce9447bcbb28de,60d9d14f4a8a35a482e0d9bf,60ede86077011f5f46e619d3,f,1.596,0,19,19,9,1,OOROORO,OOROORR,21.07991943,22.2428857,series_1
,,,,,,,,5f832c1efcce9447bcbb28de,Mężczyzna,23,2021-07-13_21h25.35.768,rantool2,2021.1.4,Win32,60.0240096,5f832c1efcce9447bcbb28de,60d9d14f4a8a35a482e0d9bf,60ede86077011f5f46e619d3,j,0.871,0,20,20,1,1,OOOOORO,OOOOORR,19.92253567,20.74050628,series_1
,,,,,,,,5f832c1efcce9447bcbb28de,Mężczyzna,23,2021-07-13_21h25.35.768,rantool2,2021.1.4,Win32,60.0240096,5f832c1efcce9447bcbb28de,60d9d14f4a8a35a482e0d9bf,60ede86077011f5f46e619d3,j,1.068,0,21,21,32,1,ROOOOOO,ROOOOOR,19.92253567,21.27974287,series_1
,,,,,,,,5f832c1efcce9447bcbb28de,Mężczyzna,23,2021-07-13_21h25.35.768,rantool2,2021.1.4,Win32,60.0240096,5f832c1efcce9447bcbb28de,60d9d14f4a8a35a482e0d9bf,60ede86077011f5f46e619d3,j,1.074,0,22,22,11,1,OORORRO,OORORRR,22.18365867,22.6797523,series_1
,,,,,,,,5f832c1efcce9447bcbb28de,Mężczyzna,23,2021-07-13_21h25.35.768,rantool2,2021.1.4,Win32,60.0240096,5f832c1efcce9447bcbb28de,60d9d14f4a8a35a482e0d9bf,60ede86077011f5f46e619d3,f,0.864,0,23,23,25,1,ORROORO,ORROORR,21.79500819,22.61624387,series_1
,,,,,,,,5f832c1efcce9447bcbb28de,Mężczyzna,23,2021-07-13_21h25.35.768,rantool2,2021.1.4,Win32,60.0240096,5f832c1efcce9447bcbb28de,60d9d14f4a8a35a482e0d9bf,60ede86077011f5f46e619d3,j,0.839,0,24,24,33,1,ROOOORO,ROOOORR,20.83779602,22.03072203,series_1
,,,,,,,,5f832c1efcce9447bcbb28de,Mężczyzna,23,2021-07-13_21h25.35.768,rantool2,2021.1.4,Win32,60.0240096,5f832c1efcce9447bcbb28de,60d9d14f4a8a35a482e0d9bf,60ede86077011f5f46e619d3,j,0.918,0,25,25,47,1,RORRRRO,RORRRRR,21.81333602,21.02936224,series_0
,,,,,,,,5f832c1efcce9447bcbb28de,Mężczyzna,23,2021-07-13_21h25.35.768,rantool2,2021.1.4,Win32,60.0240096,5f832c1efcce9447bcbb28de,60d9d14f4a8a35a482e0d9bf,60ede86077011f5f46e619d3,f,0.876,0,26,26,28,1,ORRROOO,ORRROOR,22.24142883,22.53364006,series_1
,,,,,,,,5f832c1efcce9447bcbb28de,Mężczyzna,23,2021-07-13_21h25.35.768,rantool2,2021.1.4,Win32,60.0240096,5f832c1efcce9447bcbb28de,60d9d14f4a8a35a482e0d9bf,60ede86077011f5f46e619d3,j,0.91,0,27,27,29,1,ORRRORO,ORRRORR,22.00300695,22.12173012,series_1
,,,,,,,,5f832c1efcce9447bcbb28de,Mężczyzna,23,2021-07-13_21h25.35.768,rantool2,2021.1.4,Win32,60.0240096,5f832c1efcce9447bcbb28de,60d9d14f4a8a35a482e0d9bf,60ede86077011f5f46e619d3,f,0.981,0,28,28,17,1,OROOORO,OROOORR,21.03750787,22.12173012,series_1
,,,,,,,,5f832c1efcce9447bcbb28de,Mężczyzna,23,2021-07-13_21h25.35.768,rantool2,2021.1.4,Win32,60.0240096,5f832c1efcce9447bcbb28de,60d9d14f4a8a35a482e0d9bf,60ede86077011f5f46e619d3,j,1.01,0,29,29,8,1,OOROOOO,OOROOOR,19.91402015,20.89823192,series_1
,,,,,,,,5f832c1efcce9447bcbb28de,Mężczyzna,23,2021-07-13_21h25.35.768,rantool2,2021.1.4,Win32,60.0240096,5f832c1efcce9447bcbb28de,60d9d14f4a8a35a482e0d9bf,60ede86077011f5f46e619d3,f,0.924,0,30,30,24,1,ORROOOO,ORROOOR,21.12383932,22.07102821,series_1
,,,,,,,,5f832c1efcce9447bcbb28de,Mężczyzna,23,2021-07-13_21h25.35.768,rantool2,2021.1.4,Win32,60.0240096,5f832c1efcce9447bcbb28de,60d9d14f4a8a35a482e0d9bf,60ede86077011f5f46e619d3,j,0.921,0,31,31,46,1,RORRROO,RORRROR,22.00300695,21.24781509,series_0
,,,,,,,,5f832c1efcce9447bcbb28de,Mężczyzna,23,2021-07-13_21h25.35.768,rantool2,2021.1.4,Win32,60.0240096,5f832c1efcce9447bcbb28de,60d9d14f4a8a35a482e0d9bf,60ede86077011f5f46e619d3,f,0.977,0,32,32,35,1,ROOORRO,ROOORRR,21.76276513,22.16977179,series_1
,,,,,,,,5f832c1efcce9447bcbb28de,Mężczyzna,23,2021-07-13_21h25.35.768,rantool2,2021.1.4,Win32,60.0240096,5f832c1efcce9447bcbb28de,60d9d14f4a8a35a482e0d9bf,60ede86077011f5f46e619d3,f,0.943,0,33,33,38,1,ROORROO,ROORROR,21.79500819,21.36812781,series_0
,,,,,,,,5f832c1efcce9447bcbb28de,Mężczyzna,23,2021-07-13_21h25.35.768,rantool2,2021.1.4,Win32,60.0240096,5f832c1efcce9447bcbb28de,60d9d14f4a8a35a482e0d9bf,60ede86077011f5f46e619d3,j,0.98,0,34,34,48,1,RROOOOO,RROOOOR,20.90986523,22.15934078,series_1
,,,,,,,,5f832c1efcce9447bcbb28de,Mężczyzna,23,2021-07-13_21h25.35.768,rantool2,2021.1.4,Win32,60.0240096,5f832c1efcce9447bcbb28de,60d9d14f4a8a35a482e0d9bf,60ede86077011f5f46e619d3,f,0.968,0,35,35,6,1,OOORROO,OOORROR,21.12383932,21.38562617,series_1
,,,,,,,,5f832c1efcce9447bcbb28de,Mężczyzna,23,2021-07-13_21h25.35.768,rantool2,2021.1.4,Win32,60.0240096,5f832c1efcce9447bcbb28de,60d9d14f4a8a35a482e0d9bf,60ede86077011f5f46e619d3,f,0.82,0,36,36,62,1,RRRRROO,RRRRROR,22.16413392,21.27974287,series_0
,,,,,,,,5f832c1efcce9447bcbb28de,Mężczyzna,23,2021-07-13_21h25.35.768,rantool2,2021.1.4,Win32,60.0240096,5f832c1efcce9447bcbb28de,60d9d14f4a8a35a482e0d9bf,60ede86077011f5f46e619d3,j,0.868,0,37,37,56,1,RRROOOO,RRROOOR,21.6194508,22.31681875,series_1
,,,,,,,,5f832c1efcce9447bcbb28de,Mężczyzna,23,2021-07-13_21h25.35.768,rantool2,2021.1.4,Win32,60.0240096,5f832c1efcce9447bcbb28de,60d9d14f4a8a35a482e0d9bf,60ede86077011f5f46e619d3,f,0.895,0,38,38,26,1,ORROROO,ORROROR,22.02732763,21.71443381,series_0
,,,,,,,,5f832c1efcce9447bcbb28de,Mężczyzna,23,2021-07-13_21h25.35.768,rantool2,2021.1.4,Win32,60.0240096,5f832c1efcce9447bcbb28de,60d9d14f4a8a35a482e0d9bf,60ede86077011f5f46e619d3,j,0.864,0,39,39,42,1,ROROROO,ROROROR,20.39515459,19.8361834,series_0
,,,,,,,,5f832c1efcce9447bcbb28de,Mężczyzna,23,2021-07-13_21h25.35.768,rantool2,2021.1.4,Win32,60.0240096,5f832c1efcce9447bcbb28de,60d9d14f4a8a35a482e0d9bf,60ede86077011f5f46e619d3,f,0.889,0,40,40,16,1,OROOOOO,OROOOOR,20.43051175,21.17347734,series_1
,,,,,,,,5f832c1efcce9447bcbb28de,Mężczyzna,23,2021-07-13_21h25.35.768,rantool2,2021.1.4,Win32,60.0240096,5f832c1efcce9447bcbb28de,60d9d14f4a8a35a482e0d9bf,60ede86077011f5f46e619d3,j,0.898,0,41,41,22,1,ORORROO,ORORROR,22.02732763,21.57657071,series_0
,,,,,,,,5f832c1efcce9447bcbb28de,Mężczyzna,23,2021-07-13_21h25.35.768,rantool2,2021.1.4,Win32,60.0240096,5f832c1efcce9447bcbb28de,60d9d14f4a8a35a482e0d9bf,60ede86077011f5f46e619d3,j,0.922,0,42,42,14,1,OORRROO,OORRROR,22.24142883,22.16977179,series_0
,,,,,,,,5f832c1efcce9447bcbb28de,Mężczyzna,23,2021-07-13_21h25.35.768,rantool2,2021.1.4,Win32,60.0240096,5f832c1efcce9447bcbb28de,60d9d14f4a8a35a482e0d9bf,60ede86077011f5f46e619d3,f,0.951,0,43,43,13,1,OORRORO,OORRORR,21.66733484,22.11181017,series_1
,,,,,,,,5f832c1efcce9447bcbb28de,Mężczyzna,23,2021-07-13_21h25.35.768,rantool2,2021.1.4,Win32,60.0240096,5f832c1efcce9447bcbb28de,60d9d14f4a8a35a482e0d9bf,60ede86077011f5f46e619d3,f,0.902,0,44,44,23,1,ORORRRO,ORORRRR,22.1285618,21.9921709,series_0
,,,,,,,,5f832c1efcce9447bcbb28de,Mężczyzna,23,2021-07-13_21h25.35.768,rantool2,2021.1.4,Win32,60.0240096,5f832c1efcce9447bcbb28de,60d9d14f4a8a35a482e0d9bf,60ede86077011f5f46e619d3,j,0.901,0,45,45,10,1,OOROROO,OOROROR,21.31236711,21.07490964,series_0
,,,,,,,,5f832c1efcce9447bcbb28de,Mężczyzna,23,2021-07-13_21h25.35.768,rantool2,2021.1.4,Win32,60.0240096,5f832c1efcce9447bcbb28de,60d9d14f4a8a35a482e0d9bf,60ede86077011f5f46e619d3,f,0.844,0,46,46,3,1,OOOORRO,OOOORRR,20.90986523,21.74922619,series_1
,,,,,,,,5f832c1efcce9447bcbb28de,Mężczyzna,23,2021-07-13_21h25.35.768,rantool2,2021.1.4,Win32,60.0240096,5f832c1efcce9447bcbb28de,60d9d14f4a8a35a482e0d9bf,60ede86077011f5f46e619d3,f,0.902,0,47,47,49,1,RROOORO,RROOORR,21.76276513,22.53364006,series_1
,,,,,,,,5f832c1efcce9447bcbb28de,Mężczyzna,23,2021-07-13_21h25.35.768,rantool2,2021.1.4,Win32,60.0240096,5f832c1efcce9447bcbb28de,60d9d14f4a8a35a482e0d9bf,60ede86077011f5f46e619d3,f,0.894,0,48,48,34,1,ROOOROO,ROOOROR,21.03750787,21.24781509,series_1
,,,,,,,,5f832c1efcce9447bcbb28de,Mężczyzna,23,2021-07-13_21h25.35.768,rantool2,2021.1.4,Win32,60.0240096,5f832c1efcce9447bcbb28de,60d9d14f4a8a35a482e0d9bf,60ede86077011f5f46e619d3,j,1.161,0,49,49,37,1,ROORORO,ROORORR,20.42602454,21.57657071,series_1
,,,,,,,,5f832c1efcce9447bcbb28de,Mężczyzna,23,2021-07-13_21h25.35.768,rantool2,2021.1.4,Win32,60.0240096,5f832c1efcce9447bcbb28de,60d9d14f4a8a35a482e0d9bf,60ede86077011f5f46e619d3,j,0.979,0,50,50,57,1,RRROORO,RRROORR,21.82425538,22.07102821,series_1
,,,,,,,,5f832c1efcce9447bcbb28de,Mężczyzna,23,2021-07-13_21h25.35.768,rantool2,2021.1.4,Win32,60.0240096,5f832c1efcce9447bcbb28de,60d9d14f4a8a35a482e0d9bf,60ede86077011f5f46e619d3,f,1.414,0,51,51,41,1,ROROORO,ROROORR,20.42602454,21.71443381,series_1
,,,,,,,,5f832c1efcce9447bcbb28de,Mężczyzna,23,2021-07-13_21h25.35.768,rantool2,2021.1.4,Win32,60.0240096,5f832c1efcce9447bcbb28de,60d9d14f4a8a35a482e0d9bf,60ede86077011f5f46e619d3,j,1.397,0,52,52,54,1,RRORROO,RRORROR,21.55250791,20.9984461,series_0
,,,,,,,,5f832c1efcce9447bcbb28de,Mężczyzna,23,2021-07-13_21h25.35.768,rantool2,2021.1.4,Win32,60.0240096,5f832c1efcce9447bcbb28de,60d9d14f4a8a35a482e0d9bf,60ede86077011f5f46e619d3,f,1.051,0,53,53,55,1,RRORRRO,RRORRRR,21.56657303,21.21223021,series_0
,,,,,,,,5f832c1efcce9447bcbb28de,Mężczyzna,23,2021-07-13_21h25.35.768,rantool2,2021.1.4,Win32,60.0240096,5f832c1efcce9447bcbb28de,60d9d14f4a8a35a482e0d9bf,60ede86077011f5f46e619d3,f,1.308,0,54,54,44,1,RORROOO,RORROOR,21.66733484,22.02566557,series_1
,,,,,,,,5f832c1efcce9447bcbb28de,Mężczyzna,23,2021-07-13_21h25.35.768,rantool2,2021.1.4,Win32,60.0240096,5f832c1efcce9447bcbb28de,60d9d14f4a8a35a482e0d9bf,60ede86077011f5f46e619d3,f,1.239,0,55,55,58,1,RRROROO,RRROROR,22.1285618,21.37121559,series_0
,,,,,,,,5f832c1efcce9447bcbb28de,Mężczyzna,23,2021-07-13_21h25.35.768,rantool2,2021.1.4,Win32,60.0240096,5f832c1efcce9447bcbb28de,60d9d14f4a8a35a482e0d9bf,60ede86077011f5f46e619d3,f,0.967,0,56,56,45,1,RORRORO,RORRORR,20.78182524,21.22513037,series_1
,,,,,,,,5f832c1efcce9447bcbb28de,Mężczyzna,23,2021-07-13_21h25.35.768,rantool2,2021.1.4,Win32,60.0240096,5f832c1efcce9447bcbb28de,60d9d14f4a8a35a482e0d9bf,60ede86077011f5f46e619d3,j,1.128,0,57,57,43,1,RORORRO,RORORRR,20.71309134,21.07490964,series_1
,,,,,,,,5f832c1efcce9447bcbb28de,Mężczyzna,23,2021-07-13_21h25.35.768,rantool2,2021.1.4,Win32,60.0240096,5f832c1efcce9447bcbb28de,60d9d14f4a8a35a482e0d9bf,60ede86077011f5f46e619d3,j,1.502,0,58,58,18,1,OROOROO,OROOROR,20.84860893,21.22513037,series_1
,,,,,,,,5f832c1efcce9447bcbb28de,Mężczyzna,23,2021-07-13_21h25.35.768,rantool2,2021.1.4,Win32,60.0240096,5f832c1efcce9447bcbb28de,60d9d14f4a8a35a482e0d9bf,60ede86077011f5f46e619d3,j,1.221,0,59,59,50,1,RROOROO,RROOROR,21.73568164,22.02566557,series_1
,,,,,,,,5f832c1efcce9447bcbb28de,Mężczyzna,23,2021-07-13_21h25.35.768,rantool2,2021.1.4,Win32,60.0240096,5f832c1efcce9447bcbb28de,60d9d14f4a8a35a482e0d9bf,60ede86077011f5f46e619d3,f,0.868,0,60,60,5,1,OOORORO,OOORORR,20.87963819,21.9921709,series_1
,,,,,,,,5f832c1efcce9447bcbb28de,Mężczyzna,23,2021-07-13_21h25.35.768,rantool2,2021.1.4,Win32,60.0240096,5f832c1efcce9447bcbb28de,60d9d14f4a8a35a482e0d9bf,60ede86077011f5f46e619d3,f,0.944,0,61,61,27,1,ORRORRO,ORRORRR,21.55250791,22.2428857,series_1
,,,,,,,,5f832c1efcce9447bcbb28de,Mężczyzna,23,2021-07-13_21h25.35.768,rantool2,2021.1.4,Win32,60.0240096,5f832c1efcce9447bcbb28de,60d9d14f4a8a35a482e0d9bf,60ede86077011f5f46e619d3,j,0.801,0,62,62,12,1,OORROOO,OORROOR,21.30250474,22.02786418,series_1
,,,,,,,,5f832c1efcce9447bcbb28de,Mężczyzna,23,2021-07-13_21h25.35.768,rantool2,2021.1.4,Win32,60.0240096,5f832c1efcce9447bcbb28de,60d9d14f4a8a35a482e0d9bf,60ede86077011f5f46e619d3,j,0.872,0,63,63,52,1,RROROOO,RROROOR,22.18365867,22.11097995,series_0
