key_resp_5.keys,key_resp_5.corr,key_resp_5.rt,trials.thisRepN,trials.thisTrialN,trials.thisN,trials.thisIndex,trials.ran,id*,Płeć*,Wiek*,date,expName,psychopyVersion,OS,frameRate,id,STUDY_ID,SESSION_ID,key_resp_7.keys,key_resp_7.rt,trials_2.thisRepN,trials_2.thisTrialN,trials_2.thisN,trials_2.thisIndex,trials_2.ran,series_0,series_1,acss_0,acss_1,comparison
0,,,0,0,0,0,1,5f8b37843ad42e0fea9f14c0,Kobieta,21,2021-07-13_21h24.00.444,rantool2,2021.1.4,Win32,59.63740458,5f8b37843ad42e0fea9f14c0,60d9d14f4a8a35a482e0d9bf,60ede84081c0567442486b9b,,,,,,,,,,,,
"[""comma"",""comma"",""period""]",0,"[0.20910000000893803,0.8934000000059612,1.3029999999999973]",1,0,1,0,1,5f8b37843ad42e0fea9f14c0,Kobieta,21,2021-07-13_21h24.00.444,rantool2,2021.1.4,Win32,59.63740458,5f8b37843ad42e0fea9f14c0,60d9d14f4a8a35a482e0d9bf,60ede84081c0567442486b9b,,,,,,,,,,,,
"[""period"",""period""]",0,"[0.0009999999999976694,0.4226000000089414]",2,0,2,0,1,5f8b37843ad42e0fea9f14c0,Kobieta,21,2021-07-13_21h24.00.444,rantool2,2021.1.4,Win32,59.63740458,5f8b37843ad42e0fea9f14c0,60d9d14f4a8a35a482e0d9bf,60ede84081c0567442486b9b,,,,,,,,,,,,
"[""comma""]",0,[0.2612000000029795],3,0,3,0,1,5f8b37843ad42e0fea9f14c0,Kobieta,21,2021-07-13_21h24.00.444,rantool2,2021.1.4,Win32,59.63740458,5f8b37843ad42e0fea9f14c0,60d9d14f4a8a35a482e0d9bf,60ede84081c0567442486b9b,,,,,,,,,,,,
"[""comma""]",0,[0.269999999999996],4,0,4,0,1,5f8b37843ad42e0fea9f14c0,Kobieta,21,2021-07-13_21h24.00.444,rantool2,2021.1.4,Win32,59.63740458,5f8b37843ad42e0fea9f14c0,60d9d14f4a8a35a482e0d9bf,60ede84081c0567442486b9b,,,,,,,,,,,,
"[""comma"",""comma"",""comma""]",0,"[0.2392999999970158,0.7870999999940409,1.9392999999970186]",5,0,5,0,1,5f8b37843ad42e0fea9f14c0,Kobieta,21,2021-07-13_21h24.00.444,rantool2,2021.1.4,Win32,59.63740458,5f8b37843ad42e0fea9f14c0,60d9d14f4a8a35a482e0d9bf,60ede84081c0567442486b9b,,,,,,,,,,,,
"[""comma""]",0,[0.28559999999404795],6,0,6,0,1,5f8b37843ad42e0fea9f14c0,Kobieta,21,2021-07-13_21h24.00.444,rantool2,2021.1.4,Win32,59.63740458,5f8b37843ad42e0fea9f14c0,60d9d14f4a8a35a482e0d9bf,60ede84081c0567442486b9b,,,,,,,,,,,,
"[""comma""]",0,[0.15079999999701954],7,0,7,0,1,5f8b37843ad42e0fea9f14c0,Kobieta,21,2021-07-13_21h24.00.444,rantool2,2021.1.4,Win32,59.63740458,5f8b37843ad42e0fea9f14c0,60d9d14f4a8a35a482e0d9bf,60ede84081c0567442486b9b,,,,,,,,,,,,
"[""comma"",""period""]",0,"[0.23279999999701317,1.9169000000059526]",8,0,8,0,1,5f8b37843ad42e0fea9f14c0,Kobieta,21,2021-07-13_21h24.00.444,rantool2,2021.1.4,Win32,59.63740458,5f8b37843ad42e0fea9f14c0,60d9d14f4a8a35a482e0d9bf,60ede84081c0567442486b9b,,,,,,,,,,,,
0,0,,9,0,9,0,1,5f8b37843ad42e0fea9f14c0,Kobieta,21,2021-07-13_21h24.00.444,rantool2,2021.1.4,Win32,59.63740458,5f8b37843ad42e0fea9f14c0,60d9d14f4a8a35a482e0d9bf,60ede84081c0567442486b9b,,,,,,,,,,,,
"[""period"",""period""]",0,"[0.058000000000006935,1.73839999999106]",10,0,10,0,1,5f8b37843ad42e0fea9f14c0,Kobieta,21,2021-07-13_21h24.00.444,rantool2,2021.1.4,Win32,59.63740458,5f8b37843ad42e0fea9f14c0,60d9d14f4a8a35a482e0d9bf,60ede84081c0567442486b9b,,,,,,,,,,,,
"[""period"",""period"",""period""]",0,"[0.0927999999970126,0.7686999999880726,0.9455999999940303]",11,0,11,0,1,5f8b37843ad42e0fea9f14c0,Kobieta,21,2021-07-13_21h24.00.444,rantool2,2021.1.4,Win32,59.63740458,5f8b37843ad42e0fea9f14c0,60d9d14f4a8a35a482e0d9bf,60ede84081c0567442486b9b,,,,,,,,,,,,
"[""period"",""period""]",0,"[0.26809999999404965,0.7270999999940386]",12,0,12,0,1,5f8b37843ad42e0fea9f14c0,Kobieta,21,2021-07-13_21h24.00.444,rantool2,2021.1.4,Win32,59.63740458,5f8b37843ad42e0fea9f14c0,60d9d14f4a8a35a482e0d9bf,60ede84081c0567442486b9b,,,,,,,,,,,,
"[""period"",""comma""]",0,"[0.23890000000595535,1.8712000000029718]",13,0,13,0,1,5f8b37843ad42e0fea9f14c0,Kobieta,21,2021-07-13_21h24.00.444,rantool2,2021.1.4,Win32,59.63740458,5f8b37843ad42e0fea9f14c0,60d9d14f4a8a35a482e0d9bf,60ede84081c0567442486b9b,,,,,,,,,,,,
"[""comma"",""comma""]",0,"[0.2937999999970202,1.9759000000059643]",14,0,14,0,1,5f8b37843ad42e0fea9f14c0,Kobieta,21,2021-07-13_21h24.00.444,rantool2,2021.1.4,Win32,59.63740458,5f8b37843ad42e0fea9f14c0,60d9d14f4a8a35a482e0d9bf,60ede84081c0567442486b9b,,,,,,,,,,,,
0,0,,15,0,15,0,1,5f8b37843ad42e0fea9f14c0,Kobieta,21,2021-07-13_21h24.00.444,rantool2,2021.1.4,Win32,59.63740458,5f8b37843ad42e0fea9f14c0,60d9d14f4a8a35a482e0d9bf,60ede84081c0567442486b9b,,,,,,,,,,,,
"[""comma""]",0,[0.09879999999702704],16,0,16,0,1,5f8b37843ad42e0fea9f14c0,Kobieta,21,2021-07-13_21h24.00.444,rantool2,2021.1.4,Win32,59.63740458,5f8b37843ad42e0fea9f14c0,60d9d14f4a8a35a482e0d9bf,60ede84081c0567442486b9b,,,,,,,,,,,,
"[""comma"",""comma""]",0,"[0.05709999999403692,1.941399999991063]",17,0,17,0,1,5f8b37843ad42e0fea9f14c0,Kobieta,21,2021-07-13_21h24.00.444,rantool2,2021.1.4,Win32,59.63740458,5f8b37843ad42e0fea9f14c0,60d9d14f4a8a35a482e0d9bf,60ede84081c0567442486b9b,,,,,,,,,,,,
0,0,,18,0,18,0,1,5f8b37843ad42e0fea9f14c0,Kobieta,21,2021-07-13_21h24.00.444,rantool2,2021.1.4,Win32,59.63740458,5f8b37843ad42e0fea9f14c0,60d9d14f4a8a35a482e0d9bf,60ede84081c0567442486b9b,,,,,,,,,,,,
"[""comma""]",0,[0.31729999999701874],19,0,19,0,1,5f8b37843ad42e0fea9f14c0,Kobieta,21,2021-07-13_21h24.00.444,rantool2,2021.1.4,Win32,59.63740458,5f8b37843ad42e0fea9f14c0,60d9d14f4a8a35a482e0d9bf,60ede84081c0567442486b9b,,,,,,,,,,,,
"[""comma""]",0,[0.10020000000298523],20,0,20,0,1,5f8b37843ad42e0fea9f14c0,Kobieta,21,2021-07-13_21h24.00.444,rantool2,2021.1.4,Win32,59.63740458,5f8b37843ad42e0fea9f14c0,60d9d14f4a8a35a482e0d9bf,60ede84081c0567442486b9b,,,,,,,,,,,,
"[""comma""]",0,[0.21770000000299206],21,0,21,0,1,5f8b37843ad42e0fea9f14c0,Kobieta,21,2021-07-13_21h24.00.444,rantool2,2021.1.4,Win32,59.63740458,5f8b37843ad42e0fea9f14c0,60d9d14f4a8a35a482e0d9bf,60ede84081c0567442486b9b,,,,,,,,,,,,
"[""comma""]",0,[0.27549999999999386],22,0,22,0,1,5f8b37843ad42e0fea9f14c0,Kobieta,21,2021-07-13_21h24.00.444,rantool2,2021.1.4,Win32,59.63740458,5f8b37843ad42e0fea9f14c0,60d9d14f4a8a35a482e0d9bf,60ede84081c0567442486b9b,,,,,,,,,,,,
"[""comma"",""comma""]",0,"[0.02740000000595444,0.993100000008937]",23,0,23,0,1,5f8b37843ad42e0fea9f14c0,Kobieta,21,2021-07-13_21h24.00.444,rantool2,2021.1.4,Win32,59.63740458,5f8b37843ad42e0fea9f14c0,60d9d14f4a8a35a482e0d9bf,60ede84081c0567442486b9b,,,,,,,,,,,,
"[""comma""]",0,[0.279399999991071],24,0,24,0,1,5f8b37843ad42e0fea9f14c0,Kobieta,21,2021-07-13_21h24.00.444,rantool2,2021.1.4,Win32,59.63740458,5f8b37843ad42e0fea9f14c0,60d9d14f4a8a35a482e0d9bf,60ede84081c0567442486b9b,,,,,,,,,,,,
"[""comma""]",0,[0.29909999999404135],25,0,25,0,1,5f8b37843ad42e0fea9f14c0,Kobieta,21,2021-07-13_21h24.00.444,rantool2,2021.1.4,Win32,59.63740458,5f8b37843ad42e0fea9f14c0,60d9d14f4a8a35a482e0d9bf,60ede84081c0567442486b9b,,,,,,,,,,,,
"[""period""]",0,[0.07870000000298205],26,0,26,0,1,5f8b37843ad42e0fea9f14c0,Kobieta,21,2021-07-13_21h24.00.444,rantool2,2021.1.4,Win32,59.63740458,5f8b37843ad42e0fea9f14c0,60d9d14f4a8a35a482e0d9bf,60ede84081c0567442486b9b,,,,,,,,,,,,
"[""period"",""period""]",0,"[-0.01309999999403999,0.5356000000089409]",27,0,27,0,1,5f8b37843ad42e0fea9f14c0,Kobieta,21,2021-07-13_21h24.00.444,rantool2,2021.1.4,Win32,59.63740458,5f8b37843ad42e0fea9f14c0,60d9d14f4a8a35a482e0d9bf,60ede84081c0567442486b9b,,,,,,,,,,,,
"[""period""]",0,[0.240699999988081],28,0,28,0,1,5f8b37843ad42e0fea9f14c0,Kobieta,21,2021-07-13_21h24.00.444,rantool2,2021.1.4,Win32,59.63740458,5f8b37843ad42e0fea9f14c0,60d9d14f4a8a35a482e0d9bf,60ede84081c0567442486b9b,,,,,,,,,,,,
"[""comma""]",0,[0.2590999999940351],29,0,29,0,1,5f8b37843ad42e0fea9f14c0,Kobieta,21,2021-07-13_21h24.00.444,rantool2,2021.1.4,Win32,59.63740458,5f8b37843ad42e0fea9f14c0,60d9d14f4a8a35a482e0d9bf,60ede84081c0567442486b9b,,,,,,,,,,,,
"[""comma""]",0,[0.1683999999910668],30,0,30,0,1,5f8b37843ad42e0fea9f14c0,Kobieta,21,2021-07-13_21h24.00.444,rantool2,2021.1.4,Win32,59.63740458,5f8b37843ad42e0fea9f14c0,60d9d14f4a8a35a482e0d9bf,60ede84081c0567442486b9b,,,,,,,,,,,,
"[""comma""]",0,[0.04419999998808066],31,0,31,0,1,5f8b37843ad42e0fea9f14c0,Kobieta,21,2021-07-13_21h24.00.444,rantool2,2021.1.4,Win32,59.63740458,5f8b37843ad42e0fea9f14c0,60d9d14f4a8a35a482e0d9bf,60ede84081c0567442486b9b,,,,,,,,,,,,
"[""comma""]",0,[0.21770000000297784],32,0,32,0,1,5f8b37843ad42e0fea9f14c0,Kobieta,21,2021-07-13_21h24.00.444,rantool2,2021.1.4,Win32,59.63740458,5f8b37843ad42e0fea9f14c0,60d9d14f4a8a35a482e0d9bf,60ede84081c0567442486b9b,,,,,,,,,,,,
"[""comma""]",0,[0.12810000000894206],33,0,33,0,1,5f8b37843ad42e0fea9f14c0,Kobieta,21,2021-07-13_21h24.00.444,rantool2,2021.1.4,Win32,59.63740458,5f8b37843ad42e0fea9f14c0,60d9d14f4a8a35a482e0d9bf,60ede84081c0567442486b9b,,,,,,,,,,,,
"[""comma""]",0,[0.15500000000000114],34,0,34,0,1,5f8b37843ad42e0fea9f14c0,Kobieta,21,2021-07-13_21h24.00.444,rantool2,2021.1.4,Win32,59.63740458,5f8b37843ad42e0fea9f14c0,60d9d14f4a8a35a482e0d9bf,60ede84081c0567442486b9b,,,,,,,,,,,,
"[""comma""]",0,[0.3260999999940424],35,0,35,0,1,5f8b37843ad42e0fea9f14c0,Kobieta,21,2021-07-13_21h24.00.444,rantool2,2021.1.4,Win32,59.63740458,5f8b37843ad42e0fea9f14c0,60d9d14f4a8a35a482e0d9bf,60ede84081c0567442486b9b,,,,,,,,,,,,
"[""comma""]",0,[0.2582000000029723],36,0,36,0,1,5f8b37843ad42e0fea9f14c0,Kobieta,21,2021-07-13_21h24.00.444,rantool2,2021.1.4,Win32,59.63740458,5f8b37843ad42e0fea9f14c0,60d9d14f4a8a35a482e0d9bf,60ede84081c0567442486b9b,,,,,,,,,,,,
"[""period""]",0,[0.10020000000298523],37,0,37,0,1,5f8b37843ad42e0fea9f14c0,Kobieta,21,2021-07-13_21h24.00.444,rantool2,2021.1.4,Win32,59.63740458,5f8b37843ad42e0fea9f14c0,60d9d14f4a8a35a482e0d9bf,60ede84081c0567442486b9b,,,,,,,,,,,,
"[""period""]",0,[0.1839999999999975],38,0,38,0,1,5f8b37843ad42e0fea9f14c0,Kobieta,21,2021-07-13_21h24.00.444,rantool2,2021.1.4,Win32,59.63740458,5f8b37843ad42e0fea9f14c0,60d9d14f4a8a35a482e0d9bf,60ede84081c0567442486b9b,,,,,,,,,,,,
"[""period"",""period""]",0,"[0.0708999999910418,0.3542999999970107]",39,0,39,0,1,5f8b37843ad42e0fea9f14c0,Kobieta,21,2021-07-13_21h24.00.444,rantool2,2021.1.4,Win32,59.63740458,5f8b37843ad42e0fea9f14c0,60d9d14f4a8a35a482e0d9bf,60ede84081c0567442486b9b,,,,,,,,,,,,
"[""period""]",0,[0.3069000000059532],40,0,40,0,1,5f8b37843ad42e0fea9f14c0,Kobieta,21,2021-07-13_21h24.00.444,rantool2,2021.1.4,Win32,59.63740458,5f8b37843ad42e0fea9f14c0,60d9d14f4a8a35a482e0d9bf,60ede84081c0567442486b9b,,,,,,,,,,,,
"[""period"",""period""]",0,"[0.2675000000000125,1.8870999999940352]",41,0,41,0,1,5f8b37843ad42e0fea9f14c0,Kobieta,21,2021-07-13_21h24.00.444,rantool2,2021.1.4,Win32,59.63740458,5f8b37843ad42e0fea9f14c0,60d9d14f4a8a35a482e0d9bf,60ede84081c0567442486b9b,,,,,,,,,,,,
"[""period""]",0,[0.18309999999402748],42,0,42,0,1,5f8b37843ad42e0fea9f14c0,Kobieta,21,2021-07-13_21h24.00.444,rantool2,2021.1.4,Win32,59.63740458,5f8b37843ad42e0fea9f14c0,60d9d14f4a8a35a482e0d9bf,60ede84081c0567442486b9b,,,,,,,,,,,,
"[""period""]",0,[0.31010000000893],43,0,43,0,1,5f8b37843ad42e0fea9f14c0,Kobieta,21,2021-07-13_21h24.00.444,rantool2,2021.1.4,Win32,59.63740458,5f8b37843ad42e0fea9f14c0,60d9d14f4a8a35a482e0d9bf,60ede84081c0567442486b9b,,,,,,,,,,,,
"[""period""]",0,[0.4000000000000057],44,0,44,0,1,5f8b37843ad42e0fea9f14c0,Kobieta,21,2021-07-13_21h24.00.444,rantool2,2021.1.4,Win32,59.63740458,5f8b37843ad42e0fea9f14c0,60d9d14f4a8a35a482e0d9bf,60ede84081c0567442486b9b,,,,,,,,,,,,
"[""period""]",0,[0.5],45,0,45,0,1,5f8b37843ad42e0fea9f14c0,Kobieta,21,2021-07-13_21h24.00.444,rantool2,2021.1.4,Win32,59.63740458,5f8b37843ad42e0fea9f14c0,60d9d14f4a8a35a482e0d9bf,60ede84081c0567442486b9b,,,,,,,,,,,,
"[""period""]",0,[0.12000000000000455],46,0,46,0,1,5f8b37843ad42e0fea9f14c0,Kobieta,21,2021-07-13_21h24.00.444,rantool2,2021.1.4,Win32,59.63740458,5f8b37843ad42e0fea9f14c0,60d9d14f4a8a35a482e0d9bf,60ede84081c0567442486b9b,,,,,,,,,,,,
"[""comma""]",0,[0.18410000000895366],47,0,47,0,1,5f8b37843ad42e0fea9f14c0,Kobieta,21,2021-07-13_21h24.00.444,rantool2,2021.1.4,Win32,59.63740458,5f8b37843ad42e0fea9f14c0,60d9d14f4a8a35a482e0d9bf,60ede84081c0567442486b9b,,,,,,,,,,,,
0,0,,48,0,48,0,1,5f8b37843ad42e0fea9f14c0,Kobieta,21,2021-07-13_21h24.00.444,rantool2,2021.1.4,Win32,59.63740458,5f8b37843ad42e0fea9f14c0,60d9d14f4a8a35a482e0d9bf,60ede84081c0567442486b9b,,,,,,,,,,,,
"[""period"",""comma""]",0,"[0.4069000000059475,1.902700000002966]",49,0,49,0,1,5f8b37843ad42e0fea9f14c0,Kobieta,21,2021-07-13_21h24.00.444,rantool2,2021.1.4,Win32,59.63740458,5f8b37843ad42e0fea9f14c0,60d9d14f4a8a35a482e0d9bf,60ede84081c0567442486b9b,,,,,,,,,,,,
"[""comma""]",0,[0.33499999999997954],50,0,50,0,1,5f8b37843ad42e0fea9f14c0,Kobieta,21,2021-07-13_21h24.00.444,rantool2,2021.1.4,Win32,59.63740458,5f8b37843ad42e0fea9f14c0,60d9d14f4a8a35a482e0d9bf,60ede84081c0567442486b9b,,,,,,,,,,,,
"[""comma""]",0,[0.3187000000029627],51,0,51,0,1,5f8b37843ad42e0fea9f14c0,Kobieta,21,2021-07-13_21h24.00.444,rantool2,2021.1.4,Win32,59.63740458,5f8b37843ad42e0fea9f14c0,60d9d14f4a8a35a482e0d9bf,60ede84081c0567442486b9b,,,,,,,,,,,,
"[""period""]",0,[0.34499999999999886],52,0,52,0,1,5f8b37843ad42e0fea9f14c0,Kobieta,21,2021-07-13_21h24.00.444,rantool2,2021.1.4,Win32,59.63740458,5f8b37843ad42e0fea9f14c0,60d9d14f4a8a35a482e0d9bf,60ede84081c0567442486b9b,,,,,,,,,,,,
"[""period"",""period""]",0,"[0.2370000000000232,0.5044000000059725]",53,0,53,0,1,5f8b37843ad42e0fea9f14c0,Kobieta,21,2021-07-13_21h24.00.444,rantool2,2021.1.4,Win32,59.63740458,5f8b37843ad42e0fea9f14c0,60d9d14f4a8a35a482e0d9bf,60ede84081c0567442486b9b,,,,,,,,,,,,
"[""period""]",0,[0.4165999999940482],54,0,54,0,1,5f8b37843ad42e0fea9f14c0,Kobieta,21,2021-07-13_21h24.00.444,rantool2,2021.1.4,Win32,59.63740458,5f8b37843ad42e0fea9f14c0,60d9d14f4a8a35a482e0d9bf,60ede84081c0567442486b9b,,,,,,,,,,,,
"[""period""]",0,[0.7044999999999959],55,0,55,0,1,5f8b37843ad42e0fea9f14c0,Kobieta,21,2021-07-13_21h24.00.444,rantool2,2021.1.4,Win32,59.63740458,5f8b37843ad42e0fea9f14c0,60d9d14f4a8a35a482e0d9bf,60ede84081c0567442486b9b,,,,,,,,,,,,
0,0,,56,0,56,0,1,5f8b37843ad42e0fea9f14c0,Kobieta,21,2021-07-13_21h24.00.444,rantool2,2021.1.4,Win32,59.63740458,5f8b37843ad42e0fea9f14c0,60d9d14f4a8a35a482e0d9bf,60ede84081c0567442486b9b,,,,,,,,,,,,
"[""period"",""period""]",0,"[0.21560000000894775,1.9047000000029755]",57,0,57,0,1,5f8b37843ad42e0fea9f14c0,Kobieta,21,2021-07-13_21h24.00.444,rantool2,2021.1.4,Win32,59.63740458,5f8b37843ad42e0fea9f14c0,60d9d14f4a8a35a482e0d9bf,60ede84081c0567442486b9b,,,,,,,,,,,,
"[""period""]",0,[0.13500000000001933],58,0,58,0,1,5f8b37843ad42e0fea9f14c0,Kobieta,21,2021-07-13_21h24.00.444,rantool2,2021.1.4,Win32,59.63740458,5f8b37843ad42e0fea9f14c0,60d9d14f4a8a35a482e0d9bf,60ede84081c0567442486b9b,,,,,,,,,,,,
"[""period"",""period""]",0,"[0.03529999999702227,1.6446000000089498]",59,0,59,0,1,5f8b37843ad42e0fea9f14c0,Kobieta,21,2021-07-13_21h24.00.444,rantool2,2021.1.4,Win32,59.63740458,5f8b37843ad42e0fea9f14c0,60d9d14f4a8a35a482e0d9bf,60ede84081c0567442486b9b,,,,,,,,,,,,
"[""period"",""period""]",0,"[0.024500000000017508,0.6007999999970366]",60,0,60,0,1,5f8b37843ad42e0fea9f14c0,Kobieta,21,2021-07-13_21h24.00.444,rantool2,2021.1.4,Win32,59.63740458,5f8b37843ad42e0fea9f14c0,60d9d14f4a8a35a482e0d9bf,60ede84081c0567442486b9b,,,,,,,,,,,,
"[""period""]",0,[0.08549999999999613],61,0,61,0,1,5f8b37843ad42e0fea9f14c0,Kobieta,21,2021-07-13_21h24.00.444,rantool2,2021.1.4,Win32,59.63740458,5f8b37843ad42e0fea9f14c0,60d9d14f4a8a35a482e0d9bf,60ede84081c0567442486b9b,,,,,,,,,,,,
"[""period"",""comma"",""comma""]",0,"[-0.012299999996997713,-0.00729999999700226,1.9310000000000116]",62,0,62,0,1,5f8b37843ad42e0fea9f14c0,Kobieta,21,2021-07-13_21h24.00.444,rantool2,2021.1.4,Win32,59.63740458,5f8b37843ad42e0fea9f14c0,60d9d14f4a8a35a482e0d9bf,60ede84081c0567442486b9b,,,,,,,,,,,,
0,0,,63,0,63,0,1,5f8b37843ad42e0fea9f14c0,Kobieta,21,2021-07-13_21h24.00.444,rantool2,2021.1.4,Win32,59.63740458,5f8b37843ad42e0fea9f14c0,60d9d14f4a8a35a482e0d9bf,60ede84081c0567442486b9b,,,,,,,,,,,,
"[""comma"",""comma""]",0,"[0.4843999999910409,1.0288999999910402]",64,0,64,0,1,5f8b37843ad42e0fea9f14c0,Kobieta,21,2021-07-13_21h24.00.444,rantool2,2021.1.4,Win32,59.63740458,5f8b37843ad42e0fea9f14c0,60d9d14f4a8a35a482e0d9bf,60ede84081c0567442486b9b,,,,,,,,,,,,
"[""period""]",0,[0.23940000000598616],65,0,65,0,1,5f8b37843ad42e0fea9f14c0,Kobieta,21,2021-07-13_21h24.00.444,rantool2,2021.1.4,Win32,59.63740458,5f8b37843ad42e0fea9f14c0,60d9d14f4a8a35a482e0d9bf,60ede84081c0567442486b9b,,,,,,,,,,,,
"[""period""]",0,[0.22260000000892433],66,0,66,0,1,5f8b37843ad42e0fea9f14c0,Kobieta,21,2021-07-13_21h24.00.444,rantool2,2021.1.4,Win32,59.63740458,5f8b37843ad42e0fea9f14c0,60d9d14f4a8a35a482e0d9bf,60ede84081c0567442486b9b,,,,,,,,,,,,
"[""period""]",0,[0.3348999999910802],67,0,67,0,1,5f8b37843ad42e0fea9f14c0,Kobieta,21,2021-07-13_21h24.00.444,rantool2,2021.1.4,Win32,59.63740458,5f8b37843ad42e0fea9f14c0,60d9d14f4a8a35a482e0d9bf,60ede84081c0567442486b9b,,,,,,,,,,,,
"[""period""]",0,[0.20089999999106567],68,0,68,0,1,5f8b37843ad42e0fea9f14c0,Kobieta,21,2021-07-13_21h24.00.444,rantool2,2021.1.4,Win32,59.63740458,5f8b37843ad42e0fea9f14c0,60d9d14f4a8a35a482e0d9bf,60ede84081c0567442486b9b,,,,,,,,,,,,
"[""comma""]",0,[0.2175999999940359],69,0,69,0,1,5f8b37843ad42e0fea9f14c0,Kobieta,21,2021-07-13_21h24.00.444,rantool2,2021.1.4,Win32,59.63740458,5f8b37843ad42e0fea9f14c0,60d9d14f4a8a35a482e0d9bf,60ede84081c0567442486b9b,,,,,,,,,,,,
0,0,,70,0,70,0,1,5f8b37843ad42e0fea9f14c0,Kobieta,21,2021-07-13_21h24.00.444,rantool2,2021.1.4,Win32,59.63740458,5f8b37843ad42e0fea9f14c0,60d9d14f4a8a35a482e0d9bf,60ede84081c0567442486b9b,,,,,,,,,,,,
0,0,,71,0,71,0,1,5f8b37843ad42e0fea9f14c0,Kobieta,21,2021-07-13_21h24.00.444,rantool2,2021.1.4,Win32,59.63740458,5f8b37843ad42e0fea9f14c0,60d9d14f4a8a35a482e0d9bf,60ede84081c0567442486b9b,,,,,,,,,,,,
0,0,,72,0,72,0,1,5f8b37843ad42e0fea9f14c0,Kobieta,21,2021-07-13_21h24.00.444,rantool2,2021.1.4,Win32,59.63740458,5f8b37843ad42e0fea9f14c0,60d9d14f4a8a35a482e0d9bf,60ede84081c0567442486b9b,,,,,,,,,,,,
0,0,,73,0,73,0,1,5f8b37843ad42e0fea9f14c0,Kobieta,21,2021-07-13_21h24.00.444,rantool2,2021.1.4,Win32,59.63740458,5f8b37843ad42e0fea9f14c0,60d9d14f4a8a35a482e0d9bf,60ede84081c0567442486b9b,,,,,,,,,,,,
0,0,,74,0,74,0,1,5f8b37843ad42e0fea9f14c0,Kobieta,21,2021-07-13_21h24.00.444,rantool2,2021.1.4,Win32,59.63740458,5f8b37843ad42e0fea9f14c0,60d9d14f4a8a35a482e0d9bf,60ede84081c0567442486b9b,,,,,,,,,,,,
0,0,,75,0,75,0,1,5f8b37843ad42e0fea9f14c0,Kobieta,21,2021-07-13_21h24.00.444,rantool2,2021.1.4,Win32,59.63740458,5f8b37843ad42e0fea9f14c0,60d9d14f4a8a35a482e0d9bf,60ede84081c0567442486b9b,,,,,,,,,,,,
0,0,,76,0,76,0,1,5f8b37843ad42e0fea9f14c0,Kobieta,21,2021-07-13_21h24.00.444,rantool2,2021.1.4,Win32,59.63740458,5f8b37843ad42e0fea9f14c0,60d9d14f4a8a35a482e0d9bf,60ede84081c0567442486b9b,,,,,,,,,,,,
"[""period""]",0,[0.4291000000089582],77,0,77,0,1,5f8b37843ad42e0fea9f14c0,Kobieta,21,2021-07-13_21h24.00.444,rantool2,2021.1.4,Win32,59.63740458,5f8b37843ad42e0fea9f14c0,60d9d14f4a8a35a482e0d9bf,60ede84081c0567442486b9b,,,,,,,,,,,,
"[""period""]",0,[0.32140000000595137],78,0,78,0,1,5f8b37843ad42e0fea9f14c0,Kobieta,21,2021-07-13_21h24.00.444,rantool2,2021.1.4,Win32,59.63740458,5f8b37843ad42e0fea9f14c0,60d9d14f4a8a35a482e0d9bf,60ede84081c0567442486b9b,,,,,,,,,,,,
"[""period""]",0,[0.208500000000015],79,0,79,0,1,5f8b37843ad42e0fea9f14c0,Kobieta,21,2021-07-13_21h24.00.444,rantool2,2021.1.4,Win32,59.63740458,5f8b37843ad42e0fea9f14c0,60d9d14f4a8a35a482e0d9bf,60ede84081c0567442486b9b,,,,,,,,,,,,
"[""period"",""period""]",0,"[0.05890000000596274,1.7654000000059682]",80,0,80,0,1,5f8b37843ad42e0fea9f14c0,Kobieta,21,2021-07-13_21h24.00.444,rantool2,2021.1.4,Win32,59.63740458,5f8b37843ad42e0fea9f14c0,60d9d14f4a8a35a482e0d9bf,60ede84081c0567442486b9b,,,,,,,,,,,,
"[""period"",""period""]",0,"[0.14059999999403772,1.9191999999880807]",81,0,81,0,1,5f8b37843ad42e0fea9f14c0,Kobieta,21,2021-07-13_21h24.00.444,rantool2,2021.1.4,Win32,59.63740458,5f8b37843ad42e0fea9f14c0,60d9d14f4a8a35a482e0d9bf,60ede84081c0567442486b9b,,,,,,,,,,,,
"[""period""]",0,[0.38470000000299365],82,0,82,0,1,5f8b37843ad42e0fea9f14c0,Kobieta,21,2021-07-13_21h24.00.444,rantool2,2021.1.4,Win32,59.63740458,5f8b37843ad42e0fea9f14c0,60d9d14f4a8a35a482e0d9bf,60ede84081c0567442486b9b,,,,,,,,,,,,
"[""period""]",0,[0.06090000000597229],83,0,83,0,1,5f8b37843ad42e0fea9f14c0,Kobieta,21,2021-07-13_21h24.00.444,rantool2,2021.1.4,Win32,59.63740458,5f8b37843ad42e0fea9f14c0,60d9d14f4a8a35a482e0d9bf,60ede84081c0567442486b9b,,,,,,,,,,,,
"[""period""]",0,[0.23529999999703932],84,0,84,0,1,5f8b37843ad42e0fea9f14c0,Kobieta,21,2021-07-13_21h24.00.444,rantool2,2021.1.4,Win32,59.63740458,5f8b37843ad42e0fea9f14c0,60d9d14f4a8a35a482e0d9bf,60ede84081c0567442486b9b,,,,,,,,,,,,
"[""comma""]",0,[0.26339999999103725],85,0,85,0,1,5f8b37843ad42e0fea9f14c0,Kobieta,21,2021-07-13_21h24.00.444,rantool2,2021.1.4,Win32,59.63740458,5f8b37843ad42e0fea9f14c0,60d9d14f4a8a35a482e0d9bf,60ede84081c0567442486b9b,,,,,,,,,,,,
"[""comma""]",0,[0.2789000000059616],86,0,86,0,1,5f8b37843ad42e0fea9f14c0,Kobieta,21,2021-07-13_21h24.00.444,rantool2,2021.1.4,Win32,59.63740458,5f8b37843ad42e0fea9f14c0,60d9d14f4a8a35a482e0d9bf,60ede84081c0567442486b9b,,,,,,,,,,,,
"[""comma""]",0,[0.25780000001191183],87,0,87,0,1,5f8b37843ad42e0fea9f14c0,Kobieta,21,2021-07-13_21h24.00.444,rantool2,2021.1.4,Win32,59.63740458,5f8b37843ad42e0fea9f14c0,60d9d14f4a8a35a482e0d9bf,60ede84081c0567442486b9b,,,,,,,,,,,,
"[""comma""]",0,[0.30020000000297387],88,0,88,0,1,5f8b37843ad42e0fea9f14c0,Kobieta,21,2021-07-13_21h24.00.444,rantool2,2021.1.4,Win32,59.63740458,5f8b37843ad42e0fea9f14c0,60d9d14f4a8a35a482e0d9bf,60ede84081c0567442486b9b,,,,,,,,,,,,
"[""comma""]",0,[0.5613999999910675],89,0,89,0,1,5f8b37843ad42e0fea9f14c0,Kobieta,21,2021-07-13_21h24.00.444,rantool2,2021.1.4,Win32,59.63740458,5f8b37843ad42e0fea9f14c0,60d9d14f4a8a35a482e0d9bf,60ede84081c0567442486b9b,,,,,,,,,,,,
"[""comma"",""comma""]",0,"[0.11299999999999955,1.95059999999404]",90,0,90,0,1,5f8b37843ad42e0fea9f14c0,Kobieta,21,2021-07-13_21h24.00.444,rantool2,2021.1.4,Win32,59.63740458,5f8b37843ad42e0fea9f14c0,60d9d14f4a8a35a482e0d9bf,60ede84081c0567442486b9b,,,,,,,,,,,,
"[""comma""]",0,[0.27600000000001046],91,0,91,0,1,5f8b37843ad42e0fea9f14c0,Kobieta,21,2021-07-13_21h24.00.444,rantool2,2021.1.4,Win32,59.63740458,5f8b37843ad42e0fea9f14c0,60d9d14f4a8a35a482e0d9bf,60ede84081c0567442486b9b,,,,,,,,,,,,
"[""comma""]",0,[1.0592000000029884],92,0,92,0,1,5f8b37843ad42e0fea9f14c0,Kobieta,21,2021-07-13_21h24.00.444,rantool2,2021.1.4,Win32,59.63740458,5f8b37843ad42e0fea9f14c0,60d9d14f4a8a35a482e0d9bf,60ede84081c0567442486b9b,,,,,,,,,,,,
"[""comma""]",0,[1.018299999996998],93,0,93,0,1,5f8b37843ad42e0fea9f14c0,Kobieta,21,2021-07-13_21h24.00.444,rantool2,2021.1.4,Win32,59.63740458,5f8b37843ad42e0fea9f14c0,60d9d14f4a8a35a482e0d9bf,60ede84081c0567442486b9b,,,,,,,,,,,,
0,0,,94,0,94,0,1,5f8b37843ad42e0fea9f14c0,Kobieta,21,2021-07-13_21h24.00.444,rantool2,2021.1.4,Win32,59.63740458,5f8b37843ad42e0fea9f14c0,60d9d14f4a8a35a482e0d9bf,60ede84081c0567442486b9b,,,,,,,,,,,,
"[""comma"",""comma""]",0,"[0.03700000000000614,0.42390000000597183]",95,0,95,0,1,5f8b37843ad42e0fea9f14c0,Kobieta,21,2021-07-13_21h24.00.444,rantool2,2021.1.4,Win32,59.63740458,5f8b37843ad42e0fea9f14c0,60d9d14f4a8a35a482e0d9bf,60ede84081c0567442486b9b,,,,,,,,,,,,
"[""comma""]",0,[0.37350000000000705],96,0,96,0,1,5f8b37843ad42e0fea9f14c0,Kobieta,21,2021-07-13_21h24.00.444,rantool2,2021.1.4,Win32,59.63740458,5f8b37843ad42e0fea9f14c0,60d9d14f4a8a35a482e0d9bf,60ede84081c0567442486b9b,,,,,,,,,,,,
"[""comma""]",0,[0.27270000000297046],97,0,97,0,1,5f8b37843ad42e0fea9f14c0,Kobieta,21,2021-07-13_21h24.00.444,rantool2,2021.1.4,Win32,59.63740458,5f8b37843ad42e0fea9f14c0,60d9d14f4a8a35a482e0d9bf,60ede84081c0567442486b9b,,,,,,,,,,,,
"[""comma""]",0,[0.29720000000298796],98,0,98,0,1,5f8b37843ad42e0fea9f14c0,Kobieta,21,2021-07-13_21h24.00.444,rantool2,2021.1.4,Win32,59.63740458,5f8b37843ad42e0fea9f14c0,60d9d14f4a8a35a482e0d9bf,60ede84081c0567442486b9b,,,,,,,,,,,,
0,0,,99,0,99,0,1,5f8b37843ad42e0fea9f14c0,Kobieta,21,2021-07-13_21h24.00.444,rantool2,2021.1.4,Win32,59.63740458,5f8b37843ad42e0fea9f14c0,60d9d14f4a8a35a482e0d9bf,60ede84081c0567442486b9b,,,,,,,,,,,,
"[""comma""]",0,[1.753699999988072],100,0,100,0,1,5f8b37843ad42e0fea9f14c0,Kobieta,21,2021-07-13_21h24.00.444,rantool2,2021.1.4,Win32,59.63740458,5f8b37843ad42e0fea9f14c0,60d9d14f4a8a35a482e0d9bf,60ede84081c0567442486b9b,,,,,,,,,,,,
0,0,,101,0,101,0,1,5f8b37843ad42e0fea9f14c0,Kobieta,21,2021-07-13_21h24.00.444,rantool2,2021.1.4,Win32,59.63740458,5f8b37843ad42e0fea9f14c0,60d9d14f4a8a35a482e0d9bf,60ede84081c0567442486b9b,,,,,,,,,,,,
"[""comma""]",0,[0.15100000000001046],102,0,102,0,1,5f8b37843ad42e0fea9f14c0,Kobieta,21,2021-07-13_21h24.00.444,rantool2,2021.1.4,Win32,59.63740458,5f8b37843ad42e0fea9f14c0,60d9d14f4a8a35a482e0d9bf,60ede84081c0567442486b9b,,,,,,,,,,,,
"[""comma""]",0,[0.23509999999401998],103,0,103,0,1,5f8b37843ad42e0fea9f14c0,Kobieta,21,2021-07-13_21h24.00.444,rantool2,2021.1.4,Win32,59.63740458,5f8b37843ad42e0fea9f14c0,60d9d14f4a8a35a482e0d9bf,60ede84081c0567442486b9b,,,,,,,,,,,,
"[""comma"",""comma"",""comma""]",0,"[1.2547000000029698,1.608799999997018,1.806400000005965]",104,0,104,0,1,5f8b37843ad42e0fea9f14c0,Kobieta,21,2021-07-13_21h24.00.444,rantool2,2021.1.4,Win32,59.63740458,5f8b37843ad42e0fea9f14c0,60d9d14f4a8a35a482e0d9bf,60ede84081c0567442486b9b,,,,,,,,,,,,
"[""comma"",""comma""]",0,"[0.05179999999700158,0.5223999999910802]",105,0,105,0,1,5f8b37843ad42e0fea9f14c0,Kobieta,21,2021-07-13_21h24.00.444,rantool2,2021.1.4,Win32,59.63740458,5f8b37843ad42e0fea9f14c0,60d9d14f4a8a35a482e0d9bf,60ede84081c0567442486b9b,,,,,,,,,,,,
"[""comma""]",0,[0.271000000000015],106,0,106,0,1,5f8b37843ad42e0fea9f14c0,Kobieta,21,2021-07-13_21h24.00.444,rantool2,2021.1.4,Win32,59.63740458,5f8b37843ad42e0fea9f14c0,60d9d14f4a8a35a482e0d9bf,60ede84081c0567442486b9b,,,,,,,,,,,,
"[""comma"",""comma"",""comma""]",0,"[0.0925999999940359,0.5686999999880982,1.9250999999940177]",107,0,107,0,1,5f8b37843ad42e0fea9f14c0,Kobieta,21,2021-07-13_21h24.00.444,rantool2,2021.1.4,Win32,59.63740458,5f8b37843ad42e0fea9f14c0,60d9d14f4a8a35a482e0d9bf,60ede84081c0567442486b9b,,,,,,,,,,,,
"[""comma"",""comma""]",0,"[0.2547000000029698,1.6877999999970257]",108,0,108,0,1,5f8b37843ad42e0fea9f14c0,Kobieta,21,2021-07-13_21h24.00.444,rantool2,2021.1.4,Win32,59.63740458,5f8b37843ad42e0fea9f14c0,60d9d14f4a8a35a482e0d9bf,60ede84081c0567442486b9b,,,,,,,,,,,,
"[""comma"",""comma""]",0,"[0.06899999999995998,0.5020999999940159]",109,0,109,0,1,5f8b37843ad42e0fea9f14c0,Kobieta,21,2021-07-13_21h24.00.444,rantool2,2021.1.4,Win32,59.63740458,5f8b37843ad42e0fea9f14c0,60d9d14f4a8a35a482e0d9bf,60ede84081c0567442486b9b,,,,,,,,,,,,
"[""comma""]",0,[0.14190000000593272],110,0,110,0,1,5f8b37843ad42e0fea9f14c0,Kobieta,21,2021-07-13_21h24.00.444,rantool2,2021.1.4,Win32,59.63740458,5f8b37843ad42e0fea9f14c0,60d9d14f4a8a35a482e0d9bf,60ede84081c0567442486b9b,,,,,,,,,,,,
"[""comma""]",0,[0.10380000001191547],111,0,111,0,1,5f8b37843ad42e0fea9f14c0,Kobieta,21,2021-07-13_21h24.00.444,rantool2,2021.1.4,Win32,59.63740458,5f8b37843ad42e0fea9f14c0,60d9d14f4a8a35a482e0d9bf,60ede84081c0567442486b9b,,,,,,,,,,,,
"[""period""]",0,[0.7270000000000323],112,0,112,0,1,5f8b37843ad42e0fea9f14c0,Kobieta,21,2021-07-13_21h24.00.444,rantool2,2021.1.4,Win32,59.63740458,5f8b37843ad42e0fea9f14c0,60d9d14f4a8a35a482e0d9bf,60ede84081c0567442486b9b,,,,,,,,,,,,
"[""period"",""period""]",0,"[0.0024999999999977263,0.3664999999999736]",113,0,113,0,1,5f8b37843ad42e0fea9f14c0,Kobieta,21,2021-07-13_21h24.00.444,rantool2,2021.1.4,Win32,59.63740458,5f8b37843ad42e0fea9f14c0,60d9d14f4a8a35a482e0d9bf,60ede84081c0567442486b9b,,,,,,,,,,,,
"[""period"",""period""]",0,"[-0.015799999997000214,0.33780000001195276]",114,0,114,0,1,5f8b37843ad42e0fea9f14c0,Kobieta,21,2021-07-13_21h24.00.444,rantool2,2021.1.4,Win32,59.63740458,5f8b37843ad42e0fea9f14c0,60d9d14f4a8a35a482e0d9bf,60ede84081c0567442486b9b,,,,,,,,,,,,
"[""period""]",0,[0.16959999999403408],115,0,115,0,1,5f8b37843ad42e0fea9f14c0,Kobieta,21,2021-07-13_21h24.00.444,rantool2,2021.1.4,Win32,59.63740458,5f8b37843ad42e0fea9f14c0,60d9d14f4a8a35a482e0d9bf,60ede84081c0567442486b9b,,,,,,,,,,,,
"[""period""]",0,[-0.013400000005958645],116,0,116,0,1,5f8b37843ad42e0fea9f14c0,Kobieta,21,2021-07-13_21h24.00.444,rantool2,2021.1.4,Win32,59.63740458,5f8b37843ad42e0fea9f14c0,60d9d14f4a8a35a482e0d9bf,60ede84081c0567442486b9b,,,,,,,,,,,,
"[""period"",""period""]",0,"[0.3095000000000141,1.79849999999999]",117,0,117,0,1,5f8b37843ad42e0fea9f14c0,Kobieta,21,2021-07-13_21h24.00.444,rantool2,2021.1.4,Win32,59.63740458,5f8b37843ad42e0fea9f14c0,60d9d14f4a8a35a482e0d9bf,60ede84081c0567442486b9b,,,,,,,,,,,,
"[""period"",""comma""]",0,"[0.13700000000000045,0.44389999999106067]",118,0,118,0,1,5f8b37843ad42e0fea9f14c0,Kobieta,21,2021-07-13_21h24.00.444,rantool2,2021.1.4,Win32,59.63740458,5f8b37843ad42e0fea9f14c0,60d9d14f4a8a35a482e0d9bf,60ede84081c0567442486b9b,,,,,,,,,,,,
"[""comma""]",0,[0.08410000000895934],119,0,119,0,1,5f8b37843ad42e0fea9f14c0,Kobieta,21,2021-07-13_21h24.00.444,rantool2,2021.1.4,Win32,59.63740458,5f8b37843ad42e0fea9f14c0,60d9d14f4a8a35a482e0d9bf,60ede84081c0567442486b9b,,,,,,,,,,,,
,,,,,,,,5f8b37843ad42e0fea9f14c0,Kobieta,21,2021-07-13_21h24.00.444,rantool2,2021.1.4,Win32,59.63740458,5f8b37843ad42e0fea9f14c0,60d9d14f4a8a35a482e0d9bf,60ede84081c0567442486b9b,f,4.8801,0,0,0,22,1,ORORROO,ORORROR,22.02732763,21.57657071,series_0
,,,,,,,,5f8b37843ad42e0fea9f14c0,Kobieta,21,2021-07-13_21h24.00.444,rantool2,2021.1.4,Win32,59.63740458,5f8b37843ad42e0fea9f14c0,60d9d14f4a8a35a482e0d9bf,60ede84081c0567442486b9b,f,2.5506,0,1,1,61,1,RRRRORO,RRRRORR,21.81333602,21.17347734,series_0
,,,,,,,,5f8b37843ad42e0fea9f14c0,Kobieta,21,2021-07-13_21h24.00.444,rantool2,2021.1.4,Win32,59.63740458,5f8b37843ad42e0fea9f14c0,60d9d14f4a8a35a482e0d9bf,60ede84081c0567442486b9b,f,2.1205,0,2,2,21,1,ORORORO,ORORORR,20.39515459,22.06781359,series_1
,,,,,,,,5f8b37843ad42e0fea9f14c0,Kobieta,21,2021-07-13_21h24.00.444,rantool2,2021.1.4,Win32,59.63740458,5f8b37843ad42e0fea9f14c0,60d9d14f4a8a35a482e0d9bf,60ede84081c0567442486b9b,f,1.6923,0,3,3,15,1,OORRRRO,OORRRRR,22.10108823,21.74922619,series_0
,,,,,,,,5f8b37843ad42e0fea9f14c0,Kobieta,21,2021-07-13_21h24.00.444,rantool2,2021.1.4,Win32,59.63740458,5f8b37843ad42e0fea9f14c0,60d9d14f4a8a35a482e0d9bf,60ede84081c0567442486b9b,j,1.5714,0,4,4,24,1,ORROOOO,ORROOOR,21.12383932,22.07102821,series_1
,,,,,,,,5f8b37843ad42e0fea9f14c0,Kobieta,21,2021-07-13_21h24.00.444,rantool2,2021.1.4,Win32,59.63740458,5f8b37843ad42e0fea9f14c0,60d9d14f4a8a35a482e0d9bf,60ede84081c0567442486b9b,j,1.7271,0,5,5,27,1,ORRORRO,ORRORRR,21.55250791,22.2428857,series_1
,,,,,,,,5f8b37843ad42e0fea9f14c0,Kobieta,21,2021-07-13_21h24.00.444,rantool2,2021.1.4,Win32,59.63740458,5f8b37843ad42e0fea9f14c0,60d9d14f4a8a35a482e0d9bf,60ede84081c0567442486b9b,f,2.1894,0,6,6,62,1,RRRRROO,RRRRROR,22.16413392,21.27974287,series_0
,,,,,,,,5f8b37843ad42e0fea9f14c0,Kobieta,21,2021-07-13_21h24.00.444,rantool2,2021.1.4,Win32,59.63740458,5f8b37843ad42e0fea9f14c0,60d9d14f4a8a35a482e0d9bf,60ede84081c0567442486b9b,f,1.4269,0,7,7,4,1,OOOROOO,OOOROOR,19.91402015,21.21223021,series_1
,,,,,,,,5f8b37843ad42e0fea9f14c0,Kobieta,21,2021-07-13_21h24.00.444,rantool2,2021.1.4,Win32,59.63740458,5f8b37843ad42e0fea9f14c0,60d9d14f4a8a35a482e0d9bf,60ede84081c0567442486b9b,j,1.5133,0,8,8,59,1,RRRORRO,RRRORRR,21.56657303,20.89823192,series_0
,,,,,,,,5f8b37843ad42e0fea9f14c0,Kobieta,21,2021-07-13_21h24.00.444,rantool2,2021.1.4,Win32,59.63740458,5f8b37843ad42e0fea9f14c0,60d9d14f4a8a35a482e0d9bf,60ede84081c0567442486b9b,f,1.5672,0,9,9,1,1,OOOOORO,OOOOORR,19.92253567,20.74050628,series_1
,,,,,,,,5f8b37843ad42e0fea9f14c0,Kobieta,21,2021-07-13_21h24.00.444,rantool2,2021.1.4,Win32,59.63740458,5f8b37843ad42e0fea9f14c0,60d9d14f4a8a35a482e0d9bf,60ede84081c0567442486b9b,j,1.5791,0,10,10,48,1,RROOOOO,RROOOOR,20.90986523,22.15934078,series_1
,,,,,,,,5f8b37843ad42e0fea9f14c0,Kobieta,21,2021-07-13_21h24.00.444,rantool2,2021.1.4,Win32,59.63740458,5f8b37843ad42e0fea9f14c0,60d9d14f4a8a35a482e0d9bf,60ede84081c0567442486b9b,j,1.7233,0,11,11,58,1,RRROROO,RRROROR,22.1285618,21.37121559,series_0
,,,,,,,,5f8b37843ad42e0fea9f14c0,Kobieta,21,2021-07-13_21h24.00.444,rantool2,2021.1.4,Win32,59.63740458,5f8b37843ad42e0fea9f14c0,60d9d14f4a8a35a482e0d9bf,60ede84081c0567442486b9b,f,1.281,0,12,12,57,1,RRROORO,RRROORR,21.82425538,22.07102821,series_1
,,,,,,,,5f8b37843ad42e0fea9f14c0,Kobieta,21,2021-07-13_21h24.00.444,rantool2,2021.1.4,Win32,59.63740458,5f8b37843ad42e0fea9f14c0,60d9d14f4a8a35a482e0d9bf,60ede84081c0567442486b9b,j,1.3802,0,13,13,11,1,OORORRO,OORORRR,22.18365867,22.6797523,series_1
,,,,,,,,5f8b37843ad42e0fea9f14c0,Kobieta,21,2021-07-13_21h24.00.444,rantool2,2021.1.4,Win32,59.63740458,5f8b37843ad42e0fea9f14c0,60d9d14f4a8a35a482e0d9bf,60ede84081c0567442486b9b,f,1.2878,0,14,14,34,1,ROOOROO,ROOOROR,21.03750787,21.24781509,series_1
,,,,,,,,5f8b37843ad42e0fea9f14c0,Kobieta,21,2021-07-13_21h24.00.444,rantool2,2021.1.4,Win32,59.63740458,5f8b37843ad42e0fea9f14c0,60d9d14f4a8a35a482e0d9bf,60ede84081c0567442486b9b,j,1.9961,0,15,15,9,1,OOROORO,OOROORR,21.07991943,22.2428857,series_1
,,,,,,,,5f8b37843ad42e0fea9f14c0,Kobieta,21,2021-07-13_21h24.00.444,rantool2,2021.1.4,Win32,59.63740458,5f8b37843ad42e0fea9f14c0,60d9d14f4a8a35a482e0d9bf,60ede84081c0567442486b9b,j,1.2251,0,16,16,47,1,RORRRRO,RORRRRR,21.81333602,21.02936224,series_0
,,,,,,,,5f8b37843ad42e0fea9f14c0,Kobieta,21,2021-07-13_21h24.00.444,rantool2,2021.1.4,Win32,59.63740458,5f8b37843ad42e0fea9f14c0,60d9d14f4a8a35a482e0d9bf,60ede84081c0567442486b9b,j,1.4128,0,17,17,54,1,RRORROO,RRORROR,21.55250791,20.9984461,series_0
,,,,,,,,5f8b37843ad42e0fea9f14c0,Kobieta,21,2021-07-13_21h24.00.444,rantool2,2021.1.4,Win32,59.63740458,5f8b37843ad42e0fea9f14c0,60d9d14f4a8a35a482e0d9bf,60ede84081c0567442486b9b,j,1.494,0,18,18,12,1,OORROOO,OORROOR,21.30250474,22.02786418,series_1
,,,,,,,,5f8b37843ad42e0fea9f14c0,Kobieta,21,2021-07-13_21h24.00.444,rantool2,2021.1.4,Win32,59.63740458,5f8b37843ad42e0fea9f14c0,60d9d14f4a8a35a482e0d9bf,60ede84081c0567442486b9b,f,1.5543,0,19,19,44,1,RORROOO,RORROOR,21.66733484,22.02566557,series_1
,,,,,,,,5f8b37843ad42e0fea9f14c0,Kobieta,21,2021-07-13_21h24.00.444,rantool2,2021.1.4,Win32,59.63740458,5f8b37843ad42e0fea9f14c0,60d9d14f4a8a35a482e0d9bf,60ede84081c0567442486b9b,f,1.4798,0,20,20,26,1,ORROROO,ORROROR,22.02732763,21.71443381,series_0
,,,,,,,,5f8b37843ad42e0fea9f14c0,Kobieta,21,2021-07-13_21h24.00.444,rantool2,2021.1.4,Win32,59.63740458,5f8b37843ad42e0fea9f14c0,60d9d14f4a8a35a482e0d9bf,60ede84081c0567442486b9b,f,1.5558,0,21,21,53,1,RRORORO,RRORORR,20.71309134,21.90565814,series_1
,,,,,,,,5f8b37843ad42e0fea9f14c0,Kobieta,21,2021-07-13_21h24.00.444,rantool2,2021.1.4,Win32,59.63740458,5f8b37843ad42e0fea9f14c0,60d9d14f4a8a35a482e0d9bf,60ede84081c0567442486b9b,f,1.4175,0,22,22,42,1,ROROROO,ROROROR,20.39515459,19.8361834,series_0
,,,,,,,,5f8b37843ad42e0fea9f14c0,Kobieta,21,2021-07-13_21h24.00.444,rantool2,2021.1.4,Win32,59.63740458,5f8b37843ad42e0fea9f14c0,60d9d14f4a8a35a482e0d9bf,60ede84081c0567442486b9b,f,1.2277,0,23,23,14,1,OORRROO,OORRROR,22.24142883,22.16977179,series_0
,,,,,,,,5f8b37843ad42e0fea9f14c0,Kobieta,21,2021-07-13_21h24.00.444,rantool2,2021.1.4,Win32,59.63740458,5f8b37843ad42e0fea9f14c0,60d9d14f4a8a35a482e0d9bf,60ede84081c0567442486b9b,f,1.4892,0,24,24,20,1,OROROOO,OROROOR,21.31236711,21.90565814,series_1
,,,,,,,,5f8b37843ad42e0fea9f14c0,Kobieta,21,2021-07-13_21h24.00.444,rantool2,2021.1.4,Win32,59.63740458,5f8b37843ad42e0fea9f14c0,60d9d14f4a8a35a482e0d9bf,60ede84081c0567442486b9b,f,1.3285,0,25,25,19,1,OROORRO,OROORRR,21.73568164,22.11181017,series_1
,,,,,,,,5f8b37843ad42e0fea9f14c0,Kobieta,21,2021-07-13_21h24.00.444,rantool2,2021.1.4,Win32,59.63740458,5f8b37843ad42e0fea9f14c0,60d9d14f4a8a35a482e0d9bf,60ede84081c0567442486b9b,j,2.0269,0,26,26,56,1,RRROOOO,RRROOOR,21.6194508,22.31681875,series_1
,,,,,,,,5f8b37843ad42e0fea9f14c0,Kobieta,21,2021-07-13_21h24.00.444,rantool2,2021.1.4,Win32,59.63740458,5f8b37843ad42e0fea9f14c0,60d9d14f4a8a35a482e0d9bf,60ede84081c0567442486b9b,f,1.7149,0,27,27,50,1,RROOROO,RROOROR,21.73568164,22.02566557,series_1
,,,,,,,,5f8b37843ad42e0fea9f14c0,Kobieta,21,2021-07-13_21h24.00.444,rantool2,2021.1.4,Win32,59.63740458,5f8b37843ad42e0fea9f14c0,60d9d14f4a8a35a482e0d9bf,60ede84081c0567442486b9b,f,1.9652,0,28,28,30,1,ORRRROO,ORRRROR,22.46748491,22.03072203,series_0
,,,,,,,,5f8b37843ad42e0fea9f14c0,Kobieta,21,2021-07-13_21h24.00.444,rantool2,2021.1.4,Win32,59.63740458,5f8b37843ad42e0fea9f14c0,60d9d14f4a8a35a482e0d9bf,60ede84081c0567442486b9b,f,4.1216,0,29,29,7,1,OOORRRO,OOORRRR,21.6194508,21.899017,series_1
,,,,,,,,5f8b37843ad42e0fea9f14c0,Kobieta,21,2021-07-13_21h24.00.444,rantool2,2021.1.4,Win32,59.63740458,5f8b37843ad42e0fea9f14c0,60d9d14f4a8a35a482e0d9bf,60ede84081c0567442486b9b,f,1.1115,0,30,30,3,1,OOOORRO,OOOORRR,20.90986523,21.74922619,series_1
,,,,,,,,5f8b37843ad42e0fea9f14c0,Kobieta,21,2021-07-13_21h24.00.444,rantool2,2021.1.4,Win32,59.63740458,5f8b37843ad42e0fea9f14c0,60d9d14f4a8a35a482e0d9bf,60ede84081c0567442486b9b,f,2.9075,0,31,31,55,1,RRORRRO,RRORRRR,21.56657303,21.21223021,series_0
,,,,,,,,5f8b37843ad42e0fea9f14c0,Kobieta,21,2021-07-13_21h24.00.444,rantool2,2021.1.4,Win32,59.63740458,5f8b37843ad42e0fea9f14c0,60d9d14f4a8a35a482e0d9bf,60ede84081c0567442486b9b,j,2.7086,0,32,32,13,1,OORRORO,OORRORR,21.66733484,22.11181017,series_1
,,,,,,,,5f8b37843ad42e0fea9f14c0,Kobieta,21,2021-07-13_21h24.00.444,rantool2,2021.1.4,Win32,59.63740458,5f8b37843ad42e0fea9f14c0,60d9d14f4a8a35a482e0d9bf,60ede84081c0567442486b9b,j,1.5463,0,33,33,32,1,ROOOOOO,ROOOOOR,19.92253567,21.27974287,series_1
,,,,,,,,5f8b37843ad42e0fea9f14c0,Kobieta,21,2021-07-13_21h24.00.444,rantool2,2021.1.4,Win32,59.63740458,5f8b37843ad42e0fea9f14c0,60d9d14f4a8a35a482e0d9bf,60ede84081c0567442486b9b,j,1.6952,0,34,34,16,1,OROOOOO,OROOOOR,20.43051175,21.17347734,series_1
,,,,,,,,5f8b37843ad42e0fea9f14c0,Kobieta,21,2021-07-13_21h24.00.444,rantool2,2021.1.4,Win32,59.63740458,5f8b37843ad42e0fea9f14c0,60d9d14f4a8a35a482e0d9bf,60ede84081c0567442486b9b,f,1.6361,0,35,35,5,1,OOORORO,OOORORR,20.87963819,21.9921709,series_1
,,,,,,,,5f8b37843ad42e0fea9f14c0,Kobieta,21,2021-07-13_21h24.00.444,rantool2,2021.1.4,Win32,59.63740458,5f8b37843ad42e0fea9f14c0,60d9d14f4a8a35a482e0d9bf,60ede84081c0567442486b9b,f,1.8067,0,36,36,36,1,ROOROOO,ROOROOR,21.07991943,20.9984461,series_0
,,,,,,,,5f8b37843ad42e0fea9f14c0,Kobieta,21,2021-07-13_21h24.00.444,rantool2,2021.1.4,Win32,59.63740458,5f8b37843ad42e0fea9f14c0,60d9d14f4a8a35a482e0d9bf,60ede84081c0567442486b9b,f,1.4279,0,37,37,63,1,RRRRRRO,RRRRRRR,21.35278725,19.62521613,series_0
,,,,,,,,5f8b37843ad42e0fea9f14c0,Kobieta,21,2021-07-13_21h24.00.444,rantool2,2021.1.4,Win32,59.63740458,5f8b37843ad42e0fea9f14c0,60d9d14f4a8a35a482e0d9bf,60ede84081c0567442486b9b,f,2.1224,0,38,38,10,1,OOROROO,OOROROR,21.31236711,21.07490964,series_0
,,,,,,,,5f8b37843ad42e0fea9f14c0,Kobieta,21,2021-07-13_21h24.00.444,rantool2,2021.1.4,Win32,59.63740458,5f8b37843ad42e0fea9f14c0,60d9d14f4a8a35a482e0d9bf,60ede84081c0567442486b9b,j,1.9311,0,39,39,37,1,ROORORO,ROORORR,20.42602454,21.57657071,series_1
,,,,,,,,5f8b37843ad42e0fea9f14c0,Kobieta,21,2021-07-13_21h24.00.444,rantool2,2021.1.4,Win32,59.63740458,5f8b37843ad42e0fea9f14c0,60d9d14f4a8a35a482e0d9bf,60ede84081c0567442486b9b,j,2.0299,0,40,40,45,1,RORRORO,RORRORR,20.78182524,21.22513037,series_1
,,,,,,,,5f8b37843ad42e0fea9f14c0,Kobieta,21,2021-07-13_21h24.00.444,rantool2,2021.1.4,Win32,59.63740458,5f8b37843ad42e0fea9f14c0,60d9d14f4a8a35a482e0d9bf,60ede84081c0567442486b9b,f,1.1672,0,41,41,39,1,ROORRRO,ROORRRR,21.82425538,21.38562617,series_0
,,,,,,,,5f8b37843ad42e0fea9f14c0,Kobieta,21,2021-07-13_21h24.00.444,rantool2,2021.1.4,Win32,59.63740458,5f8b37843ad42e0fea9f14c0,60d9d14f4a8a35a482e0d9bf,60ede84081c0567442486b9b,f,1.3233,0,42,42,29,1,ORRRORO,ORRRORR,22.00300695,22.12173012,series_1
,,,,,,,,5f8b37843ad42e0fea9f14c0,Kobieta,21,2021-07-13_21h24.00.444,rantool2,2021.1.4,Win32,59.63740458,5f8b37843ad42e0fea9f14c0,60d9d14f4a8a35a482e0d9bf,60ede84081c0567442486b9b,j,1.9739,0,43,43,49,1,RROOORO,RROOORR,21.76276513,22.53364006,series_1
,,,,,,,,5f8b37843ad42e0fea9f14c0,Kobieta,21,2021-07-13_21h24.00.444,rantool2,2021.1.4,Win32,59.63740458,5f8b37843ad42e0fea9f14c0,60d9d14f4a8a35a482e0d9bf,60ede84081c0567442486b9b,f,1.4042,0,44,44,41,1,ROROORO,ROROORR,20.42602454,21.71443381,series_1
,,,,,,,,5f8b37843ad42e0fea9f14c0,Kobieta,21,2021-07-13_21h24.00.444,rantool2,2021.1.4,Win32,59.63740458,5f8b37843ad42e0fea9f14c0,60d9d14f4a8a35a482e0d9bf,60ede84081c0567442486b9b,f,1.4662,0,45,45,52,1,RROROOO,RROROOR,22.18365867,22.11097995,series_0
,,,,,,,,5f8b37843ad42e0fea9f14c0,Kobieta,21,2021-07-13_21h24.00.444,rantool2,2021.1.4,Win32,59.63740458,5f8b37843ad42e0fea9f14c0,60d9d14f4a8a35a482e0d9bf,60ede84081c0567442486b9b,j,2.5632,0,46,46,38,1,ROORROO,ROORROR,21.79500819,21.36812781,series_0
,,,,,,,,5f8b37843ad42e0fea9f14c0,Kobieta,21,2021-07-13_21h24.00.444,rantool2,2021.1.4,Win32,59.63740458,5f8b37843ad42e0fea9f14c0,60d9d14f4a8a35a482e0d9bf,60ede84081c0567442486b9b,j,1.5709,0,47,47,33,1,ROOOORO,ROOOORR,20.83779602,22.03072203,series_1
,,,,,,,,5f8b37843ad42e0fea9f14c0,Kobieta,21,2021-07-13_21h24.00.444,rantool2,2021.1.4,Win32,59.63740458,5f8b37843ad42e0fea9f14c0,60d9d14f4a8a35a482e0d9bf,60ede84081c0567442486b9b,j,1.4409,0,48,48,35,1,ROOORRO,ROOORRR,21.76276513,22.16977179,series_1
,,,,,,,,5f8b37843ad42e0fea9f14c0,Kobieta,21,2021-07-13_21h24.00.444,rantool2,2021.1.4,Win32,59.63740458,5f8b37843ad42e0fea9f14c0,60d9d14f4a8a35a482e0d9bf,60ede84081c0567442486b9b,f,1.7433,0,49,49,23,1,ORORRRO,ORORRRR,22.1285618,21.9921709,series_0
,,,,,,,,5f8b37843ad42e0fea9f14c0,Kobieta,21,2021-07-13_21h24.00.444,rantool2,2021.1.4,Win32,59.63740458,5f8b37843ad42e0fea9f14c0,60d9d14f4a8a35a482e0d9bf,60ede84081c0567442486b9b,j,1.5046,0,50,50,46,1,RORRROO,RORRROR,22.00300695,21.24781509,series_0
,,,,,,,,5f8b37843ad42e0fea9f14c0,Kobieta,21,2021-07-13_21h24.00.444,rantool2,2021.1.4,Win32,59.63740458,5f8b37843ad42e0fea9f14c0,60d9d14f4a8a35a482e0d9bf,60ede84081c0567442486b9b,f,1.587,0,51,51,28,1,ORRROOO,ORRROOR,22.24142883,22.53364006,series_1
,,,,,,,,5f8b37843ad42e0fea9f14c0,Kobieta,21,2021-07-13_21h24.00.444,rantool2,2021.1.4,Win32,59.63740458,5f8b37843ad42e0fea9f14c0,60d9d14f4a8a35a482e0d9bf,60ede84081c0567442486b9b,j,1.245,0,52,52,2,1,OOOOROO,OOOOROR,20.43051175,21.02936224,series_1
,,,,,,,,5f8b37843ad42e0fea9f14c0,Kobieta,21,2021-07-13_21h24.00.444,rantool2,2021.1.4,Win32,59.63740458,5f8b37843ad42e0fea9f14c0,60d9d14f4a8a35a482e0d9bf,60ede84081c0567442486b9b,f,1.4552,0,53,53,18,1,OROOROO,OROOROR,20.84860893,21.22513037,series_1
,,,,,,,,5f8b37843ad42e0fea9f14c0,Kobieta,21,2021-07-13_21h24.00.444,rantool2,2021.1.4,Win32,59.63740458,5f8b37843ad42e0fea9f14c0,60d9d14f4a8a35a482e0d9bf,60ede84081c0567442486b9b,j,1.46,0,54,54,40,1,ROROOOO,ROROOOR,20.87963819,21.37121559,series_1
,,,,,,,,5f8b37843ad42e0fea9f14c0,Kobieta,21,2021-07-13_21h24.00.444,rantool2,2021.1.4,Win32,59.63740458,5f8b37843ad42e0fea9f14c0,60d9d14f4a8a35a482e0d9bf,60ede84081c0567442486b9b,f,1.6155,0,55,55,17,1,OROOORO,OROOORR,21.03750787,22.12173012,series_1
,,,,,,,,5f8b37843ad42e0fea9f14c0,Kobieta,21,2021-07-13_21h24.00.444,rantool2,2021.1.4,Win32,59.63740458,5f8b37843ad42e0fea9f14c0,60d9d14f4a8a35a482e0d9bf,60ede84081c0567442486b9b,j,1.6105,0,56,56,60,1,RRRROOO,RRRROOR,22.10108823,22.15934078,series_1
,,,,,,,,5f8b37843ad42e0fea9f14c0,Kobieta,21,2021-07-13_21h24.00.444,rantool2,2021.1.4,Win32,59.63740458,5f8b37843ad42e0fea9f14c0,60d9d14f4a8a35a482e0d9bf,60ede84081c0567442486b9b,f,1.5084,0,57,57,51,1,RROORRO,RROORRR,21.89852628,22.02786418,series_1
,,,,,,,,5f8b37843ad42e0fea9f14c0,Kobieta,21,2021-07-13_21h24.00.444,rantool2,2021.1.4,Win32,59.63740458,5f8b37843ad42e0fea9f14c0,60d9d14f4a8a35a482e0d9bf,60ede84081c0567442486b9b,j,1.2197,0,58,58,31,1,ORRRRRO,ORRRRRR,22.16413392,20.74050628,series_0
,,,,,,,,5f8b37843ad42e0fea9f14c0,Kobieta,21,2021-07-13_21h24.00.444,rantool2,2021.1.4,Win32,59.63740458,5f8b37843ad42e0fea9f14c0,60d9d14f4a8a35a482e0d9bf,60ede84081c0567442486b9b,f,1.1959,0,59,59,0,1,OOOOOOO,OOOOOOR,18.52739004,19.62521613,series_1
,,,,,,,,5f8b37843ad42e0fea9f14c0,Kobieta,21,2021-07-13_21h24.00.444,rantool2,2021.1.4,Win32,59.63740458,5f8b37843ad42e0fea9f14c0,60d9d14f4a8a35a482e0d9bf,60ede84081c0567442486b9b,j,1.2305,0,60,60,25,1,ORROORO,ORROORR,21.79500819,22.61624387,series_1
,,,,,,,,5f8b37843ad42e0fea9f14c0,Kobieta,21,2021-07-13_21h24.00.444,rantool2,2021.1.4,Win32,59.63740458,5f8b37843ad42e0fea9f14c0,60d9d14f4a8a35a482e0d9bf,60ede84081c0567442486b9b,f,0.9869,0,61,61,6,1,OOORROO,OOORROR,21.12383932,21.38562617,series_1
,,,,,,,,5f8b37843ad42e0fea9f14c0,Kobieta,21,2021-07-13_21h24.00.444,rantool2,2021.1.4,Win32,59.63740458,5f8b37843ad42e0fea9f14c0,60d9d14f4a8a35a482e0d9bf,60ede84081c0567442486b9b,j,1.491,0,62,62,8,1,OOROOOO,OOROOOR,19.91402015,20.89823192,series_1
,,,,,,,,5f8b37843ad42e0fea9f14c0,Kobieta,21,2021-07-13_21h24.00.444,rantool2,2021.1.4,Win32,59.63740458,5f8b37843ad42e0fea9f14c0,60d9d14f4a8a35a482e0d9bf,60ede84081c0567442486b9b,f,1.2839,0,63,63,43,1,RORORRO,RORORRR,20.71309134,21.07490964,series_1
