key_resp_7.keys,key_resp_7.rt,trials_2.thisRepN,trials_2.thisTrialN,trials_2.thisN,trials_2.thisIndex,trials_2.ran,id,series_0,series_1,acss_0,acss_1,comparison,id*,Płeć*,Wiek*,date,expName,psychopyVersion,OS,frameRate,STUDY_ID,SESSION_ID,key_resp_5.keys,key_resp_5.corr,key_resp_5.rt,trials.thisRepN,trials.thisTrialN,trials.thisN,trials.thisIndex,trials.ran
f,2.3536,0,0,0,25,1,610926e613ebd1c7193829e9,ORROORO,ORROORR,21.79500819,22.61624387,series_1,610926e613ebd1c7193829e9,Kobieta,18,2021-09-06_19h01.32.358,rantool2,2021.1.4,Win32,59.97001499,6135e006383e6ea6c3d06a28,6136494fcf5877fe15755cb3,,,,,,,,
j,1.6168,0,1,1,33,1,610926e613ebd1c7193829e9,ROOOORO,ROOOORR,20.83779602,22.03072203,series_1,610926e613ebd1c7193829e9,Kobieta,18,2021-09-06_19h01.32.358,rantool2,2021.1.4,Win32,59.97001499,6135e006383e6ea6c3d06a28,6136494fcf5877fe15755cb3,,,,,,,,
j,0.9343,0,2,2,6,1,610926e613ebd1c7193829e9,OOORROO,OOORROR,21.12383932,21.38562617,series_1,610926e613ebd1c7193829e9,Kobieta,18,2021-09-06_19h01.32.358,rantool2,2021.1.4,Win32,59.97001499,6135e006383e6ea6c3d06a28,6136494fcf5877fe15755cb3,,,,,,,,
f,0.6981,0,3,3,40,1,610926e613ebd1c7193829e9,ROROOOO,ROROOOR,20.87963819,21.37121559,series_1,610926e613ebd1c7193829e9,Kobieta,18,2021-09-06_19h01.32.358,rantool2,2021.1.4,Win32,59.97001499,6135e006383e6ea6c3d06a28,6136494fcf5877fe15755cb3,,,,,,,,
f,0.5844,0,4,4,39,1,610926e613ebd1c7193829e9,ROORRRO,ROORRRR,21.82425538,21.38562617,series_0,610926e613ebd1c7193829e9,Kobieta,18,2021-09-06_19h01.32.358,rantool2,2021.1.4,Win32,59.97001499,6135e006383e6ea6c3d06a28,6136494fcf5877fe15755cb3,,,,,,,,
j,0.8009,0,5,5,60,1,610926e613ebd1c7193829e9,RRRROOO,RRRROOR,22.10108823,22.15934078,series_1,610926e613ebd1c7193829e9,Kobieta,18,2021-09-06_19h01.32.358,rantool2,2021.1.4,Win32,59.97001499,6135e006383e6ea6c3d06a28,6136494fcf5877fe15755cb3,,,,,,,,
f,2.371,0,6,6,51,1,610926e613ebd1c7193829e9,RROORRO,RROORRR,21.89852628,22.02786418,series_1,610926e613ebd1c7193829e9,Kobieta,18,2021-09-06_19h01.32.358,rantool2,2021.1.4,Win32,59.97001499,6135e006383e6ea6c3d06a28,6136494fcf5877fe15755cb3,,,,,,,,
j,2.8563,0,7,7,43,1,610926e613ebd1c7193829e9,RORORRO,RORORRR,20.71309134,21.07490964,series_1,610926e613ebd1c7193829e9,Kobieta,18,2021-09-06_19h01.32.358,rantool2,2021.1.4,Win32,59.97001499,6135e006383e6ea6c3d06a28,6136494fcf5877fe15755cb3,,,,,,,,
f,1.1956,0,8,8,24,1,610926e613ebd1c7193829e9,ORROOOO,ORROOOR,21.12383932,22.07102821,series_1,610926e613ebd1c7193829e9,Kobieta,18,2021-09-06_19h01.32.358,rantool2,2021.1.4,Win32,59.97001499,6135e006383e6ea6c3d06a28,6136494fcf5877fe15755cb3,,,,,,,,
j,2.3361,0,9,9,37,1,610926e613ebd1c7193829e9,ROORORO,ROORORR,20.42602454,21.57657071,series_1,610926e613ebd1c7193829e9,Kobieta,18,2021-09-06_19h01.32.358,rantool2,2021.1.4,Win32,59.97001499,6135e006383e6ea6c3d06a28,6136494fcf5877fe15755cb3,,,,,,,,
f,1.0838,0,10,10,45,1,610926e613ebd1c7193829e9,RORRORO,RORRORR,20.78182524,21.22513037,series_1,610926e613ebd1c7193829e9,Kobieta,18,2021-09-06_19h01.32.358,rantool2,2021.1.4,Win32,59.97001499,6135e006383e6ea6c3d06a28,6136494fcf5877fe15755cb3,,,,,,,,
j,1.2131,0,11,11,19,1,610926e613ebd1c7193829e9,OROORRO,OROORRR,21.73568164,22.11181017,series_1,610926e613ebd1c7193829e9,Kobieta,18,2021-09-06_19h01.32.358,rantool2,2021.1.4,Win32,59.97001499,6135e006383e6ea6c3d06a28,6136494fcf5877fe15755cb3,,,,,,,,
j,2.2114,0,12,12,42,1,610926e613ebd1c7193829e9,ROROROO,ROROROR,20.39515459,19.8361834,series_0,610926e613ebd1c7193829e9,Kobieta,18,2021-09-06_19h01.32.358,rantool2,2021.1.4,Win32,59.97001499,6135e006383e6ea6c3d06a28,6136494fcf5877fe15755cb3,,,,,,,,
j,1.3521,0,13,13,20,1,610926e613ebd1c7193829e9,OROROOO,OROROOR,21.31236711,21.90565814,series_1,610926e613ebd1c7193829e9,Kobieta,18,2021-09-06_19h01.32.358,rantool2,2021.1.4,Win32,59.97001499,6135e006383e6ea6c3d06a28,6136494fcf5877fe15755cb3,,,,,,,,
f,1.1363,0,14,14,14,1,610926e613ebd1c7193829e9,OORRROO,OORRROR,22.24142883,22.16977179,series_0,610926e613ebd1c7193829e9,Kobieta,18,2021-09-06_19h01.32.358,rantool2,2021.1.4,Win32,59.97001499,6135e006383e6ea6c3d06a28,6136494fcf5877fe15755cb3,,,,,,,,
j,1.9447,0,15,15,26,1,610926e613ebd1c7193829e9,ORROROO,ORROROR,22.02732763,21.71443381,series_0,610926e613ebd1c7193829e9,Kobieta,18,2021-09-06_19h01.32.358,rantool2,2021.1.4,Win32,59.97001499,6135e006383e6ea6c3d06a28,6136494fcf5877fe15755cb3,,,,,,,,
j,1.1344,0,16,16,50,1,610926e613ebd1c7193829e9,RROOROO,RROOROR,21.73568164,22.02566557,series_1,610926e613ebd1c7193829e9,Kobieta,18,2021-09-06_19h01.32.358,rantool2,2021.1.4,Win32,59.97001499,6135e006383e6ea6c3d06a28,6136494fcf5877fe15755cb3,,,,,,,,
f,1.7373,0,17,17,52,1,610926e613ebd1c7193829e9,RROROOO,RROROOR,22.18365867,22.11097995,series_0,610926e613ebd1c7193829e9,Kobieta,18,2021-09-06_19h01.32.358,rantool2,2021.1.4,Win32,59.97001499,6135e006383e6ea6c3d06a28,6136494fcf5877fe15755cb3,,,,,,,,
j,1.4013,0,18,18,17,1,610926e613ebd1c7193829e9,OROOORO,OROOORR,21.03750787,22.12173012,series_1,610926e613ebd1c7193829e9,Kobieta,18,2021-09-06_19h01.32.358,rantool2,2021.1.4,Win32,59.97001499,6135e006383e6ea6c3d06a28,6136494fcf5877fe15755cb3,,,,,,,,
j,1.0178,0,19,19,10,1,610926e613ebd1c7193829e9,OOROROO,OOROROR,21.31236711,21.07490964,series_0,610926e613ebd1c7193829e9,Kobieta,18,2021-09-06_19h01.32.358,rantool2,2021.1.4,Win32,59.97001499,6135e006383e6ea6c3d06a28,6136494fcf5877fe15755cb3,,,,,,,,
f,0.9677,0,20,20,27,1,610926e613ebd1c7193829e9,ORRORRO,ORRORRR,21.55250791,22.2428857,series_1,610926e613ebd1c7193829e9,Kobieta,18,2021-09-06_19h01.32.358,rantool2,2021.1.4,Win32,59.97001499,6135e006383e6ea6c3d06a28,6136494fcf5877fe15755cb3,,,,,,,,
f,0.7893,0,21,21,30,1,610926e613ebd1c7193829e9,ORRRROO,ORRRROR,22.46748491,22.03072203,series_0,610926e613ebd1c7193829e9,Kobieta,18,2021-09-06_19h01.32.358,rantool2,2021.1.4,Win32,59.97001499,6135e006383e6ea6c3d06a28,6136494fcf5877fe15755cb3,,,,,,,,
f,0.7478,0,22,22,47,1,610926e613ebd1c7193829e9,RORRRRO,RORRRRR,21.81333602,21.02936224,series_0,610926e613ebd1c7193829e9,Kobieta,18,2021-09-06_19h01.32.358,rantool2,2021.1.4,Win32,59.97001499,6135e006383e6ea6c3d06a28,6136494fcf5877fe15755cb3,,,,,,,,
f,0.9512,0,23,23,3,1,610926e613ebd1c7193829e9,OOOORRO,OOOORRR,20.90986523,21.74922619,series_1,610926e613ebd1c7193829e9,Kobieta,18,2021-09-06_19h01.32.358,rantool2,2021.1.4,Win32,59.97001499,6135e006383e6ea6c3d06a28,6136494fcf5877fe15755cb3,,,,,,,,
f,2.2452,0,24,24,48,1,610926e613ebd1c7193829e9,RROOOOO,RROOOOR,20.90986523,22.15934078,series_1,610926e613ebd1c7193829e9,Kobieta,18,2021-09-06_19h01.32.358,rantool2,2021.1.4,Win32,59.97001499,6135e006383e6ea6c3d06a28,6136494fcf5877fe15755cb3,,,,,,,,
f,1.0635,0,25,25,59,1,610926e613ebd1c7193829e9,RRRORRO,RRRORRR,21.56657303,20.89823192,series_0,610926e613ebd1c7193829e9,Kobieta,18,2021-09-06_19h01.32.358,rantool2,2021.1.4,Win32,59.97001499,6135e006383e6ea6c3d06a28,6136494fcf5877fe15755cb3,,,,,,,,
j,0.9076,0,26,26,55,1,610926e613ebd1c7193829e9,RRORRRO,RRORRRR,21.56657303,21.21223021,series_0,610926e613ebd1c7193829e9,Kobieta,18,2021-09-06_19h01.32.358,rantool2,2021.1.4,Win32,59.97001499,6135e006383e6ea6c3d06a28,6136494fcf5877fe15755cb3,,,,,,,,
j,1.1265,0,27,27,0,1,610926e613ebd1c7193829e9,OOOOOOO,OOOOOOR,18.52739004,19.62521613,series_1,610926e613ebd1c7193829e9,Kobieta,18,2021-09-06_19h01.32.358,rantool2,2021.1.4,Win32,59.97001499,6135e006383e6ea6c3d06a28,6136494fcf5877fe15755cb3,,,,,,,,
f,1.1512,0,28,28,18,1,610926e613ebd1c7193829e9,OROOROO,OROOROR,20.84860893,21.22513037,series_1,610926e613ebd1c7193829e9,Kobieta,18,2021-09-06_19h01.32.358,rantool2,2021.1.4,Win32,59.97001499,6135e006383e6ea6c3d06a28,6136494fcf5877fe15755cb3,,,,,,,,
j,0.7121,0,29,29,61,1,610926e613ebd1c7193829e9,RRRRORO,RRRRORR,21.81333602,21.17347734,series_0,610926e613ebd1c7193829e9,Kobieta,18,2021-09-06_19h01.32.358,rantool2,2021.1.4,Win32,59.97001499,6135e006383e6ea6c3d06a28,6136494fcf5877fe15755cb3,,,,,,,,
f,0.9304,0,30,30,58,1,610926e613ebd1c7193829e9,RRROROO,RRROROR,22.1285618,21.37121559,series_0,610926e613ebd1c7193829e9,Kobieta,18,2021-09-06_19h01.32.358,rantool2,2021.1.4,Win32,59.97001499,6135e006383e6ea6c3d06a28,6136494fcf5877fe15755cb3,,,,,,,,
f,0.9009,0,31,31,21,1,610926e613ebd1c7193829e9,ORORORO,ORORORR,20.39515459,22.06781359,series_1,610926e613ebd1c7193829e9,Kobieta,18,2021-09-06_19h01.32.358,rantool2,2021.1.4,Win32,59.97001499,6135e006383e6ea6c3d06a28,6136494fcf5877fe15755cb3,,,,,,,,
j,0.4005,0,32,32,35,1,610926e613ebd1c7193829e9,ROOORRO,ROOORRR,21.76276513,22.16977179,series_1,610926e613ebd1c7193829e9,Kobieta,18,2021-09-06_19h01.32.358,rantool2,2021.1.4,Win32,59.97001499,6135e006383e6ea6c3d06a28,6136494fcf5877fe15755cb3,,,,,,,,
,,0,33,33,62,1,610926e613ebd1c7193829e9,RRRRROO,RRRRROR,22.16413392,21.27974287,series_0,610926e613ebd1c7193829e9,Kobieta,18,2021-09-06_19h01.32.358,rantool2,2021.1.4,Win32,59.97001499,6135e006383e6ea6c3d06a28,6136494fcf5877fe15755cb3,,,,,,,,
j,2.1183,0,34,34,4,1,610926e613ebd1c7193829e9,OOOROOO,OOOROOR,19.91402015,21.21223021,series_1,610926e613ebd1c7193829e9,Kobieta,18,2021-09-06_19h01.32.358,rantool2,2021.1.4,Win32,59.97001499,6135e006383e6ea6c3d06a28,6136494fcf5877fe15755cb3,,,,,,,,
f,0.6955,0,35,35,57,1,610926e613ebd1c7193829e9,RRROORO,RRROORR,21.82425538,22.07102821,series_1,610926e613ebd1c7193829e9,Kobieta,18,2021-09-06_19h01.32.358,rantool2,2021.1.4,Win32,59.97001499,6135e006383e6ea6c3d06a28,6136494fcf5877fe15755cb3,,,,,,,,
j,0.6345,0,36,36,46,1,610926e613ebd1c7193829e9,RORRROO,RORRROR,22.00300695,21.24781509,series_0,610926e613ebd1c7193829e9,Kobieta,18,2021-09-06_19h01.32.358,rantool2,2021.1.4,Win32,59.97001499,6135e006383e6ea6c3d06a28,6136494fcf5877fe15755cb3,,,,,,,,
j,0.7007,0,37,37,38,1,610926e613ebd1c7193829e9,ROORROO,ROORROR,21.79500819,21.36812781,series_0,610926e613ebd1c7193829e9,Kobieta,18,2021-09-06_19h01.32.358,rantool2,2021.1.4,Win32,59.97001499,6135e006383e6ea6c3d06a28,6136494fcf5877fe15755cb3,,,,,,,,
f,0.6193,0,38,38,36,1,610926e613ebd1c7193829e9,ROOROOO,ROOROOR,21.07991943,20.9984461,series_0,610926e613ebd1c7193829e9,Kobieta,18,2021-09-06_19h01.32.358,rantool2,2021.1.4,Win32,59.97001499,6135e006383e6ea6c3d06a28,6136494fcf5877fe15755cb3,,,,,,,,
j,0.8062,0,39,39,11,1,610926e613ebd1c7193829e9,OORORRO,OORORRR,22.18365867,22.6797523,series_1,610926e613ebd1c7193829e9,Kobieta,18,2021-09-06_19h01.32.358,rantool2,2021.1.4,Win32,59.97001499,6135e006383e6ea6c3d06a28,6136494fcf5877fe15755cb3,,,,,,,,
f,0.6453,0,40,40,12,1,610926e613ebd1c7193829e9,OORROOO,OORROOR,21.30250474,22.02786418,series_1,610926e613ebd1c7193829e9,Kobieta,18,2021-09-06_19h01.32.358,rantool2,2021.1.4,Win32,59.97001499,6135e006383e6ea6c3d06a28,6136494fcf5877fe15755cb3,,,,,,,,
j,0.4736,0,41,41,63,1,610926e613ebd1c7193829e9,RRRRRRO,RRRRRRR,21.35278725,19.62521613,series_0,610926e613ebd1c7193829e9,Kobieta,18,2021-09-06_19h01.32.358,rantool2,2021.1.4,Win32,59.97001499,6135e006383e6ea6c3d06a28,6136494fcf5877fe15755cb3,,,,,,,,
f,0.5674,0,42,42,56,1,610926e613ebd1c7193829e9,RRROOOO,RRROOOR,21.6194508,22.31681875,series_1,610926e613ebd1c7193829e9,Kobieta,18,2021-09-06_19h01.32.358,rantool2,2021.1.4,Win32,59.97001499,6135e006383e6ea6c3d06a28,6136494fcf5877fe15755cb3,,,,,,,,
j,0.4295,0,43,43,16,1,610926e613ebd1c7193829e9,OROOOOO,OROOOOR,20.43051175,21.17347734,series_1,610926e613ebd1c7193829e9,Kobieta,18,2021-09-06_19h01.32.358,rantool2,2021.1.4,Win32,59.97001499,6135e006383e6ea6c3d06a28,6136494fcf5877fe15755cb3,,,,,,,,
j,0.307,0,44,44,44,1,610926e613ebd1c7193829e9,RORROOO,RORROOR,21.66733484,22.02566557,series_1,610926e613ebd1c7193829e9,Kobieta,18,2021-09-06_19h01.32.358,rantool2,2021.1.4,Win32,59.97001499,6135e006383e6ea6c3d06a28,6136494fcf5877fe15755cb3,,,,,,,,
f,0.5341,0,45,45,49,1,610926e613ebd1c7193829e9,RROOORO,RROOORR,21.76276513,22.53364006,series_1,610926e613ebd1c7193829e9,Kobieta,18,2021-09-06_19h01.32.358,rantool2,2021.1.4,Win32,59.97001499,6135e006383e6ea6c3d06a28,6136494fcf5877fe15755cb3,,,,,,,,
f,0.5344,0,46,46,32,1,610926e613ebd1c7193829e9,ROOOOOO,ROOOOOR,19.92253567,21.27974287,series_1,610926e613ebd1c7193829e9,Kobieta,18,2021-09-06_19h01.32.358,rantool2,2021.1.4,Win32,59.97001499,6135e006383e6ea6c3d06a28,6136494fcf5877fe15755cb3,,,,,,,,
j,0.4088,0,47,47,41,1,610926e613ebd1c7193829e9,ROROORO,ROROORR,20.42602454,21.71443381,series_1,610926e613ebd1c7193829e9,Kobieta,18,2021-09-06_19h01.32.358,rantool2,2021.1.4,Win32,59.97001499,6135e006383e6ea6c3d06a28,6136494fcf5877fe15755cb3,,,,,,,,
j,0.7421,0,48,48,8,1,610926e613ebd1c7193829e9,OOROOOO,OOROOOR,19.91402015,20.89823192,series_1,610926e613ebd1c7193829e9,Kobieta,18,2021-09-06_19h01.32.358,rantool2,2021.1.4,Win32,59.97001499,6135e006383e6ea6c3d06a28,6136494fcf5877fe15755cb3,,,,,,,,
j,0.9515,0,49,49,13,1,610926e613ebd1c7193829e9,OORRORO,OORRORR,21.66733484,22.11181017,series_1,610926e613ebd1c7193829e9,Kobieta,18,2021-09-06_19h01.32.358,rantool2,2021.1.4,Win32,59.97001499,6135e006383e6ea6c3d06a28,6136494fcf5877fe15755cb3,,,,,,,,
f,0.534,0,50,50,54,1,610926e613ebd1c7193829e9,RRORROO,RRORROR,21.55250791,20.9984461,series_0,610926e613ebd1c7193829e9,Kobieta,18,2021-09-06_19h01.32.358,rantool2,2021.1.4,Win32,59.97001499,6135e006383e6ea6c3d06a28,6136494fcf5877fe15755cb3,,,,,,,,
f,0.4173,0,51,51,1,1,610926e613ebd1c7193829e9,OOOOORO,OOOOORR,19.92253567,20.74050628,series_1,610926e613ebd1c7193829e9,Kobieta,18,2021-09-06_19h01.32.358,rantool2,2021.1.4,Win32,59.97001499,6135e006383e6ea6c3d06a28,6136494fcf5877fe15755cb3,,,,,,,,
j,0.8796,0,52,52,34,1,610926e613ebd1c7193829e9,ROOOROO,ROOOROR,21.03750787,21.24781509,series_1,610926e613ebd1c7193829e9,Kobieta,18,2021-09-06_19h01.32.358,rantool2,2021.1.4,Win32,59.97001499,6135e006383e6ea6c3d06a28,6136494fcf5877fe15755cb3,,,,,,,,
j,0.7853,0,53,53,23,1,610926e613ebd1c7193829e9,ORORRRO,ORORRRR,22.1285618,21.9921709,series_0,610926e613ebd1c7193829e9,Kobieta,18,2021-09-06_19h01.32.358,rantool2,2021.1.4,Win32,59.97001499,6135e006383e6ea6c3d06a28,6136494fcf5877fe15755cb3,,,,,,,,
j,1.0845,0,54,54,7,1,610926e613ebd1c7193829e9,OOORRRO,OOORRRR,21.6194508,21.899017,series_1,610926e613ebd1c7193829e9,Kobieta,18,2021-09-06_19h01.32.358,rantool2,2021.1.4,Win32,59.97001499,6135e006383e6ea6c3d06a28,6136494fcf5877fe15755cb3,,,,,,,,
f,0.6367,0,55,55,28,1,610926e613ebd1c7193829e9,ORRROOO,ORRROOR,22.24142883,22.53364006,series_1,610926e613ebd1c7193829e9,Kobieta,18,2021-09-06_19h01.32.358,rantool2,2021.1.4,Win32,59.97001499,6135e006383e6ea6c3d06a28,6136494fcf5877fe15755cb3,,,,,,,,
f,0.634,0,56,56,53,1,610926e613ebd1c7193829e9,RRORORO,RRORORR,20.71309134,21.90565814,series_1,610926e613ebd1c7193829e9,Kobieta,18,2021-09-06_19h01.32.358,rantool2,2021.1.4,Win32,59.97001499,6135e006383e6ea6c3d06a28,6136494fcf5877fe15755cb3,,,,,,,,
j,0.6175,0,57,57,31,1,610926e613ebd1c7193829e9,ORRRRRO,ORRRRRR,22.16413392,20.74050628,series_0,610926e613ebd1c7193829e9,Kobieta,18,2021-09-06_19h01.32.358,rantool2,2021.1.4,Win32,59.97001499,6135e006383e6ea6c3d06a28,6136494fcf5877fe15755cb3,,,,,,,,
j,0.4522,0,58,58,29,1,610926e613ebd1c7193829e9,ORRRORO,ORRRORR,22.00300695,22.12173012,series_1,610926e613ebd1c7193829e9,Kobieta,18,2021-09-06_19h01.32.358,rantool2,2021.1.4,Win32,59.97001499,6135e006383e6ea6c3d06a28,6136494fcf5877fe15755cb3,,,,,,,,
j,0.5338,0,59,59,9,1,610926e613ebd1c7193829e9,OOROORO,OOROORR,21.07991943,22.2428857,series_1,610926e613ebd1c7193829e9,Kobieta,18,2021-09-06_19h01.32.358,rantool2,2021.1.4,Win32,59.97001499,6135e006383e6ea6c3d06a28,6136494fcf5877fe15755cb3,,,,,,,,
j,0.4263,0,60,60,2,1,610926e613ebd1c7193829e9,OOOOROO,OOOOROR,20.43051175,21.02936224,series_1,610926e613ebd1c7193829e9,Kobieta,18,2021-09-06_19h01.32.358,rantool2,2021.1.4,Win32,59.97001499,6135e006383e6ea6c3d06a28,6136494fcf5877fe15755cb3,,,,,,,,
j,0.384,0,61,61,22,1,610926e613ebd1c7193829e9,ORORROO,ORORROR,22.02732763,21.57657071,series_0,610926e613ebd1c7193829e9,Kobieta,18,2021-09-06_19h01.32.358,rantool2,2021.1.4,Win32,59.97001499,6135e006383e6ea6c3d06a28,6136494fcf5877fe15755cb3,,,,,,,,
j,0.2542,0,62,62,5,1,610926e613ebd1c7193829e9,OOORORO,OOORORR,20.87963819,21.9921709,series_1,610926e613ebd1c7193829e9,Kobieta,18,2021-09-06_19h01.32.358,rantool2,2021.1.4,Win32,59.97001499,6135e006383e6ea6c3d06a28,6136494fcf5877fe15755cb3,,,,,,,,
j,0.4434,0,63,63,15,1,610926e613ebd1c7193829e9,OORRRRO,OORRRRR,22.10108823,21.74922619,series_0,610926e613ebd1c7193829e9,Kobieta,18,2021-09-06_19h01.32.358,rantool2,2021.1.4,Win32,59.97001499,6135e006383e6ea6c3d06a28,6136494fcf5877fe15755cb3,,,,,,,,
,,,,,,,610926e613ebd1c7193829e9,,,,,,610926e613ebd1c7193829e9,Kobieta,18,2021-09-06_19h01.32.358,rantool2,2021.1.4,Win32,59.97001499,6135e006383e6ea6c3d06a28,6136494fcf5877fe15755cb3,0,,,0,0,0,0,1
,,,,,,,610926e613ebd1c7193829e9,,,,,,610926e613ebd1c7193829e9,Kobieta,18,2021-09-06_19h01.32.358,rantool2,2021.1.4,Win32,59.97001499,6135e006383e6ea6c3d06a28,6136494fcf5877fe15755cb3,0,,,1,0,1,0,1
,,,,,,,610926e613ebd1c7193829e9,,,,,,610926e613ebd1c7193829e9,Kobieta,18,2021-09-06_19h01.32.358,rantool2,2021.1.4,Win32,59.97001499,6135e006383e6ea6c3d06a28,6136494fcf5877fe15755cb3,"[""period""]",0,[0.7509000000953847],2,0,2,0,1
,,,,,,,610926e613ebd1c7193829e9,,,,,,610926e613ebd1c7193829e9,Kobieta,18,2021-09-06_19h01.32.358,rantool2,2021.1.4,Win32,59.97001499,6135e006383e6ea6c3d06a28,6136494fcf5877fe15755cb3,0,0,,3,0,3,0,1
,,,,,,,610926e613ebd1c7193829e9,,,,,,610926e613ebd1c7193829e9,Kobieta,18,2021-09-06_19h01.32.358,rantool2,2021.1.4,Win32,59.97001499,6135e006383e6ea6c3d06a28,6136494fcf5877fe15755cb3,0,0,,4,0,4,0,1
,,,,,,,610926e613ebd1c7193829e9,,,,,,610926e613ebd1c7193829e9,Kobieta,18,2021-09-06_19h01.32.358,rantool2,2021.1.4,Win32,59.97001499,6135e006383e6ea6c3d06a28,6136494fcf5877fe15755cb3,"[""comma""]",0,[0.7379000000953511],5,0,5,0,1
,,,,,,,610926e613ebd1c7193829e9,,,,,,610926e613ebd1c7193829e9,Kobieta,18,2021-09-06_19h01.32.358,rantool2,2021.1.4,Win32,59.97001499,6135e006383e6ea6c3d06a28,6136494fcf5877fe15755cb3,0,0,,6,0,6,0,1
,,,,,,,610926e613ebd1c7193829e9,,,,,,610926e613ebd1c7193829e9,Kobieta,18,2021-09-06_19h01.32.358,rantool2,2021.1.4,Win32,59.97001499,6135e006383e6ea6c3d06a28,6136494fcf5877fe15755cb3,"[""period""]",0,[1.7747999999523074],7,0,7,0,1
,,,,,,,610926e613ebd1c7193829e9,,,,,,610926e613ebd1c7193829e9,Kobieta,18,2021-09-06_19h01.32.358,rantool2,2021.1.4,Win32,59.97001499,6135e006383e6ea6c3d06a28,6136494fcf5877fe15755cb3,"[""comma"",""comma"",""period"",""comma"",""period"",""comma""]",0,"[0.1407999999523213,0.48439999985694726,0.724700000047676,0.9405999999046344,1.0927999999523195,1.2605999999046276]",8,0,8,0,1
,,,,,,,610926e613ebd1c7193829e9,,,,,,610926e613ebd1c7193829e9,Kobieta,18,2021-09-06_19h01.32.358,rantool2,2021.1.4,Win32,59.97001499,6135e006383e6ea6c3d06a28,6136494fcf5877fe15755cb3,0,0,,9,0,9,0,1
,,,,,,,610926e613ebd1c7193829e9,,,,,,610926e613ebd1c7193829e9,Kobieta,18,2021-09-06_19h01.32.358,rantool2,2021.1.4,Win32,59.97001499,6135e006383e6ea6c3d06a28,6136494fcf5877fe15755cb3,0,0,,10,0,10,0,1
,,,,,,,610926e613ebd1c7193829e9,,,,,,610926e613ebd1c7193829e9,Kobieta,18,2021-09-06_19h01.32.358,rantool2,2021.1.4,Win32,59.97001499,6135e006383e6ea6c3d06a28,6136494fcf5877fe15755cb3,0,0,,11,0,11,0,1
,,,,,,,610926e613ebd1c7193829e9,,,,,,610926e613ebd1c7193829e9,Kobieta,18,2021-09-06_19h01.32.358,rantool2,2021.1.4,Win32,59.97001499,6135e006383e6ea6c3d06a28,6136494fcf5877fe15755cb3,0,0,,12,0,12,0,1
,,,,,,,610926e613ebd1c7193829e9,,,,,,610926e613ebd1c7193829e9,Kobieta,18,2021-09-06_19h01.32.358,rantool2,2021.1.4,Win32,59.97001499,6135e006383e6ea6c3d06a28,6136494fcf5877fe15755cb3,0,0,,13,0,13,0,1
,,,,,,,610926e613ebd1c7193829e9,,,,,,610926e613ebd1c7193829e9,Kobieta,18,2021-09-06_19h01.32.358,rantool2,2021.1.4,Win32,59.97001499,6135e006383e6ea6c3d06a28,6136494fcf5877fe15755cb3,0,0,,14,0,14,0,1
,,,,,,,610926e613ebd1c7193829e9,,,,,,610926e613ebd1c7193829e9,Kobieta,18,2021-09-06_19h01.32.358,rantool2,2021.1.4,Win32,59.97001499,6135e006383e6ea6c3d06a28,6136494fcf5877fe15755cb3,0,0,,15,0,15,0,1
,,,,,,,610926e613ebd1c7193829e9,,,,,,610926e613ebd1c7193829e9,Kobieta,18,2021-09-06_19h01.32.358,rantool2,2021.1.4,Win32,59.97001499,6135e006383e6ea6c3d06a28,6136494fcf5877fe15755cb3,0,0,,16,0,16,0,1
,,,,,,,610926e613ebd1c7193829e9,,,,,,610926e613ebd1c7193829e9,Kobieta,18,2021-09-06_19h01.32.358,rantool2,2021.1.4,Win32,59.97001499,6135e006383e6ea6c3d06a28,6136494fcf5877fe15755cb3,0,0,,17,0,17,0,1
,,,,,,,610926e613ebd1c7193829e9,,,,,,610926e613ebd1c7193829e9,Kobieta,18,2021-09-06_19h01.32.358,rantool2,2021.1.4,Win32,59.97001499,6135e006383e6ea6c3d06a28,6136494fcf5877fe15755cb3,0,0,,18,0,18,0,1
,,,,,,,610926e613ebd1c7193829e9,,,,,,610926e613ebd1c7193829e9,Kobieta,18,2021-09-06_19h01.32.358,rantool2,2021.1.4,Win32,59.97001499,6135e006383e6ea6c3d06a28,6136494fcf5877fe15755cb3,0,0,,19,0,19,0,1
,,,,,,,610926e613ebd1c7193829e9,,,,,,610926e613ebd1c7193829e9,Kobieta,18,2021-09-06_19h01.32.358,rantool2,2021.1.4,Win32,59.97001499,6135e006383e6ea6c3d06a28,6136494fcf5877fe15755cb3,0,0,,20,0,20,0,1
,,,,,,,610926e613ebd1c7193829e9,,,,,,610926e613ebd1c7193829e9,Kobieta,18,2021-09-06_19h01.32.358,rantool2,2021.1.4,Win32,59.97001499,6135e006383e6ea6c3d06a28,6136494fcf5877fe15755cb3,0,0,,21,0,21,0,1
,,,,,,,610926e613ebd1c7193829e9,,,,,,610926e613ebd1c7193829e9,Kobieta,18,2021-09-06_19h01.32.358,rantool2,2021.1.4,Win32,59.97001499,6135e006383e6ea6c3d06a28,6136494fcf5877fe15755cb3,0,0,,22,0,22,0,1
,,,,,,,610926e613ebd1c7193829e9,,,,,,610926e613ebd1c7193829e9,Kobieta,18,2021-09-06_19h01.32.358,rantool2,2021.1.4,Win32,59.97001499,6135e006383e6ea6c3d06a28,6136494fcf5877fe15755cb3,0,0,,23,0,23,0,1
,,,,,,,610926e613ebd1c7193829e9,,,,,,610926e613ebd1c7193829e9,Kobieta,18,2021-09-06_19h01.32.358,rantool2,2021.1.4,Win32,59.97001499,6135e006383e6ea6c3d06a28,6136494fcf5877fe15755cb3,0,0,,24,0,24,0,1
,,,,,,,610926e613ebd1c7193829e9,,,,,,610926e613ebd1c7193829e9,Kobieta,18,2021-09-06_19h01.32.358,rantool2,2021.1.4,Win32,59.97001499,6135e006383e6ea6c3d06a28,6136494fcf5877fe15755cb3,0,0,,25,0,25,0,1
,,,,,,,610926e613ebd1c7193829e9,,,,,,610926e613ebd1c7193829e9,Kobieta,18,2021-09-06_19h01.32.358,rantool2,2021.1.4,Win32,59.97001499,6135e006383e6ea6c3d06a28,6136494fcf5877fe15755cb3,0,0,,26,0,26,0,1
,,,,,,,610926e613ebd1c7193829e9,,,,,,610926e613ebd1c7193829e9,Kobieta,18,2021-09-06_19h01.32.358,rantool2,2021.1.4,Win32,59.97001499,6135e006383e6ea6c3d06a28,6136494fcf5877fe15755cb3,0,0,,27,0,27,0,1
,,,,,,,610926e613ebd1c7193829e9,,,,,,610926e613ebd1c7193829e9,Kobieta,18,2021-09-06_19h01.32.358,rantool2,2021.1.4,Win32,59.97001499,6135e006383e6ea6c3d06a28,6136494fcf5877fe15755cb3,0,0,,28,0,28,0,1
,,,,,,,610926e613ebd1c7193829e9,,,,,,610926e613ebd1c7193829e9,Kobieta,18,2021-09-06_19h01.32.358,rantool2,2021.1.4,Win32,59.97001499,6135e006383e6ea6c3d06a28,6136494fcf5877fe15755cb3,0,0,,29,0,29,0,1
,,,,,,,610926e613ebd1c7193829e9,,,,,,610926e613ebd1c7193829e9,Kobieta,18,2021-09-06_19h01.32.358,rantool2,2021.1.4,Win32,59.97001499,6135e006383e6ea6c3d06a28,6136494fcf5877fe15755cb3,0,0,,30,0,30,0,1
,,,,,,,610926e613ebd1c7193829e9,,,,,,610926e613ebd1c7193829e9,Kobieta,18,2021-09-06_19h01.32.358,rantool2,2021.1.4,Win32,59.97001499,6135e006383e6ea6c3d06a28,6136494fcf5877fe15755cb3,0,0,,31,0,31,0,1
,,,,,,,610926e613ebd1c7193829e9,,,,,,610926e613ebd1c7193829e9,Kobieta,18,2021-09-06_19h01.32.358,rantool2,2021.1.4,Win32,59.97001499,6135e006383e6ea6c3d06a28,6136494fcf5877fe15755cb3,0,0,,32,0,32,0,1
,,,,,,,610926e613ebd1c7193829e9,,,,,,610926e613ebd1c7193829e9,Kobieta,18,2021-09-06_19h01.32.358,rantool2,2021.1.4,Win32,59.97001499,6135e006383e6ea6c3d06a28,6136494fcf5877fe15755cb3,0,0,,33,0,33,0,1
,,,,,,,610926e613ebd1c7193829e9,,,,,,610926e613ebd1c7193829e9,Kobieta,18,2021-09-06_19h01.32.358,rantool2,2021.1.4,Win32,59.97001499,6135e006383e6ea6c3d06a28,6136494fcf5877fe15755cb3,0,0,,34,0,34,0,1
,,,,,,,610926e613ebd1c7193829e9,,,,,,610926e613ebd1c7193829e9,Kobieta,18,2021-09-06_19h01.32.358,rantool2,2021.1.4,Win32,59.97001499,6135e006383e6ea6c3d06a28,6136494fcf5877fe15755cb3,"[""period""]",0,[1.09050000000002],35,0,35,0,1
,,,,,,,610926e613ebd1c7193829e9,,,,,,610926e613ebd1c7193829e9,Kobieta,18,2021-09-06_19h01.32.358,rantool2,2021.1.4,Win32,59.97001499,6135e006383e6ea6c3d06a28,6136494fcf5877fe15755cb3,0,0,,36,0,36,0,1
,,,,,,,610926e613ebd1c7193829e9,,,,,,610926e613ebd1c7193829e9,Kobieta,18,2021-09-06_19h01.32.358,rantool2,2021.1.4,Win32,59.97001499,6135e006383e6ea6c3d06a28,6136494fcf5877fe15755cb3,0,0,,37,0,37,0,1
,,,,,,,610926e613ebd1c7193829e9,,,,,,610926e613ebd1c7193829e9,Kobieta,18,2021-09-06_19h01.32.358,rantool2,2021.1.4,Win32,59.97001499,6135e006383e6ea6c3d06a28,6136494fcf5877fe15755cb3,0,0,,38,0,38,0,1
,,,,,,,610926e613ebd1c7193829e9,,,,,,610926e613ebd1c7193829e9,Kobieta,18,2021-09-06_19h01.32.358,rantool2,2021.1.4,Win32,59.97001499,6135e006383e6ea6c3d06a28,6136494fcf5877fe15755cb3,0,0,,39,0,39,0,1
,,,,,,,610926e613ebd1c7193829e9,,,,,,610926e613ebd1c7193829e9,Kobieta,18,2021-09-06_19h01.32.358,rantool2,2021.1.4,Win32,59.97001499,6135e006383e6ea6c3d06a28,6136494fcf5877fe15755cb3,0,0,,40,0,40,0,1
,,,,,,,610926e613ebd1c7193829e9,,,,,,610926e613ebd1c7193829e9,Kobieta,18,2021-09-06_19h01.32.358,rantool2,2021.1.4,Win32,59.97001499,6135e006383e6ea6c3d06a28,6136494fcf5877fe15755cb3,0,0,,41,0,41,0,1
,,,,,,,610926e613ebd1c7193829e9,,,,,,610926e613ebd1c7193829e9,Kobieta,18,2021-09-06_19h01.32.358,rantool2,2021.1.4,Win32,59.97001499,6135e006383e6ea6c3d06a28,6136494fcf5877fe15755cb3,0,0,,42,0,42,0,1
,,,,,,,610926e613ebd1c7193829e9,,,,,,610926e613ebd1c7193829e9,Kobieta,18,2021-09-06_19h01.32.358,rantool2,2021.1.4,Win32,59.97001499,6135e006383e6ea6c3d06a28,6136494fcf5877fe15755cb3,0,0,,43,0,43,0,1
,,,,,,,610926e613ebd1c7193829e9,,,,,,610926e613ebd1c7193829e9,Kobieta,18,2021-09-06_19h01.32.358,rantool2,2021.1.4,Win32,59.97001499,6135e006383e6ea6c3d06a28,6136494fcf5877fe15755cb3,0,0,,44,0,44,0,1
,,,,,,,610926e613ebd1c7193829e9,,,,,,610926e613ebd1c7193829e9,Kobieta,18,2021-09-06_19h01.32.358,rantool2,2021.1.4,Win32,59.97001499,6135e006383e6ea6c3d06a28,6136494fcf5877fe15755cb3,0,0,,45,0,45,0,1
,,,,,,,610926e613ebd1c7193829e9,,,,,,610926e613ebd1c7193829e9,Kobieta,18,2021-09-06_19h01.32.358,rantool2,2021.1.4,Win32,59.97001499,6135e006383e6ea6c3d06a28,6136494fcf5877fe15755cb3,0,0,,46,0,46,0,1
,,,,,,,610926e613ebd1c7193829e9,,,,,,610926e613ebd1c7193829e9,Kobieta,18,2021-09-06_19h01.32.358,rantool2,2021.1.4,Win32,59.97001499,6135e006383e6ea6c3d06a28,6136494fcf5877fe15755cb3,0,0,,47,0,47,0,1
,,,,,,,610926e613ebd1c7193829e9,,,,,,610926e613ebd1c7193829e9,Kobieta,18,2021-09-06_19h01.32.358,rantool2,2021.1.4,Win32,59.97001499,6135e006383e6ea6c3d06a28,6136494fcf5877fe15755cb3,0,0,,48,0,48,0,1
,,,,,,,610926e613ebd1c7193829e9,,,,,,610926e613ebd1c7193829e9,Kobieta,18,2021-09-06_19h01.32.358,rantool2,2021.1.4,Win32,59.97001499,6135e006383e6ea6c3d06a28,6136494fcf5877fe15755cb3,0,0,,49,0,49,0,1
,,,,,,,610926e613ebd1c7193829e9,,,,,,610926e613ebd1c7193829e9,Kobieta,18,2021-09-06_19h01.32.358,rantool2,2021.1.4,Win32,59.97001499,6135e006383e6ea6c3d06a28,6136494fcf5877fe15755cb3,0,0,,50,0,50,0,1
,,,,,,,610926e613ebd1c7193829e9,,,,,,610926e613ebd1c7193829e9,Kobieta,18,2021-09-06_19h01.32.358,rantool2,2021.1.4,Win32,59.97001499,6135e006383e6ea6c3d06a28,6136494fcf5877fe15755cb3,0,0,,51,0,51,0,1
,,,,,,,610926e613ebd1c7193829e9,,,,,,610926e613ebd1c7193829e9,Kobieta,18,2021-09-06_19h01.32.358,rantool2,2021.1.4,Win32,59.97001499,6135e006383e6ea6c3d06a28,6136494fcf5877fe15755cb3,0,0,,52,0,52,0,1
,,,,,,,610926e613ebd1c7193829e9,,,,,,610926e613ebd1c7193829e9,Kobieta,18,2021-09-06_19h01.32.358,rantool2,2021.1.4,Win32,59.97001499,6135e006383e6ea6c3d06a28,6136494fcf5877fe15755cb3,0,0,,53,0,53,0,1
,,,,,,,610926e613ebd1c7193829e9,,,,,,610926e613ebd1c7193829e9,Kobieta,18,2021-09-06_19h01.32.358,rantool2,2021.1.4,Win32,59.97001499,6135e006383e6ea6c3d06a28,6136494fcf5877fe15755cb3,0,0,,54,0,54,0,1
,,,,,,,610926e613ebd1c7193829e9,,,,,,610926e613ebd1c7193829e9,Kobieta,18,2021-09-06_19h01.32.358,rantool2,2021.1.4,Win32,59.97001499,6135e006383e6ea6c3d06a28,6136494fcf5877fe15755cb3,0,0,,55,0,55,0,1
,,,,,,,610926e613ebd1c7193829e9,,,,,,610926e613ebd1c7193829e9,Kobieta,18,2021-09-06_19h01.32.358,rantool2,2021.1.4,Win32,59.97001499,6135e006383e6ea6c3d06a28,6136494fcf5877fe15755cb3,0,0,,56,0,56,0,1
,,,,,,,610926e613ebd1c7193829e9,,,,,,610926e613ebd1c7193829e9,Kobieta,18,2021-09-06_19h01.32.358,rantool2,2021.1.4,Win32,59.97001499,6135e006383e6ea6c3d06a28,6136494fcf5877fe15755cb3,0,0,,57,0,57,0,1
,,,,,,,610926e613ebd1c7193829e9,,,,,,610926e613ebd1c7193829e9,Kobieta,18,2021-09-06_19h01.32.358,rantool2,2021.1.4,Win32,59.97001499,6135e006383e6ea6c3d06a28,6136494fcf5877fe15755cb3,0,0,,58,0,58,0,1
,,,,,,,610926e613ebd1c7193829e9,,,,,,610926e613ebd1c7193829e9,Kobieta,18,2021-09-06_19h01.32.358,rantool2,2021.1.4,Win32,59.97001499,6135e006383e6ea6c3d06a28,6136494fcf5877fe15755cb3,0,0,,59,0,59,0,1
,,,,,,,610926e613ebd1c7193829e9,,,,,,610926e613ebd1c7193829e9,Kobieta,18,2021-09-06_19h01.32.358,rantool2,2021.1.4,Win32,59.97001499,6135e006383e6ea6c3d06a28,6136494fcf5877fe15755cb3,0,0,,60,0,60,0,1
,,,,,,,610926e613ebd1c7193829e9,,,,,,610926e613ebd1c7193829e9,Kobieta,18,2021-09-06_19h01.32.358,rantool2,2021.1.4,Win32,59.97001499,6135e006383e6ea6c3d06a28,6136494fcf5877fe15755cb3,0,0,,61,0,61,0,1
,,,,,,,610926e613ebd1c7193829e9,,,,,,610926e613ebd1c7193829e9,Kobieta,18,2021-09-06_19h01.32.358,rantool2,2021.1.4,Win32,59.97001499,6135e006383e6ea6c3d06a28,6136494fcf5877fe15755cb3,0,0,,62,0,62,0,1
,,,,,,,610926e613ebd1c7193829e9,,,,,,610926e613ebd1c7193829e9,Kobieta,18,2021-09-06_19h01.32.358,rantool2,2021.1.4,Win32,59.97001499,6135e006383e6ea6c3d06a28,6136494fcf5877fe15755cb3,0,0,,63,0,63,0,1
,,,,,,,610926e613ebd1c7193829e9,,,,,,610926e613ebd1c7193829e9,Kobieta,18,2021-09-06_19h01.32.358,rantool2,2021.1.4,Win32,59.97001499,6135e006383e6ea6c3d06a28,6136494fcf5877fe15755cb3,0,0,,64,0,64,0,1
,,,,,,,610926e613ebd1c7193829e9,,,,,,610926e613ebd1c7193829e9,Kobieta,18,2021-09-06_19h01.32.358,rantool2,2021.1.4,Win32,59.97001499,6135e006383e6ea6c3d06a28,6136494fcf5877fe15755cb3,0,0,,65,0,65,0,1
,,,,,,,610926e613ebd1c7193829e9,,,,,,610926e613ebd1c7193829e9,Kobieta,18,2021-09-06_19h01.32.358,rantool2,2021.1.4,Win32,59.97001499,6135e006383e6ea6c3d06a28,6136494fcf5877fe15755cb3,0,0,,66,0,66,0,1
,,,,,,,610926e613ebd1c7193829e9,,,,,,610926e613ebd1c7193829e9,Kobieta,18,2021-09-06_19h01.32.358,rantool2,2021.1.4,Win32,59.97001499,6135e006383e6ea6c3d06a28,6136494fcf5877fe15755cb3,0,0,,67,0,67,0,1
,,,,,,,610926e613ebd1c7193829e9,,,,,,610926e613ebd1c7193829e9,Kobieta,18,2021-09-06_19h01.32.358,rantool2,2021.1.4,Win32,59.97001499,6135e006383e6ea6c3d06a28,6136494fcf5877fe15755cb3,0,0,,68,0,68,0,1
,,,,,,,610926e613ebd1c7193829e9,,,,,,610926e613ebd1c7193829e9,Kobieta,18,2021-09-06_19h01.32.358,rantool2,2021.1.4,Win32,59.97001499,6135e006383e6ea6c3d06a28,6136494fcf5877fe15755cb3,0,0,,69,0,69,0,1
,,,,,,,610926e613ebd1c7193829e9,,,,,,610926e613ebd1c7193829e9,Kobieta,18,2021-09-06_19h01.32.358,rantool2,2021.1.4,Win32,59.97001499,6135e006383e6ea6c3d06a28,6136494fcf5877fe15755cb3,0,0,,70,0,70,0,1
,,,,,,,610926e613ebd1c7193829e9,,,,,,610926e613ebd1c7193829e9,Kobieta,18,2021-09-06_19h01.32.358,rantool2,2021.1.4,Win32,59.97001499,6135e006383e6ea6c3d06a28,6136494fcf5877fe15755cb3,0,0,,71,0,71,0,1
,,,,,,,610926e613ebd1c7193829e9,,,,,,610926e613ebd1c7193829e9,Kobieta,18,2021-09-06_19h01.32.358,rantool2,2021.1.4,Win32,59.97001499,6135e006383e6ea6c3d06a28,6136494fcf5877fe15755cb3,0,0,,72,0,72,0,1
,,,,,,,610926e613ebd1c7193829e9,,,,,,610926e613ebd1c7193829e9,Kobieta,18,2021-09-06_19h01.32.358,rantool2,2021.1.4,Win32,59.97001499,6135e006383e6ea6c3d06a28,6136494fcf5877fe15755cb3,0,0,,73,0,73,0,1
,,,,,,,610926e613ebd1c7193829e9,,,,,,610926e613ebd1c7193829e9,Kobieta,18,2021-09-06_19h01.32.358,rantool2,2021.1.4,Win32,59.97001499,6135e006383e6ea6c3d06a28,6136494fcf5877fe15755cb3,0,0,,74,0,74,0,1
,,,,,,,610926e613ebd1c7193829e9,,,,,,610926e613ebd1c7193829e9,Kobieta,18,2021-09-06_19h01.32.358,rantool2,2021.1.4,Win32,59.97001499,6135e006383e6ea6c3d06a28,6136494fcf5877fe15755cb3,0,0,,75,0,75,0,1
,,,,,,,610926e613ebd1c7193829e9,,,,,,610926e613ebd1c7193829e9,Kobieta,18,2021-09-06_19h01.32.358,rantool2,2021.1.4,Win32,59.97001499,6135e006383e6ea6c3d06a28,6136494fcf5877fe15755cb3,0,0,,76,0,76,0,1
,,,,,,,610926e613ebd1c7193829e9,,,,,,610926e613ebd1c7193829e9,Kobieta,18,2021-09-06_19h01.32.358,rantool2,2021.1.4,Win32,59.97001499,6135e006383e6ea6c3d06a28,6136494fcf5877fe15755cb3,0,0,,77,0,77,0,1
,,,,,,,610926e613ebd1c7193829e9,,,,,,610926e613ebd1c7193829e9,Kobieta,18,2021-09-06_19h01.32.358,rantool2,2021.1.4,Win32,59.97001499,6135e006383e6ea6c3d06a28,6136494fcf5877fe15755cb3,0,0,,78,0,78,0,1
,,,,,,,610926e613ebd1c7193829e9,,,,,,610926e613ebd1c7193829e9,Kobieta,18,2021-09-06_19h01.32.358,rantool2,2021.1.4,Win32,59.97001499,6135e006383e6ea6c3d06a28,6136494fcf5877fe15755cb3,0,0,,79,0,79,0,1
,,,,,,,610926e613ebd1c7193829e9,,,,,,610926e613ebd1c7193829e9,Kobieta,18,2021-09-06_19h01.32.358,rantool2,2021.1.4,Win32,59.97001499,6135e006383e6ea6c3d06a28,6136494fcf5877fe15755cb3,0,0,,80,0,80,0,1
,,,,,,,610926e613ebd1c7193829e9,,,,,,610926e613ebd1c7193829e9,Kobieta,18,2021-09-06_19h01.32.358,rantool2,2021.1.4,Win32,59.97001499,6135e006383e6ea6c3d06a28,6136494fcf5877fe15755cb3,0,0,,81,0,81,0,1
,,,,,,,610926e613ebd1c7193829e9,,,,,,610926e613ebd1c7193829e9,Kobieta,18,2021-09-06_19h01.32.358,rantool2,2021.1.4,Win32,59.97001499,6135e006383e6ea6c3d06a28,6136494fcf5877fe15755cb3,0,0,,82,0,82,0,1
,,,,,,,610926e613ebd1c7193829e9,,,,,,610926e613ebd1c7193829e9,Kobieta,18,2021-09-06_19h01.32.358,rantool2,2021.1.4,Win32,59.97001499,6135e006383e6ea6c3d06a28,6136494fcf5877fe15755cb3,0,0,,83,0,83,0,1
,,,,,,,610926e613ebd1c7193829e9,,,,,,610926e613ebd1c7193829e9,Kobieta,18,2021-09-06_19h01.32.358,rantool2,2021.1.4,Win32,59.97001499,6135e006383e6ea6c3d06a28,6136494fcf5877fe15755cb3,0,0,,84,0,84,0,1
,,,,,,,610926e613ebd1c7193829e9,,,,,,610926e613ebd1c7193829e9,Kobieta,18,2021-09-06_19h01.32.358,rantool2,2021.1.4,Win32,59.97001499,6135e006383e6ea6c3d06a28,6136494fcf5877fe15755cb3,0,0,,85,0,85,0,1
,,,,,,,610926e613ebd1c7193829e9,,,,,,610926e613ebd1c7193829e9,Kobieta,18,2021-09-06_19h01.32.358,rantool2,2021.1.4,Win32,59.97001499,6135e006383e6ea6c3d06a28,6136494fcf5877fe15755cb3,0,0,,86,0,86,0,1
,,,,,,,610926e613ebd1c7193829e9,,,,,,610926e613ebd1c7193829e9,Kobieta,18,2021-09-06_19h01.32.358,rantool2,2021.1.4,Win32,59.97001499,6135e006383e6ea6c3d06a28,6136494fcf5877fe15755cb3,0,0,,87,0,87,0,1
,,,,,,,610926e613ebd1c7193829e9,,,,,,610926e613ebd1c7193829e9,Kobieta,18,2021-09-06_19h01.32.358,rantool2,2021.1.4,Win32,59.97001499,6135e006383e6ea6c3d06a28,6136494fcf5877fe15755cb3,0,0,,88,0,88,0,1
,,,,,,,610926e613ebd1c7193829e9,,,,,,610926e613ebd1c7193829e9,Kobieta,18,2021-09-06_19h01.32.358,rantool2,2021.1.4,Win32,59.97001499,6135e006383e6ea6c3d06a28,6136494fcf5877fe15755cb3,0,0,,89,0,89,0,1
,,,,,,,610926e613ebd1c7193829e9,,,,,,610926e613ebd1c7193829e9,Kobieta,18,2021-09-06_19h01.32.358,rantool2,2021.1.4,Win32,59.97001499,6135e006383e6ea6c3d06a28,6136494fcf5877fe15755cb3,0,0,,90,0,90,0,1
,,,,,,,610926e613ebd1c7193829e9,,,,,,610926e613ebd1c7193829e9,Kobieta,18,2021-09-06_19h01.32.358,rantool2,2021.1.4,Win32,59.97001499,6135e006383e6ea6c3d06a28,6136494fcf5877fe15755cb3,0,0,,91,0,91,0,1
,,,,,,,610926e613ebd1c7193829e9,,,,,,610926e613ebd1c7193829e9,Kobieta,18,2021-09-06_19h01.32.358,rantool2,2021.1.4,Win32,59.97001499,6135e006383e6ea6c3d06a28,6136494fcf5877fe15755cb3,0,0,,92,0,92,0,1
,,,,,,,610926e613ebd1c7193829e9,,,,,,610926e613ebd1c7193829e9,Kobieta,18,2021-09-06_19h01.32.358,rantool2,2021.1.4,Win32,59.97001499,6135e006383e6ea6c3d06a28,6136494fcf5877fe15755cb3,0,0,,93,0,93,0,1
,,,,,,,610926e613ebd1c7193829e9,,,,,,610926e613ebd1c7193829e9,Kobieta,18,2021-09-06_19h01.32.358,rantool2,2021.1.4,Win32,59.97001499,6135e006383e6ea6c3d06a28,6136494fcf5877fe15755cb3,"[""comma""]",0,[0.3012999999523345],94,0,94,0,1
,,,,,,,610926e613ebd1c7193829e9,,,,,,610926e613ebd1c7193829e9,Kobieta,18,2021-09-06_19h01.32.358,rantool2,2021.1.4,Win32,59.97001499,6135e006383e6ea6c3d06a28,6136494fcf5877fe15755cb3,"[""period""]",0,[0.29030000019071167],95,0,95,0,1
,,,,,,,610926e613ebd1c7193829e9,,,,,,610926e613ebd1c7193829e9,Kobieta,18,2021-09-06_19h01.32.358,rantool2,2021.1.4,Win32,59.97001499,6135e006383e6ea6c3d06a28,6136494fcf5877fe15755cb3,"[""comma""]",0,[0.26350000000002183],96,0,96,0,1
,,,,,,,610926e613ebd1c7193829e9,,,,,,610926e613ebd1c7193829e9,Kobieta,18,2021-09-06_19h01.32.358,rantool2,2021.1.4,Win32,59.97001499,6135e006383e6ea6c3d06a28,6136494fcf5877fe15755cb3,"[""period""]",0,[0.2713999998569534],97,0,97,0,1
,,,,,,,610926e613ebd1c7193829e9,,,,,,610926e613ebd1c7193829e9,Kobieta,18,2021-09-06_19h01.32.358,rantool2,2021.1.4,Win32,59.97001499,6135e006383e6ea6c3d06a28,6136494fcf5877fe15755cb3,"[""comma""]",0,[0.23379999995228218],98,0,98,0,1
,,,,,,,610926e613ebd1c7193829e9,,,,,,610926e613ebd1c7193829e9,Kobieta,18,2021-09-06_19h01.32.358,rantool2,2021.1.4,Win32,59.97001499,6135e006383e6ea6c3d06a28,6136494fcf5877fe15755cb3,"[""period""]",0,[0.27719999980922694],99,0,99,0,1
,,,,,,,610926e613ebd1c7193829e9,,,,,,610926e613ebd1c7193829e9,Kobieta,18,2021-09-06_19h01.32.358,rantool2,2021.1.4,Win32,59.97001499,6135e006383e6ea6c3d06a28,6136494fcf5877fe15755cb3,"[""period""]",0,[0.316799999952309],100,0,100,0,1
,,,,,,,610926e613ebd1c7193829e9,,,,,,610926e613ebd1c7193829e9,Kobieta,18,2021-09-06_19h01.32.358,rantool2,2021.1.4,Win32,59.97001499,6135e006383e6ea6c3d06a28,6136494fcf5877fe15755cb3,"[""period""]",0,[0.3209000000953779],101,0,101,0,1
,,,,,,,610926e613ebd1c7193829e9,,,,,,610926e613ebd1c7193829e9,Kobieta,18,2021-09-06_19h01.32.358,rantool2,2021.1.4,Win32,59.97001499,6135e006383e6ea6c3d06a28,6136494fcf5877fe15755cb3,"[""period""]",0,[0.03350000000000364],102,0,102,0,1
,,,,,,,610926e613ebd1c7193829e9,,,,,,610926e613ebd1c7193829e9,Kobieta,18,2021-09-06_19h01.32.358,rantool2,2021.1.4,Win32,59.97001499,6135e006383e6ea6c3d06a28,6136494fcf5877fe15755cb3,"[""period""]",0,[0.2545000000000073],103,0,103,0,1
,,,,,,,610926e613ebd1c7193829e9,,,,,,610926e613ebd1c7193829e9,Kobieta,18,2021-09-06_19h01.32.358,rantool2,2021.1.4,Win32,59.97001499,6135e006383e6ea6c3d06a28,6136494fcf5877fe15755cb3,"[""comma""]",0,[0.29220000004767144],104,0,104,0,1
,,,,,,,610926e613ebd1c7193829e9,,,,,,610926e613ebd1c7193829e9,Kobieta,18,2021-09-06_19h01.32.358,rantool2,2021.1.4,Win32,59.97001499,6135e006383e6ea6c3d06a28,6136494fcf5877fe15755cb3,"[""period""]",0,[0.31850000000002865],105,0,105,0,1
,,,,,,,610926e613ebd1c7193829e9,,,,,,610926e613ebd1c7193829e9,Kobieta,18,2021-09-06_19h01.32.358,rantool2,2021.1.4,Win32,59.97001499,6135e006383e6ea6c3d06a28,6136494fcf5877fe15755cb3,"[""comma""]",0,[0.27329999995231447],106,0,106,0,1
,,,,,,,610926e613ebd1c7193829e9,,,,,,610926e613ebd1c7193829e9,Kobieta,18,2021-09-06_19h01.32.358,rantool2,2021.1.4,Win32,59.97001499,6135e006383e6ea6c3d06a28,6136494fcf5877fe15755cb3,"[""period""]",0,[0.5598000001907053],107,0,107,0,1
,,,,,,,610926e613ebd1c7193829e9,,,,,,610926e613ebd1c7193829e9,Kobieta,18,2021-09-06_19h01.32.358,rantool2,2021.1.4,Win32,59.97001499,6135e006383e6ea6c3d06a28,6136494fcf5877fe15755cb3,0,0,,108,0,108,0,1
,,,,,,,610926e613ebd1c7193829e9,,,,,,610926e613ebd1c7193829e9,Kobieta,18,2021-09-06_19h01.32.358,rantool2,2021.1.4,Win32,59.97001499,6135e006383e6ea6c3d06a28,6136494fcf5877fe15755cb3,0,0,,109,0,109,0,1
,,,,,,,610926e613ebd1c7193829e9,,,,,,610926e613ebd1c7193829e9,Kobieta,18,2021-09-06_19h01.32.358,rantool2,2021.1.4,Win32,59.97001499,6135e006383e6ea6c3d06a28,6136494fcf5877fe15755cb3,0,0,,110,0,110,0,1
,,,,,,,610926e613ebd1c7193829e9,,,,,,610926e613ebd1c7193829e9,Kobieta,18,2021-09-06_19h01.32.358,rantool2,2021.1.4,Win32,59.97001499,6135e006383e6ea6c3d06a28,6136494fcf5877fe15755cb3,0,0,,111,0,111,0,1
,,,,,,,610926e613ebd1c7193829e9,,,,,,610926e613ebd1c7193829e9,Kobieta,18,2021-09-06_19h01.32.358,rantool2,2021.1.4,Win32,59.97001499,6135e006383e6ea6c3d06a28,6136494fcf5877fe15755cb3,0,0,,112,0,112,0,1
,,,,,,,610926e613ebd1c7193829e9,,,,,,610926e613ebd1c7193829e9,Kobieta,18,2021-09-06_19h01.32.358,rantool2,2021.1.4,Win32,59.97001499,6135e006383e6ea6c3d06a28,6136494fcf5877fe15755cb3,0,0,,113,0,113,0,1
,,,,,,,610926e613ebd1c7193829e9,,,,,,610926e613ebd1c7193829e9,Kobieta,18,2021-09-06_19h01.32.358,rantool2,2021.1.4,Win32,59.97001499,6135e006383e6ea6c3d06a28,6136494fcf5877fe15755cb3,0,0,,114,0,114,0,1
,,,,,,,610926e613ebd1c7193829e9,,,,,,610926e613ebd1c7193829e9,Kobieta,18,2021-09-06_19h01.32.358,rantool2,2021.1.4,Win32,59.97001499,6135e006383e6ea6c3d06a28,6136494fcf5877fe15755cb3,0,0,,115,0,115,0,1
,,,,,,,610926e613ebd1c7193829e9,,,,,,610926e613ebd1c7193829e9,Kobieta,18,2021-09-06_19h01.32.358,rantool2,2021.1.4,Win32,59.97001499,6135e006383e6ea6c3d06a28,6136494fcf5877fe15755cb3,"[""period""]",0,[1.943700000047727],116,0,116,0,1
,,,,,,,610926e613ebd1c7193829e9,,,,,,610926e613ebd1c7193829e9,Kobieta,18,2021-09-06_19h01.32.358,rantool2,2021.1.4,Win32,59.97001499,6135e006383e6ea6c3d06a28,6136494fcf5877fe15755cb3,0,0,,117,0,117,0,1
,,,,,,,610926e613ebd1c7193829e9,,,,,,610926e613ebd1c7193829e9,Kobieta,18,2021-09-06_19h01.32.358,rantool2,2021.1.4,Win32,59.97001499,6135e006383e6ea6c3d06a28,6136494fcf5877fe15755cb3,"[""period""]",0,[0.5847000000476896],118,0,118,0,1
,,,,,,,610926e613ebd1c7193829e9,,,,,,610926e613ebd1c7193829e9,Kobieta,18,2021-09-06_19h01.32.358,rantool2,2021.1.4,Win32,59.97001499,6135e006383e6ea6c3d06a28,6136494fcf5877fe15755cb3,"[""period""]",0,[0.3337999999523049],119,0,119,0,1
