key_resp_7.keys,key_resp_7.rt,trials_2.thisRepN,trials_2.thisTrialN,trials_2.thisN,trials_2.thisIndex,trials_2.ran,id,series_0,series_1,acss_0,acss_1,comparison,id*,Płeć*,Wiek*,date,expName,psychopyVersion,OS,frameRate,STUDY_ID,SESSION_ID,key_resp_5.keys,key_resp_5.corr,key_resp_5.rt,trials.thisRepN,trials.thisTrialN,trials.thisN,trials.thisIndex,trials.ran
f,4.003,0,0,0,56,1,5fb1eae625a37f74fa1f4630,RRROOOO,RRROOOR,21.6194508,22.31681875,series_1,5fb1eae625a37f74fa1f4630,Mężczyzna,19,2021-09-06_19h18.49.255,rantool2,2021.1.4,Win32,60.02040694,6135e006383e6ea6c3d06a28,61364dc91df16449a5127632,,,,,,,,
f,3.252,0,1,1,18,1,5fb1eae625a37f74fa1f4630,OROOROO,OROOROR,20.84860893,21.22513037,series_1,5fb1eae625a37f74fa1f4630,Mężczyzna,19,2021-09-06_19h18.49.255,rantool2,2021.1.4,Win32,60.02040694,6135e006383e6ea6c3d06a28,61364dc91df16449a5127632,,,,,,,,
j,1.7182,0,2,2,13,1,5fb1eae625a37f74fa1f4630,OORRORO,OORRORR,21.66733484,22.11181017,series_1,5fb1eae625a37f74fa1f4630,Mężczyzna,19,2021-09-06_19h18.49.255,rantool2,2021.1.4,Win32,60.02040694,6135e006383e6ea6c3d06a28,61364dc91df16449a5127632,,,,,,,,
f,0.5734,0,3,3,17,1,5fb1eae625a37f74fa1f4630,OROOORO,OROOORR,21.03750787,22.12173012,series_1,5fb1eae625a37f74fa1f4630,Mężczyzna,19,2021-09-06_19h18.49.255,rantool2,2021.1.4,Win32,60.02040694,6135e006383e6ea6c3d06a28,61364dc91df16449a5127632,,,,,,,,
j,0.4737,0,4,4,39,1,5fb1eae625a37f74fa1f4630,ROORRRO,ROORRRR,21.82425538,21.38562617,series_0,5fb1eae625a37f74fa1f4630,Mężczyzna,19,2021-09-06_19h18.49.255,rantool2,2021.1.4,Win32,60.02040694,6135e006383e6ea6c3d06a28,61364dc91df16449a5127632,,,,,,,,
f,0.1923,0,5,5,14,1,5fb1eae625a37f74fa1f4630,OORRROO,OORRROR,22.24142883,22.16977179,series_0,5fb1eae625a37f74fa1f4630,Mężczyzna,19,2021-09-06_19h18.49.255,rantool2,2021.1.4,Win32,60.02040694,6135e006383e6ea6c3d06a28,61364dc91df16449a5127632,,,,,,,,
j,0.1677,0,6,6,33,1,5fb1eae625a37f74fa1f4630,ROOOORO,ROOOORR,20.83779602,22.03072203,series_1,5fb1eae625a37f74fa1f4630,Mężczyzna,19,2021-09-06_19h18.49.255,rantool2,2021.1.4,Win32,60.02040694,6135e006383e6ea6c3d06a28,61364dc91df16449a5127632,,,,,,,,
f,0.1056,0,7,7,38,1,5fb1eae625a37f74fa1f4630,ROORROO,ROORROR,21.79500819,21.36812781,series_0,5fb1eae625a37f74fa1f4630,Mężczyzna,19,2021-09-06_19h18.49.255,rantool2,2021.1.4,Win32,60.02040694,6135e006383e6ea6c3d06a28,61364dc91df16449a5127632,,,,,,,,
j,0.1352,0,8,8,59,1,5fb1eae625a37f74fa1f4630,RRRORRO,RRRORRR,21.56657303,20.89823192,series_0,5fb1eae625a37f74fa1f4630,Mężczyzna,19,2021-09-06_19h18.49.255,rantool2,2021.1.4,Win32,60.02040694,6135e006383e6ea6c3d06a28,61364dc91df16449a5127632,,,,,,,,
f,0.1554,0,9,9,50,1,5fb1eae625a37f74fa1f4630,RROOROO,RROOROR,21.73568164,22.02566557,series_1,5fb1eae625a37f74fa1f4630,Mężczyzna,19,2021-09-06_19h18.49.255,rantool2,2021.1.4,Win32,60.02040694,6135e006383e6ea6c3d06a28,61364dc91df16449a5127632,,,,,,,,
j,0.1463,0,10,10,62,1,5fb1eae625a37f74fa1f4630,RRRRROO,RRRRROR,22.16413392,21.27974287,series_0,5fb1eae625a37f74fa1f4630,Mężczyzna,19,2021-09-06_19h18.49.255,rantool2,2021.1.4,Win32,60.02040694,6135e006383e6ea6c3d06a28,61364dc91df16449a5127632,,,,,,,,
f,0.1728,0,11,11,20,1,5fb1eae625a37f74fa1f4630,OROROOO,OROROOR,21.31236711,21.90565814,series_1,5fb1eae625a37f74fa1f4630,Mężczyzna,19,2021-09-06_19h18.49.255,rantool2,2021.1.4,Win32,60.02040694,6135e006383e6ea6c3d06a28,61364dc91df16449a5127632,,,,,,,,
j,0.1634,0,12,12,0,1,5fb1eae625a37f74fa1f4630,OOOOOOO,OOOOOOR,18.52739004,19.62521613,series_1,5fb1eae625a37f74fa1f4630,Mężczyzna,19,2021-09-06_19h18.49.255,rantool2,2021.1.4,Win32,60.02040694,6135e006383e6ea6c3d06a28,61364dc91df16449a5127632,,,,,,,,
f,0.1897,0,13,13,52,1,5fb1eae625a37f74fa1f4630,RROROOO,RROROOR,22.18365867,22.11097995,series_0,5fb1eae625a37f74fa1f4630,Mężczyzna,19,2021-09-06_19h18.49.255,rantool2,2021.1.4,Win32,60.02040694,6135e006383e6ea6c3d06a28,61364dc91df16449a5127632,,,,,,,,
j,0.1248,0,14,14,25,1,5fb1eae625a37f74fa1f4630,ORROORO,ORROORR,21.79500819,22.61624387,series_1,5fb1eae625a37f74fa1f4630,Mężczyzna,19,2021-09-06_19h18.49.255,rantool2,2021.1.4,Win32,60.02040694,6135e006383e6ea6c3d06a28,61364dc91df16449a5127632,,,,,,,,
f,0.123,0,15,15,58,1,5fb1eae625a37f74fa1f4630,RRROROO,RRROROR,22.1285618,21.37121559,series_0,5fb1eae625a37f74fa1f4630,Mężczyzna,19,2021-09-06_19h18.49.255,rantool2,2021.1.4,Win32,60.02040694,6135e006383e6ea6c3d06a28,61364dc91df16449a5127632,,,,,,,,
j,0.1053,0,16,16,32,1,5fb1eae625a37f74fa1f4630,ROOOOOO,ROOOOOR,19.92253567,21.27974287,series_1,5fb1eae625a37f74fa1f4630,Mężczyzna,19,2021-09-06_19h18.49.255,rantool2,2021.1.4,Win32,60.02040694,6135e006383e6ea6c3d06a28,61364dc91df16449a5127632,,,,,,,,
f,0.126,0,17,17,10,1,5fb1eae625a37f74fa1f4630,OOROROO,OOROROR,21.31236711,21.07490964,series_0,5fb1eae625a37f74fa1f4630,Mężczyzna,19,2021-09-06_19h18.49.255,rantool2,2021.1.4,Win32,60.02040694,6135e006383e6ea6c3d06a28,61364dc91df16449a5127632,,,,,,,,
j,0.1238,0,18,18,60,1,5fb1eae625a37f74fa1f4630,RRRROOO,RRRROOR,22.10108823,22.15934078,series_1,5fb1eae625a37f74fa1f4630,Mężczyzna,19,2021-09-06_19h18.49.255,rantool2,2021.1.4,Win32,60.02040694,6135e006383e6ea6c3d06a28,61364dc91df16449a5127632,,,,,,,,
f,0.1565,0,19,19,6,1,5fb1eae625a37f74fa1f4630,OOORROO,OOORROR,21.12383932,21.38562617,series_1,5fb1eae625a37f74fa1f4630,Mężczyzna,19,2021-09-06_19h18.49.255,rantool2,2021.1.4,Win32,60.02040694,6135e006383e6ea6c3d06a28,61364dc91df16449a5127632,,,,,,,,
j,0.1852,0,20,20,57,1,5fb1eae625a37f74fa1f4630,RRROORO,RRROORR,21.82425538,22.07102821,series_1,5fb1eae625a37f74fa1f4630,Mężczyzna,19,2021-09-06_19h18.49.255,rantool2,2021.1.4,Win32,60.02040694,6135e006383e6ea6c3d06a28,61364dc91df16449a5127632,,,,,,,,
f,0.1974,0,21,21,63,1,5fb1eae625a37f74fa1f4630,RRRRRRO,RRRRRRR,21.35278725,19.62521613,series_0,5fb1eae625a37f74fa1f4630,Mężczyzna,19,2021-09-06_19h18.49.255,rantool2,2021.1.4,Win32,60.02040694,6135e006383e6ea6c3d06a28,61364dc91df16449a5127632,,,,,,,,
j,0.191,0,22,22,44,1,5fb1eae625a37f74fa1f4630,RORROOO,RORROOR,21.66733484,22.02566557,series_1,5fb1eae625a37f74fa1f4630,Mężczyzna,19,2021-09-06_19h18.49.255,rantool2,2021.1.4,Win32,60.02040694,6135e006383e6ea6c3d06a28,61364dc91df16449a5127632,,,,,,,,
f,0.1516,0,23,23,12,1,5fb1eae625a37f74fa1f4630,OORROOO,OORROOR,21.30250474,22.02786418,series_1,5fb1eae625a37f74fa1f4630,Mężczyzna,19,2021-09-06_19h18.49.255,rantool2,2021.1.4,Win32,60.02040694,6135e006383e6ea6c3d06a28,61364dc91df16449a5127632,,,,,,,,
j,0.1386,0,24,24,51,1,5fb1eae625a37f74fa1f4630,RROORRO,RROORRR,21.89852628,22.02786418,series_1,5fb1eae625a37f74fa1f4630,Mężczyzna,19,2021-09-06_19h18.49.255,rantool2,2021.1.4,Win32,60.02040694,6135e006383e6ea6c3d06a28,61364dc91df16449a5127632,,,,,,,,
j,0.2228,0,25,25,4,1,5fb1eae625a37f74fa1f4630,OOOROOO,OOOROOR,19.91402015,21.21223021,series_1,5fb1eae625a37f74fa1f4630,Mężczyzna,19,2021-09-06_19h18.49.255,rantool2,2021.1.4,Win32,60.02040694,6135e006383e6ea6c3d06a28,61364dc91df16449a5127632,,,,,,,,
j,0.2148,0,26,26,21,1,5fb1eae625a37f74fa1f4630,ORORORO,ORORORR,20.39515459,22.06781359,series_1,5fb1eae625a37f74fa1f4630,Mężczyzna,19,2021-09-06_19h18.49.255,rantool2,2021.1.4,Win32,60.02040694,6135e006383e6ea6c3d06a28,61364dc91df16449a5127632,,,,,,,,
j,0.2108,0,27,27,2,1,5fb1eae625a37f74fa1f4630,OOOOROO,OOOOROR,20.43051175,21.02936224,series_1,5fb1eae625a37f74fa1f4630,Mężczyzna,19,2021-09-06_19h18.49.255,rantool2,2021.1.4,Win32,60.02040694,6135e006383e6ea6c3d06a28,61364dc91df16449a5127632,,,,,,,,
j,0.1735,0,28,28,28,1,5fb1eae625a37f74fa1f4630,ORRROOO,ORRROOR,22.24142883,22.53364006,series_1,5fb1eae625a37f74fa1f4630,Mężczyzna,19,2021-09-06_19h18.49.255,rantool2,2021.1.4,Win32,60.02040694,6135e006383e6ea6c3d06a28,61364dc91df16449a5127632,,,,,,,,
f,0.1693,0,29,29,34,1,5fb1eae625a37f74fa1f4630,ROOOROO,ROOOROR,21.03750787,21.24781509,series_1,5fb1eae625a37f74fa1f4630,Mężczyzna,19,2021-09-06_19h18.49.255,rantool2,2021.1.4,Win32,60.02040694,6135e006383e6ea6c3d06a28,61364dc91df16449a5127632,,,,,,,,
f,0.2361,0,30,30,22,1,5fb1eae625a37f74fa1f4630,ORORROO,ORORROR,22.02732763,21.57657071,series_0,5fb1eae625a37f74fa1f4630,Mężczyzna,19,2021-09-06_19h18.49.255,rantool2,2021.1.4,Win32,60.02040694,6135e006383e6ea6c3d06a28,61364dc91df16449a5127632,,,,,,,,
f,0.1863,0,31,31,15,1,5fb1eae625a37f74fa1f4630,OORRRRO,OORRRRR,22.10108823,21.74922619,series_0,5fb1eae625a37f74fa1f4630,Mężczyzna,19,2021-09-06_19h18.49.255,rantool2,2021.1.4,Win32,60.02040694,6135e006383e6ea6c3d06a28,61364dc91df16449a5127632,,,,,,,,
j,0.1645,0,32,32,29,1,5fb1eae625a37f74fa1f4630,ORRRORO,ORRRORR,22.00300695,22.12173012,series_1,5fb1eae625a37f74fa1f4630,Mężczyzna,19,2021-09-06_19h18.49.255,rantool2,2021.1.4,Win32,60.02040694,6135e006383e6ea6c3d06a28,61364dc91df16449a5127632,,,,,,,,
j,0.1772,0,33,33,48,1,5fb1eae625a37f74fa1f4630,RROOOOO,RROOOOR,20.90986523,22.15934078,series_1,5fb1eae625a37f74fa1f4630,Mężczyzna,19,2021-09-06_19h18.49.255,rantool2,2021.1.4,Win32,60.02040694,6135e006383e6ea6c3d06a28,61364dc91df16449a5127632,,,,,,,,
j,0.1875,0,34,34,55,1,5fb1eae625a37f74fa1f4630,RRORRRO,RRORRRR,21.56657303,21.21223021,series_0,5fb1eae625a37f74fa1f4630,Mężczyzna,19,2021-09-06_19h18.49.255,rantool2,2021.1.4,Win32,60.02040694,6135e006383e6ea6c3d06a28,61364dc91df16449a5127632,,,,,,,,
j,0.1751,0,35,35,3,1,5fb1eae625a37f74fa1f4630,OOOORRO,OOOORRR,20.90986523,21.74922619,series_1,5fb1eae625a37f74fa1f4630,Mężczyzna,19,2021-09-06_19h18.49.255,rantool2,2021.1.4,Win32,60.02040694,6135e006383e6ea6c3d06a28,61364dc91df16449a5127632,,,,,,,,
f,0.1427,0,36,36,43,1,5fb1eae625a37f74fa1f4630,RORORRO,RORORRR,20.71309134,21.07490964,series_1,5fb1eae625a37f74fa1f4630,Mężczyzna,19,2021-09-06_19h18.49.255,rantool2,2021.1.4,Win32,60.02040694,6135e006383e6ea6c3d06a28,61364dc91df16449a5127632,,,,,,,,
f,0.2257,0,37,37,54,1,5fb1eae625a37f74fa1f4630,RRORROO,RRORROR,21.55250791,20.9984461,series_0,5fb1eae625a37f74fa1f4630,Mężczyzna,19,2021-09-06_19h18.49.255,rantool2,2021.1.4,Win32,60.02040694,6135e006383e6ea6c3d06a28,61364dc91df16449a5127632,,,,,,,,
f,0.1771,0,38,38,7,1,5fb1eae625a37f74fa1f4630,OOORRRO,OOORRRR,21.6194508,21.899017,series_1,5fb1eae625a37f74fa1f4630,Mężczyzna,19,2021-09-06_19h18.49.255,rantool2,2021.1.4,Win32,60.02040694,6135e006383e6ea6c3d06a28,61364dc91df16449a5127632,,,,,,,,
j,0.1139,0,39,39,16,1,5fb1eae625a37f74fa1f4630,OROOOOO,OROOOOR,20.43051175,21.17347734,series_1,5fb1eae625a37f74fa1f4630,Mężczyzna,19,2021-09-06_19h18.49.255,rantool2,2021.1.4,Win32,60.02040694,6135e006383e6ea6c3d06a28,61364dc91df16449a5127632,,,,,,,,
f,0.124,0,40,40,19,1,5fb1eae625a37f74fa1f4630,OROORRO,OROORRR,21.73568164,22.11181017,series_1,5fb1eae625a37f74fa1f4630,Mężczyzna,19,2021-09-06_19h18.49.255,rantool2,2021.1.4,Win32,60.02040694,6135e006383e6ea6c3d06a28,61364dc91df16449a5127632,,,,,,,,
j,0.2022,0,41,41,27,1,5fb1eae625a37f74fa1f4630,ORRORRO,ORRORRR,21.55250791,22.2428857,series_1,5fb1eae625a37f74fa1f4630,Mężczyzna,19,2021-09-06_19h18.49.255,rantool2,2021.1.4,Win32,60.02040694,6135e006383e6ea6c3d06a28,61364dc91df16449a5127632,,,,,,,,
f,0.1199,0,42,42,40,1,5fb1eae625a37f74fa1f4630,ROROOOO,ROROOOR,20.87963819,21.37121559,series_1,5fb1eae625a37f74fa1f4630,Mężczyzna,19,2021-09-06_19h18.49.255,rantool2,2021.1.4,Win32,60.02040694,6135e006383e6ea6c3d06a28,61364dc91df16449a5127632,,,,,,,,
j,0.1136,0,43,43,31,1,5fb1eae625a37f74fa1f4630,ORRRRRO,ORRRRRR,22.16413392,20.74050628,series_0,5fb1eae625a37f74fa1f4630,Mężczyzna,19,2021-09-06_19h18.49.255,rantool2,2021.1.4,Win32,60.02040694,6135e006383e6ea6c3d06a28,61364dc91df16449a5127632,,,,,,,,
f,0.1714,0,44,44,37,1,5fb1eae625a37f74fa1f4630,ROORORO,ROORORR,20.42602454,21.57657071,series_1,5fb1eae625a37f74fa1f4630,Mężczyzna,19,2021-09-06_19h18.49.255,rantool2,2021.1.4,Win32,60.02040694,6135e006383e6ea6c3d06a28,61364dc91df16449a5127632,,,,,,,,
j,0.1218,0,45,45,49,1,5fb1eae625a37f74fa1f4630,RROOORO,RROOORR,21.76276513,22.53364006,series_1,5fb1eae625a37f74fa1f4630,Mężczyzna,19,2021-09-06_19h18.49.255,rantool2,2021.1.4,Win32,60.02040694,6135e006383e6ea6c3d06a28,61364dc91df16449a5127632,,,,,,,,
f,0.1458,0,46,46,11,1,5fb1eae625a37f74fa1f4630,OORORRO,OORORRR,22.18365867,22.6797523,series_1,5fb1eae625a37f74fa1f4630,Mężczyzna,19,2021-09-06_19h18.49.255,rantool2,2021.1.4,Win32,60.02040694,6135e006383e6ea6c3d06a28,61364dc91df16449a5127632,,,,,,,,
j,0.1691,0,47,47,26,1,5fb1eae625a37f74fa1f4630,ORROROO,ORROROR,22.02732763,21.71443381,series_0,5fb1eae625a37f74fa1f4630,Mężczyzna,19,2021-09-06_19h18.49.255,rantool2,2021.1.4,Win32,60.02040694,6135e006383e6ea6c3d06a28,61364dc91df16449a5127632,,,,,,,,
f,0.1489,0,48,48,36,1,5fb1eae625a37f74fa1f4630,ROOROOO,ROOROOR,21.07991943,20.9984461,series_0,5fb1eae625a37f74fa1f4630,Mężczyzna,19,2021-09-06_19h18.49.255,rantool2,2021.1.4,Win32,60.02040694,6135e006383e6ea6c3d06a28,61364dc91df16449a5127632,,,,,,,,
j,0.1474,0,49,49,53,1,5fb1eae625a37f74fa1f4630,RRORORO,RRORORR,20.71309134,21.90565814,series_1,5fb1eae625a37f74fa1f4630,Mężczyzna,19,2021-09-06_19h18.49.255,rantool2,2021.1.4,Win32,60.02040694,6135e006383e6ea6c3d06a28,61364dc91df16449a5127632,,,,,,,,
f,0.1568,0,50,50,61,1,5fb1eae625a37f74fa1f4630,RRRRORO,RRRRORR,21.81333602,21.17347734,series_0,5fb1eae625a37f74fa1f4630,Mężczyzna,19,2021-09-06_19h18.49.255,rantool2,2021.1.4,Win32,60.02040694,6135e006383e6ea6c3d06a28,61364dc91df16449a5127632,,,,,,,,
j,0.1479,0,51,51,47,1,5fb1eae625a37f74fa1f4630,RORRRRO,RORRRRR,21.81333602,21.02936224,series_0,5fb1eae625a37f74fa1f4630,Mężczyzna,19,2021-09-06_19h18.49.255,rantool2,2021.1.4,Win32,60.02040694,6135e006383e6ea6c3d06a28,61364dc91df16449a5127632,,,,,,,,
f,0.2272,0,52,52,42,1,5fb1eae625a37f74fa1f4630,ROROROO,ROROROR,20.39515459,19.8361834,series_0,5fb1eae625a37f74fa1f4630,Mężczyzna,19,2021-09-06_19h18.49.255,rantool2,2021.1.4,Win32,60.02040694,6135e006383e6ea6c3d06a28,61364dc91df16449a5127632,,,,,,,,
j,0.2215,0,53,53,46,1,5fb1eae625a37f74fa1f4630,RORRROO,RORRROR,22.00300695,21.24781509,series_0,5fb1eae625a37f74fa1f4630,Mężczyzna,19,2021-09-06_19h18.49.255,rantool2,2021.1.4,Win32,60.02040694,6135e006383e6ea6c3d06a28,61364dc91df16449a5127632,,,,,,,,
f,0.1448,0,54,54,23,1,5fb1eae625a37f74fa1f4630,ORORRRO,ORORRRR,22.1285618,21.9921709,series_0,5fb1eae625a37f74fa1f4630,Mężczyzna,19,2021-09-06_19h18.49.255,rantool2,2021.1.4,Win32,60.02040694,6135e006383e6ea6c3d06a28,61364dc91df16449a5127632,,,,,,,,
j,0.1351,0,55,55,1,1,5fb1eae625a37f74fa1f4630,OOOOORO,OOOOORR,19.92253567,20.74050628,series_1,5fb1eae625a37f74fa1f4630,Mężczyzna,19,2021-09-06_19h18.49.255,rantool2,2021.1.4,Win32,60.02040694,6135e006383e6ea6c3d06a28,61364dc91df16449a5127632,,,,,,,,
f,0.1188,0,56,56,5,1,5fb1eae625a37f74fa1f4630,OOORORO,OOORORR,20.87963819,21.9921709,series_1,5fb1eae625a37f74fa1f4630,Mężczyzna,19,2021-09-06_19h18.49.255,rantool2,2021.1.4,Win32,60.02040694,6135e006383e6ea6c3d06a28,61364dc91df16449a5127632,,,,,,,,
j,0.0952,0,57,57,41,1,5fb1eae625a37f74fa1f4630,ROROORO,ROROORR,20.42602454,21.71443381,series_1,5fb1eae625a37f74fa1f4630,Mężczyzna,19,2021-09-06_19h18.49.255,rantool2,2021.1.4,Win32,60.02040694,6135e006383e6ea6c3d06a28,61364dc91df16449a5127632,,,,,,,,
f,0.1192,0,58,58,30,1,5fb1eae625a37f74fa1f4630,ORRRROO,ORRRROR,22.46748491,22.03072203,series_0,5fb1eae625a37f74fa1f4630,Mężczyzna,19,2021-09-06_19h18.49.255,rantool2,2021.1.4,Win32,60.02040694,6135e006383e6ea6c3d06a28,61364dc91df16449a5127632,,,,,,,,
j,0.119,0,59,59,35,1,5fb1eae625a37f74fa1f4630,ROOORRO,ROOORRR,21.76276513,22.16977179,series_1,5fb1eae625a37f74fa1f4630,Mężczyzna,19,2021-09-06_19h18.49.255,rantool2,2021.1.4,Win32,60.02040694,6135e006383e6ea6c3d06a28,61364dc91df16449a5127632,,,,,,,,
f,0.1151,0,60,60,24,1,5fb1eae625a37f74fa1f4630,ORROOOO,ORROOOR,21.12383932,22.07102821,series_1,5fb1eae625a37f74fa1f4630,Mężczyzna,19,2021-09-06_19h18.49.255,rantool2,2021.1.4,Win32,60.02040694,6135e006383e6ea6c3d06a28,61364dc91df16449a5127632,,,,,,,,
j,0.1322,0,61,61,9,1,5fb1eae625a37f74fa1f4630,OOROORO,OOROORR,21.07991943,22.2428857,series_1,5fb1eae625a37f74fa1f4630,Mężczyzna,19,2021-09-06_19h18.49.255,rantool2,2021.1.4,Win32,60.02040694,6135e006383e6ea6c3d06a28,61364dc91df16449a5127632,,,,,,,,
f,0.1363,0,62,62,45,1,5fb1eae625a37f74fa1f4630,RORRORO,RORRORR,20.78182524,21.22513037,series_1,5fb1eae625a37f74fa1f4630,Mężczyzna,19,2021-09-06_19h18.49.255,rantool2,2021.1.4,Win32,60.02040694,6135e006383e6ea6c3d06a28,61364dc91df16449a5127632,,,,,,,,
j,0.119,0,63,63,8,1,5fb1eae625a37f74fa1f4630,OOROOOO,OOROOOR,19.91402015,20.89823192,series_1,5fb1eae625a37f74fa1f4630,Mężczyzna,19,2021-09-06_19h18.49.255,rantool2,2021.1.4,Win32,60.02040694,6135e006383e6ea6c3d06a28,61364dc91df16449a5127632,,,,,,,,
,,,,,,,5fb1eae625a37f74fa1f4630,,,,,,5fb1eae625a37f74fa1f4630,Mężczyzna,19,2021-09-06_19h18.49.255,rantool2,2021.1.4,Win32,60.02040694,6135e006383e6ea6c3d06a28,61364dc91df16449a5127632,"[""comma""]",0,[0.031800000000288264],0,0,0,0,1
,,,,,,,5fb1eae625a37f74fa1f4630,,,,,,5fb1eae625a37f74fa1f4630,Mężczyzna,19,2021-09-06_19h18.49.255,rantool2,2021.1.4,Win32,60.02040694,6135e006383e6ea6c3d06a28,61364dc91df16449a5127632,0,0,,1,0,1,0,1
,,,,,,,5fb1eae625a37f74fa1f4630,,,,,,5fb1eae625a37f74fa1f4630,Mężczyzna,19,2021-09-06_19h18.49.255,rantool2,2021.1.4,Win32,60.02040694,6135e006383e6ea6c3d06a28,61364dc91df16449a5127632,0,0,,2,0,2,0,1
,,,,,,,5fb1eae625a37f74fa1f4630,,,,,,5fb1eae625a37f74fa1f4630,Mężczyzna,19,2021-09-06_19h18.49.255,rantool2,2021.1.4,Win32,60.02040694,6135e006383e6ea6c3d06a28,61364dc91df16449a5127632,"[""comma""]",0,[0.8136000000000934],3,0,3,0,1
,,,,,,,5fb1eae625a37f74fa1f4630,,,,,,5fb1eae625a37f74fa1f4630,Mężczyzna,19,2021-09-06_19h18.49.255,rantool2,2021.1.4,Win32,60.02040694,6135e006383e6ea6c3d06a28,61364dc91df16449a5127632,"[""period""]",0,[0.437100000000072],4,0,4,0,1
,,,,,,,5fb1eae625a37f74fa1f4630,,,,,,5fb1eae625a37f74fa1f4630,Mężczyzna,19,2021-09-06_19h18.49.255,rantool2,2021.1.4,Win32,60.02040694,6135e006383e6ea6c3d06a28,61364dc91df16449a5127632,"[""period""]",0,[1.0250000000000057],5,0,5,0,1
,,,,,,,5fb1eae625a37f74fa1f4630,,,,,,5fb1eae625a37f74fa1f4630,Mężczyzna,19,2021-09-06_19h18.49.255,rantool2,2021.1.4,Win32,60.02040694,6135e006383e6ea6c3d06a28,61364dc91df16449a5127632,"[""comma""]",0,[0.29310000000009495],6,0,6,0,1
,,,,,,,5fb1eae625a37f74fa1f4630,,,,,,5fb1eae625a37f74fa1f4630,Mężczyzna,19,2021-09-06_19h18.49.255,rantool2,2021.1.4,Win32,60.02040694,6135e006383e6ea6c3d06a28,61364dc91df16449a5127632,"[""period"",""comma""]",0,"[0.2884999999999991,1.7712000000001922]",7,0,7,0,1
,,,,,,,5fb1eae625a37f74fa1f4630,,,,,,5fb1eae625a37f74fa1f4630,Mężczyzna,19,2021-09-06_19h18.49.255,rantool2,2021.1.4,Win32,60.02040694,6135e006383e6ea6c3d06a28,61364dc91df16449a5127632,"[""comma"",""period"",""comma"",""period"",""comma"",""period"",""comma""]",0,"[0.9130000000000109,1.2805999999996232,1.356199999999717,1.6118999999999062,1.670500000000004,1.841899999999896,1.8979999999999961]",8,0,8,0,1
,,,,,,,5fb1eae625a37f74fa1f4630,,,,,,5fb1eae625a37f74fa1f4630,Mężczyzna,19,2021-09-06_19h18.49.255,rantool2,2021.1.4,Win32,60.02040694,6135e006383e6ea6c3d06a28,61364dc91df16449a5127632,"[""comma"",""period"",""comma"",""comma"",""period"",""comma"",""comma"",""comma"",""period"",""comma"",""period"",""comma"",""period"",""comma""]",0,"[0.10849999999999227,0.24310000000008358,0.35249999999999204,0.5531000000000859,0.7278999999998916,0.8118999999998948,1.0281000000000802,1.2336000000000809,1.2716000000000918,1.4176000000000784,1.5717000000001917,1.6498999999998887,1.8019999999999925,1.9027999999998144]",9,0,9,0,1
,,,,,,,5fb1eae625a37f74fa1f4630,,,,,,5fb1eae625a37f74fa1f4630,Mężczyzna,19,2021-09-06_19h18.49.255,rantool2,2021.1.4,Win32,60.02040694,6135e006383e6ea6c3d06a28,61364dc91df16449a5127632,"[""period"",""comma"",""period"",""comma"",""period"",""comma"",""period"",""comma"",""period"",""comma"",""period"",""comma"",""period"",""comma"",""period"",""comma""]",0,"[0.03700000000000614,0.12110000000009791,0.2785000000000082,0.3876000000000772,0.5229999999999961,0.6211000000000979,0.7526999999997201,0.8619999999999948,0.9856999999997242,1.092199999999707,1.237899999999911,1.3444999999999823,1.5356999999997072,1.63900000000001,1.807699999999727,1.9281999999997197]",10,0,10,0,1
,,,,,,,5fb1eae625a37f74fa1f4630,,,,,,5fb1eae625a37f74fa1f4630,Mężczyzna,19,2021-09-06_19h18.49.255,rantool2,2021.1.4,Win32,60.02040694,6135e006383e6ea6c3d06a28,61364dc91df16449a5127632,"[""period"",""comma"",""period"",""comma"",""period"",""comma"",""period"",""comma"",""period"",""comma"",""period"",""comma"",""period""]",0,"[0.08709999999962292,0.21999999999999886,0.3928999999999121,0.530099999999635,0.6735999999996238,0.8306999999997231,0.993599999999617,1.1226999999997247,1.3079999999999927,1.4117999999998005,1.597399999999908,1.7008999999999048,1.8951999999997042]",11,0,11,0,1
,,,,,,,5fb1eae625a37f74fa1f4630,,,,,,5fb1eae625a37f74fa1f4630,Mężczyzna,19,2021-09-06_19h18.49.255,rantool2,2021.1.4,Win32,60.02040694,6135e006383e6ea6c3d06a28,61364dc91df16449a5127632,"[""comma"",""period"",""comma"",""period"",""comma"",""period"",""comma"",""period"",""comma"",""period"",""comma"",""period"",""comma""]",0,"[0.04599999999999227,0.20480000000029008,0.33239999999992165,0.5096000000000913,0.6328999999999212,0.8267000000001872,0.9473999999999023,1.1273999999999091,1.2423000000002844,1.4557000000001779,1.5711000000000865,1.7593999999999141,1.8771000000000981]",12,0,12,0,1
,,,,,,,5fb1eae625a37f74fa1f4630,,,,,,5fb1eae625a37f74fa1f4630,Mężczyzna,19,2021-09-06_19h18.49.255,rantool2,2021.1.4,Win32,60.02040694,6135e006383e6ea6c3d06a28,61364dc91df16449a5127632,"[""period"",""comma"",""period"",""comma"",""period"",""comma"",""period"",""comma"",""period"",""comma"",""period"",""comma"",""period""]",0,"[0.04169999999973584,0.19599999999999795,0.3902999999998258,0.5371999999997286,0.7386000000001047,0.8418999999999244,1.0271000000001038,1.13569999999973,1.3445000000000107,1.4596999999997138,1.6652999999998315,1.7941000000000997,1.9710000000000036]",13,0,13,0,1
,,,,,,,5fb1eae625a37f74fa1f4630,,,,,,5fb1eae625a37f74fa1f4630,Mężczyzna,19,2021-09-06_19h18.49.255,rantool2,2021.1.4,Win32,60.02040694,6135e006383e6ea6c3d06a28,61364dc91df16449a5127632,"[""comma"",""period"",""comma"",""period"",""comma"",""period"",""comma"",""period"",""comma"",""period"",""comma"",""period""]",0,"[0.11210000000008336,0.30620000000016034,0.43810000000007676,0.636700000000161,0.7807999999998003,0.9551000000000727,1.0983999999998844,1.2866000000000781,1.4236000000000786,1.6201000000000931,1.7353999999998848,1.9287000000001626]",14,0,14,0,1
,,,,,,,5fb1eae625a37f74fa1f4630,,,,,,5fb1eae625a37f74fa1f4630,Mężczyzna,19,2021-09-06_19h18.49.255,rantool2,2021.1.4,Win32,60.02040694,6135e006383e6ea6c3d06a28,61364dc91df16449a5127632,"[""comma"",""period"",""comma"",""period"",""comma"",""period"",""comma"",""period"",""comma"",""period"",""comma"",""period""]",0,"[0.056900000000382533,0.2704999999999984,0.4051000000000897,0.665900000000363,0.803700000000191,1.0002000000001772,1.1604000000003794,1.345499999999987,1.4686000000000945,1.6737000000001956,1.7769000000003814,1.9564000000003716]",15,0,15,0,1
,,,,,,,5fb1eae625a37f74fa1f4630,,,,,,5fb1eae625a37f74fa1f4630,Mężczyzna,19,2021-09-06_19h18.49.255,rantool2,2021.1.4,Win32,60.02040694,6135e006383e6ea6c3d06a28,61364dc91df16449a5127632,"[""comma"",""period"",""comma"",""comma"",""period"",""comma"",""period"",""comma"",""period"",""comma"",""period"",""comma"",""period"",""comma"",""period"",""comma""]",0,"[0.05529999999981783,0.22019999999972129,0.29310000000009495,0.47050000000001546,0.5370000000000061,0.6867999999998062,0.7912999999998078,0.8946000000001106,1.0356999999997356,1.137799999999828,1.3116999999997176,1.4121000000000947,1.5466000000000975,1.6415000000000077,1.7872999999998171,1.859799999999808]",16,0,16,0,1
,,,,,,,5fb1eae625a37f74fa1f4630,,,,,,5fb1eae625a37f74fa1f4630,Mężczyzna,19,2021-09-06_19h18.49.255,rantool2,2021.1.4,Win32,60.02040694,6135e006383e6ea6c3d06a28,61364dc91df16449a5127632,"[""period"",""comma"",""period"",""comma"",""comma"",""period"",""comma"",""period"",""period"",""comma"",""comma"",""period"",""comma"",""period"",""period"",""comma"",""period""]",0,"[0.023500000000012733,0.08779999999981669,0.23889999999991574,0.2605000000000075,0.4547999999998069,0.46429999999980964,0.6558999999999173,0.6596999999997308,0.8689999999999998,0.8810000000000002,1.1030999999996425,1.2520999999996434,1.4048999999999126,1.4436999999997226,1.6400000000000148,1.7040999999996416,1.8245000000000005]",17,0,17,0,1
,,,,,,,5fb1eae625a37f74fa1f4630,,,,,,5fb1eae625a37f74fa1f4630,Mężczyzna,19,2021-09-06_19h18.49.255,rantool2,2021.1.4,Win32,60.02040694,6135e006383e6ea6c3d06a28,61364dc91df16449a5127632,"[""period"",""comma"",""period"",""comma"",""comma"",""period"",""comma"",""period"",""comma"",""period"",""comma"",""period"",""comma"",""period"",""comma"",""comma"",""period"",""comma""]",0,"[0.02289999999990755,0.06999999999999318,0.23509999999961906,0.2715999999996086,0.47399999999998954,0.47819999999970264,0.6416999999997017,0.7621999999996945,0.8680999999996004,1.0088999999998975,1.1207999999998037,1.263899999999893,1.339199999999721,1.509999999999991,1.5515999999996097,1.7620000000000005,1.7923999999999012,1.9503999999998882]",18,0,18,0,1
,,,,,,,5fb1eae625a37f74fa1f4630,,,,,,5fb1eae625a37f74fa1f4630,Mężczyzna,19,2021-09-06_19h18.49.255,rantool2,2021.1.4,Win32,60.02040694,6135e006383e6ea6c3d06a28,61364dc91df16449a5127632,"[""period"",""comma"",""period"",""comma"",""period"",""comma"",""comma"",""comma"",""period"",""comma"",""period"",""comma"",""period"",""comma"",""comma""]",0,"[0.07010000000011019,0.17189999999990846,0.3221000000000913,0.403299999999831,0.5872000000001947,0.6152000000001863,0.8116000000000838,0.9968999999998971,1.0583999999999207,1.2296000000000902,1.3414999999999964,1.447600000000108,1.5931000000001063,1.6539999999999964,1.8729999999999905]",19,0,19,0,1
,,,,,,,5fb1eae625a37f74fa1f4630,,,,,,5fb1eae625a37f74fa1f4630,Mężczyzna,19,2021-09-06_19h18.49.255,rantool2,2021.1.4,Win32,60.02040694,6135e006383e6ea6c3d06a28,61364dc91df16449a5127632,"[""period"",""comma"",""period"",""comma"",""period"",""comma"",""period"",""comma""]",0,"[0.020700000000175578,0.07840000000038572,0.22660000000010427,0.26249999999998863,0.42070000000018126,0.44440000000037116,0.6274000000003639,0.6705000000000041]",20,0,20,0,1
,,,,,,,5fb1eae625a37f74fa1f4630,,,,,,5fb1eae625a37f74fa1f4630,Mężczyzna,19,2021-09-06_19h18.49.255,rantool2,2021.1.4,Win32,60.02040694,6135e006383e6ea6c3d06a28,61364dc91df16449a5127632,"[""comma"",""period"",""comma"",""period"",""comma"",""period"",""comma"",""period"",""comma"",""period"",""comma"",""period""]",0,"[0.7456000000001097,0.8019999999999925,0.9246000000001118,1.0011000000000934,1.1121000000001118,1.236100000000107,1.3222999999998137,1.46219999999974,1.5289999999999964,1.705399999999912,1.7552999999998065,1.9431999999997345]",21,0,21,0,1
,,,,,,,5fb1eae625a37f74fa1f4630,,,,,,5fb1eae625a37f74fa1f4630,Mężczyzna,19,2021-09-06_19h18.49.255,rantool2,2021.1.4,Win32,60.02040694,6135e006383e6ea6c3d06a28,61364dc91df16449a5127632,"[""comma"",""period"",""comma"",""period"",""comma"",""period"",""comma"",""period"",""comma"",""period"",""comma"",""period"",""comma"",""period"",""comma"",""period"",""comma""]",0,"[0.014600000000086766,0.17439999999990619,0.291899999999913,0.4156000000000972,0.5384999999999991,0.6477000000001851,0.7487999999998181,0.8574999999999875,0.9383999999998878,1.0559999999999832,1.1282000000001915,1.2857000000001904,1.3847999999998137,1.5457000000001813,1.609799999999808,1.7473999999999137,1.77210000000008]",22,0,22,0,1
,,,,,,,5fb1eae625a37f74fa1f4630,,,,,,5fb1eae625a37f74fa1f4630,Mężczyzna,19,2021-09-06_19h18.49.255,rantool2,2021.1.4,Win32,60.02040694,6135e006383e6ea6c3d06a28,61364dc91df16449a5127632,0,0,,23,0,23,0,1
,,,,,,,5fb1eae625a37f74fa1f4630,,,,,,5fb1eae625a37f74fa1f4630,Mężczyzna,19,2021-09-06_19h18.49.255,rantool2,2021.1.4,Win32,60.02040694,6135e006383e6ea6c3d06a28,61364dc91df16449a5127632,"[""period"",""comma"",""period"",""comma""]",0,"[1.4103000000002623,1.503200000000163,1.671600000000069,1.8262000000001706]",24,0,24,0,1
,,,,,,,5fb1eae625a37f74fa1f4630,,,,,,5fb1eae625a37f74fa1f4630,Mężczyzna,19,2021-09-06_19h18.49.255,rantool2,2021.1.4,Win32,60.02040694,6135e006383e6ea6c3d06a28,61364dc91df16449a5127632,"[""period"",""comma"",""period"",""comma"",""period"",""comma"",""period"",""comma"",""period"",""comma""]",0,"[-0.015199999999737202,0.20870000000019218,0.3716000000000861,0.5538000000002796,0.7482000000001676,0.9906000000000859,1.222100000000097,1.4536000000000797,1.6927000000001726,1.9230000000000018]",25,0,25,0,1
,,,,,,,5fb1eae625a37f74fa1f4630,,,,,,5fb1eae625a37f74fa1f4630,Mężczyzna,19,2021-09-06_19h18.49.255,rantool2,2021.1.4,Win32,60.02040694,6135e006383e6ea6c3d06a28,61364dc91df16449a5127632,"[""period"",""comma"",""period"",""period"",""comma""]",0,"[0.19820000000018467,0.42020000000016466,0.6368999999998834,1.0158999999999025,1.980200000000167]",26,0,26,0,1
,,,,,,,5fb1eae625a37f74fa1f4630,,,,,,5fb1eae625a37f74fa1f4630,Mężczyzna,19,2021-09-06_19h18.49.255,rantool2,2021.1.4,Win32,60.02040694,6135e006383e6ea6c3d06a28,61364dc91df16449a5127632,"[""period"",""comma"",""period"",""comma"",""period"",""comma""]",0,"[0.22070000000019263,0.42849999999998545,0.6482000000001733,0.8032000000001744,1.0568999999998994,1.2652999999997974]",27,0,27,0,1
,,,,,,,5fb1eae625a37f74fa1f4630,,,,,,5fb1eae625a37f74fa1f4630,Mężczyzna,19,2021-09-06_19h18.49.255,rantool2,2021.1.4,Win32,60.02040694,6135e006383e6ea6c3d06a28,61364dc91df16449a5127632,"[""comma""]",0,[0.32129999999980896],28,0,28,0,1
,,,,,,,5fb1eae625a37f74fa1f4630,,,,,,5fb1eae625a37f74fa1f4630,Mężczyzna,19,2021-09-06_19h18.49.255,rantool2,2021.1.4,Win32,60.02040694,6135e006383e6ea6c3d06a28,61364dc91df16449a5127632,"[""period"",""period""]",0,"[0.10380000000029099,1.9374000000003946]",29,0,29,0,1
,,,,,,,5fb1eae625a37f74fa1f4630,,,,,,5fb1eae625a37f74fa1f4630,Mężczyzna,19,2021-09-06_19h18.49.255,rantool2,2021.1.4,Win32,60.02040694,6135e006383e6ea6c3d06a28,61364dc91df16449a5127632,"[""comma""]",0,[1.6917999999998017],30,0,30,0,1
,,,,,,,5fb1eae625a37f74fa1f4630,,,,,,5fb1eae625a37f74fa1f4630,Mężczyzna,19,2021-09-06_19h18.49.255,rantool2,2021.1.4,Win32,60.02040694,6135e006383e6ea6c3d06a28,61364dc91df16449a5127632,"[""comma""]",0,[0.8293999999999073],31,0,31,0,1
,,,,,,,5fb1eae625a37f74fa1f4630,,,,,,5fb1eae625a37f74fa1f4630,Mężczyzna,19,2021-09-06_19h18.49.255,rantool2,2021.1.4,Win32,60.02040694,6135e006383e6ea6c3d06a28,61364dc91df16449a5127632,"[""comma"",""comma""]",0,"[1.0376999999997167,1.8862999999998067]",32,0,32,0,1
,,,,,,,5fb1eae625a37f74fa1f4630,,,,,,5fb1eae625a37f74fa1f4630,Mężczyzna,19,2021-09-06_19h18.49.255,rantool2,2021.1.4,Win32,60.02040694,6135e006383e6ea6c3d06a28,61364dc91df16449a5127632,"[""period"",""comma"",""period"",""comma"",""period"",""comma"",""period"",""comma"",""period"",""comma"",""period""]",0,"[0.12469999999970582,0.31339999999988777,0.49360000000007176,0.6701999999997099,0.8601999999997076,1.0349999999999966,1.1699999999999875,1.335199999999702,1.5757999999998162,1.739399999999904,1.8912999999998021]",33,0,33,0,1
,,,,,,,5fb1eae625a37f74fa1f4630,,,,,,5fb1eae625a37f74fa1f4630,Mężczyzna,19,2021-09-06_19h18.49.255,rantool2,2021.1.4,Win32,60.02040694,6135e006383e6ea6c3d06a28,61364dc91df16449a5127632,"[""comma"",""period"",""comma"",""comma"",""comma"",""period"",""comma"",""comma"",""period"",""comma""]",0,"[0.1076000000001045,0.38850000000002183,0.574700000000206,1.0428999999999178,1.2248999999999057,1.3901000000001034,1.4258999999999276,1.6197999999998274,1.7600000000000193,1.8385000000000105]",34,0,34,0,1
,,,,,,,5fb1eae625a37f74fa1f4630,,,,,,5fb1eae625a37f74fa1f4630,Mężczyzna,19,2021-09-06_19h18.49.255,rantool2,2021.1.4,Win32,60.02040694,6135e006383e6ea6c3d06a28,61364dc91df16449a5127632,"[""period"",""comma"",""period"",""comma"",""period"",""comma"",""period"",""comma"",""comma"",""period"",""comma"",""period"",""comma"",""period""]",0,"[0.01999999999998181,0.1085999999996261,0.2881999999997049,0.42009999999962133,0.6057999999998174,0.6899999999999977,0.9350999999996361,0.9733999999999128,1.235099999999619,1.3613999999998896,1.470799999999798,1.6511999999997045,1.7346999999997195,1.936599999999629]",35,0,35,0,1
,,,,,,,5fb1eae625a37f74fa1f4630,,,,,,5fb1eae625a37f74fa1f4630,Mężczyzna,19,2021-09-06_19h18.49.255,rantool2,2021.1.4,Win32,60.02040694,6135e006383e6ea6c3d06a28,61364dc91df16449a5127632,"[""comma"",""period"",""comma"",""period"",""comma"",""period"",""comma"",""period"",""comma"",""period"",""comma"",""period"",""comma""]",0,"[0.04330000000030054,0.26530000000028053,0.38010000000011246,0.5882000000001995,0.6693000000002769,0.8913000000002853,1.0011000000000934,1.194500000000005,1.3002000000001885,1.5177000000001897,1.6383999999999048,1.8208999999999094,1.9218999999999085]",36,0,36,0,1
,,,,,,,5fb1eae625a37f74fa1f4630,,,,,,5fb1eae625a37f74fa1f4630,Mężczyzna,19,2021-09-06_19h18.49.255,rantool2,2021.1.4,Win32,60.02040694,6135e006383e6ea6c3d06a28,61364dc91df16449a5127632,"[""period"",""comma"",""period"",""comma"",""period"",""comma"",""period"",""comma"",""period"",""comma"",""comma"",""period"",""comma""]",0,"[0.138600000000082,0.25370000000017967,0.4543999999999073,0.5625,0.7283999999999082,0.8574999999999875,1.0233999999998957,1.1132000000001767,1.3607999999998128,1.3647999999998035,1.5790000000000077,1.736299999999801,1.8061000000001002]",37,0,37,0,1
,,,,,,,5fb1eae625a37f74fa1f4630,,,,,,5fb1eae625a37f74fa1f4630,Mężczyzna,19,2021-09-06_19h18.49.255,rantool2,2021.1.4,Win32,60.02040694,6135e006383e6ea6c3d06a28,61364dc91df16449a5127632,"[""period"",""comma"",""comma"",""period"",""comma"",""period"",""comma"",""comma"",""period"",""comma"",""period"",""comma"",""period"",""comma"",""period"",""comma""]",0,"[0.006499999999988404,0.04539999999991551,0.25470000000018445,0.3908000000002687,0.504800000000273,0.6599999999999966,0.7382000000001767,0.9544999999999959,1.0366000000001065,1.1617000000001951,1.3328999999999098,1.425399999999911,1.6218000000002917,1.6943999999999164,1.8799999999999955,1.9300000000000068]",38,0,38,0,1
,,,,,,,5fb1eae625a37f74fa1f4630,,,,,,5fb1eae625a37f74fa1f4630,Mężczyzna,19,2021-09-06_19h18.49.255,rantool2,2021.1.4,Win32,60.02040694,6135e006383e6ea6c3d06a28,61364dc91df16449a5127632,"[""comma"",""period"",""comma"",""period"",""comma"",""period"",""comma"",""period"",""comma"",""comma"",""comma"",""comma"",""period""]",0,"[0.12769999999972015,0.22579999999982192,0.36029999999982465,0.42150000000000887,0.5648999999999091,0.6148999999999205,0.7633999999999048,0.7765999999996325,0.9537999999998306,1.2202999999998099,1.4567999999998165,1.6921999999997297,1.8605999999996357]",39,0,39,0,1
,,,,,,,5fb1eae625a37f74fa1f4630,,,,,,5fb1eae625a37f74fa1f4630,Mężczyzna,19,2021-09-06_19h18.49.255,rantool2,2021.1.4,Win32,60.02040694,6135e006383e6ea6c3d06a28,61364dc91df16449a5127632,"[""comma"",""period"",""comma"",""period"",""comma"",""period"",""comma"",""period"",""comma"",""period"",""comma"",""period"",""period"",""comma"",""period""]",0,"[0.009800000000268483,0.11980000000028213,0.30410000000009063,0.4039000000003625,0.5434999999999945,0.6699999999999875,0.8024000000003753,0.9093000000002576,1.0557000000001722,1.1692000000001883,1.3526000000000806,1.4549000000003502,1.7136000000000706,1.842800000000267,1.9779999999999802]",40,0,40,0,1
,,,,,,,5fb1eae625a37f74fa1f4630,,,,,,5fb1eae625a37f74fa1f4630,Mężczyzna,19,2021-09-06_19h18.49.255,rantool2,2021.1.4,Win32,60.02040694,6135e006383e6ea6c3d06a28,61364dc91df16449a5127632,"[""comma"",""period"",""comma"",""period"",""comma"",""period"",""comma"",""period"",""comma"",""period"",""comma"",""period"",""comma"",""period""]",0,"[0.18589999999989004,0.2742999999998119,0.45210000000008677,0.5409999999999968,0.7189999999999941,0.7878999999998939,0.9541000000000963,1.0264999999999986,1.1921000000000959,1.317600000000084,1.484799999999808,1.591600000000085,1.7843999999998914,1.8676999999997292]",41,0,41,0,1
,,,,,,,5fb1eae625a37f74fa1f4630,,,,,,5fb1eae625a37f74fa1f4630,Mężczyzna,19,2021-09-06_19h18.49.255,rantool2,2021.1.4,Win32,60.02040694,6135e006383e6ea6c3d06a28,61364dc91df16449a5127632,"[""comma"",""period"",""comma"",""period"",""comma"",""period"",""comma"",""period"",""comma"",""period"",""comma"",""period"",""comma"",""period""]",0,"[0.03979999999981487,0.06429999999980396,0.2874999999999943,0.340399999999903,0.5122999999998115,0.6034999999999968,0.8201999999997156,0.9884999999999877,1.146199999999709,1.264199999999704,1.4551000000000727,1.6128999999998825,1.8100000000000023,1.947799999999802]",42,0,42,0,1
,,,,,,,5fb1eae625a37f74fa1f4630,,,,,,5fb1eae625a37f74fa1f4630,Mężczyzna,19,2021-09-06_19h18.49.255,rantool2,2021.1.4,Win32,60.02040694,6135e006383e6ea6c3d06a28,61364dc91df16449a5127632,"[""comma"",""period"",""comma"",""period"",""comma"",""period"",""comma"",""period"",""comma"",""period"",""comma""]",0,"[0.13789999999991664,0.3919999999999959,0.592000000000013,0.7515000000000214,0.9750000000000227,1.1214999999999975,1.3440000000000225,1.4852999999998246,1.6901000000001147,1.8181999999997345,1.9596000000001084]",43,0,43,0,1
,,,,,,,5fb1eae625a37f74fa1f4630,,,,,,5fb1eae625a37f74fa1f4630,Mężczyzna,19,2021-09-06_19h18.49.255,rantool2,2021.1.4,Win32,60.02040694,6135e006383e6ea6c3d06a28,61364dc91df16449a5127632,"[""period"",""comma"",""period"",""comma"",""period"",""comma"",""period"",""comma"",""period""]",0,"[0.08699999999998909,0.29960000000008336,0.5224999999999795,0.7562000000001774,0.9418000000002849,1.155899999999889,1.3703999999999041,1.6023999999999035,1.8588999999998919]",44,0,44,0,1
,,,,,,,5fb1eae625a37f74fa1f4630,,,,,,5fb1eae625a37f74fa1f4630,Mężczyzna,19,2021-09-06_19h18.49.255,rantool2,2021.1.4,Win32,60.02040694,6135e006383e6ea6c3d06a28,61364dc91df16449a5127632,"[""comma"",""period"",""comma"",""period"",""comma"",""period"",""comma"",""period"",""comma"",""period"",""comma""]",0,"[0.08810000000011087,0.29670000000018604,0.5084000000003641,0.7115000000000009,0.945700000000187,1.1349000000003855,1.357200000000205,1.4947000000001935,1.6691000000000997,1.7895000000000039,1.9747000000001833]",45,0,45,0,1
,,,,,,,5fb1eae625a37f74fa1f4630,,,,,,5fb1eae625a37f74fa1f4630,Mężczyzna,19,2021-09-06_19h18.49.255,rantool2,2021.1.4,Win32,60.02040694,6135e006383e6ea6c3d06a28,61364dc91df16449a5127632,"[""period"",""comma"",""period"",""comma""]",0,"[0.049600000000083355,0.19530000000025893,0.31620000000017967,0.4658999999998912]",46,0,46,0,1
,,,,,,,5fb1eae625a37f74fa1f4630,,,,,,5fb1eae625a37f74fa1f4630,Mężczyzna,19,2021-09-06_19h18.49.255,rantool2,2021.1.4,Win32,60.02040694,6135e006383e6ea6c3d06a28,61364dc91df16449a5127632,"[""comma"",""period""]",0,"[1.9365000000000236,1.9403999999999257]",47,0,47,0,1
,,,,,,,5fb1eae625a37f74fa1f4630,,,,,,5fb1eae625a37f74fa1f4630,Mężczyzna,19,2021-09-06_19h18.49.255,rantool2,2021.1.4,Win32,60.02040694,6135e006383e6ea6c3d06a28,61364dc91df16449a5127632,"[""period"",""comma"",""period"",""comma"",""period"",""comma""]",0,"[0.14349999999998886,0.32020000000017035,0.5092000000001633,0.6753000000002771,0.8071000000000765,0.9474999999999909]",48,0,48,0,1
,,,,,,,5fb1eae625a37f74fa1f4630,,,,,,5fb1eae625a37f74fa1f4630,Mężczyzna,19,2021-09-06_19h18.49.255,rantool2,2021.1.4,Win32,60.02040694,6135e006383e6ea6c3d06a28,61364dc91df16449a5127632,0,0,,49,0,49,0,1
,,,,,,,5fb1eae625a37f74fa1f4630,,,,,,5fb1eae625a37f74fa1f4630,Mężczyzna,19,2021-09-06_19h18.49.255,rantool2,2021.1.4,Win32,60.02040694,6135e006383e6ea6c3d06a28,61364dc91df16449a5127632,0,0,,50,0,50,0,1
,,,,,,,5fb1eae625a37f74fa1f4630,,,,,,5fb1eae625a37f74fa1f4630,Mężczyzna,19,2021-09-06_19h18.49.255,rantool2,2021.1.4,Win32,60.02040694,6135e006383e6ea6c3d06a28,61364dc91df16449a5127632,0,0,,51,0,51,0,1
,,,,,,,5fb1eae625a37f74fa1f4630,,,,,,5fb1eae625a37f74fa1f4630,Mężczyzna,19,2021-09-06_19h18.49.255,rantool2,2021.1.4,Win32,60.02040694,6135e006383e6ea6c3d06a28,61364dc91df16449a5127632,0,0,,52,0,52,0,1
,,,,,,,5fb1eae625a37f74fa1f4630,,,,,,5fb1eae625a37f74fa1f4630,Mężczyzna,19,2021-09-06_19h18.49.255,rantool2,2021.1.4,Win32,60.02040694,6135e006383e6ea6c3d06a28,61364dc91df16449a5127632,0,0,,53,0,53,0,1
,,,,,,,5fb1eae625a37f74fa1f4630,,,,,,5fb1eae625a37f74fa1f4630,Mężczyzna,19,2021-09-06_19h18.49.255,rantool2,2021.1.4,Win32,60.02040694,6135e006383e6ea6c3d06a28,61364dc91df16449a5127632,0,0,,54,0,54,0,1
,,,,,,,5fb1eae625a37f74fa1f4630,,,,,,5fb1eae625a37f74fa1f4630,Mężczyzna,19,2021-09-06_19h18.49.255,rantool2,2021.1.4,Win32,60.02040694,6135e006383e6ea6c3d06a28,61364dc91df16449a5127632,0,0,,55,0,55,0,1
,,,,,,,5fb1eae625a37f74fa1f4630,,,,,,5fb1eae625a37f74fa1f4630,Mężczyzna,19,2021-09-06_19h18.49.255,rantool2,2021.1.4,Win32,60.02040694,6135e006383e6ea6c3d06a28,61364dc91df16449a5127632,0,0,,56,0,56,0,1
,,,,,,,5fb1eae625a37f74fa1f4630,,,,,,5fb1eae625a37f74fa1f4630,Mężczyzna,19,2021-09-06_19h18.49.255,rantool2,2021.1.4,Win32,60.02040694,6135e006383e6ea6c3d06a28,61364dc91df16449a5127632,0,0,,57,0,57,0,1
,,,,,,,5fb1eae625a37f74fa1f4630,,,,,,5fb1eae625a37f74fa1f4630,Mężczyzna,19,2021-09-06_19h18.49.255,rantool2,2021.1.4,Win32,60.02040694,6135e006383e6ea6c3d06a28,61364dc91df16449a5127632,0,0,,58,0,58,0,1
,,,,,,,5fb1eae625a37f74fa1f4630,,,,,,5fb1eae625a37f74fa1f4630,Mężczyzna,19,2021-09-06_19h18.49.255,rantool2,2021.1.4,Win32,60.02040694,6135e006383e6ea6c3d06a28,61364dc91df16449a5127632,0,0,,59,0,59,0,1
,,,,,,,5fb1eae625a37f74fa1f4630,,,,,,5fb1eae625a37f74fa1f4630,Mężczyzna,19,2021-09-06_19h18.49.255,rantool2,2021.1.4,Win32,60.02040694,6135e006383e6ea6c3d06a28,61364dc91df16449a5127632,0,0,,60,0,60,0,1
,,,,,,,5fb1eae625a37f74fa1f4630,,,,,,5fb1eae625a37f74fa1f4630,Mężczyzna,19,2021-09-06_19h18.49.255,rantool2,2021.1.4,Win32,60.02040694,6135e006383e6ea6c3d06a28,61364dc91df16449a5127632,0,0,,61,0,61,0,1
,,,,,,,5fb1eae625a37f74fa1f4630,,,,,,5fb1eae625a37f74fa1f4630,Mężczyzna,19,2021-09-06_19h18.49.255,rantool2,2021.1.4,Win32,60.02040694,6135e006383e6ea6c3d06a28,61364dc91df16449a5127632,0,0,,62,0,62,0,1
,,,,,,,5fb1eae625a37f74fa1f4630,,,,,,5fb1eae625a37f74fa1f4630,Mężczyzna,19,2021-09-06_19h18.49.255,rantool2,2021.1.4,Win32,60.02040694,6135e006383e6ea6c3d06a28,61364dc91df16449a5127632,0,0,,63,0,63,0,1
,,,,,,,5fb1eae625a37f74fa1f4630,,,,,,5fb1eae625a37f74fa1f4630,Mężczyzna,19,2021-09-06_19h18.49.255,rantool2,2021.1.4,Win32,60.02040694,6135e006383e6ea6c3d06a28,61364dc91df16449a5127632,0,0,,64,0,64,0,1
,,,,,,,5fb1eae625a37f74fa1f4630,,,,,,5fb1eae625a37f74fa1f4630,Mężczyzna,19,2021-09-06_19h18.49.255,rantool2,2021.1.4,Win32,60.02040694,6135e006383e6ea6c3d06a28,61364dc91df16449a5127632,0,0,,65,0,65,0,1
,,,,,,,5fb1eae625a37f74fa1f4630,,,,,,5fb1eae625a37f74fa1f4630,Mężczyzna,19,2021-09-06_19h18.49.255,rantool2,2021.1.4,Win32,60.02040694,6135e006383e6ea6c3d06a28,61364dc91df16449a5127632,"[""comma"",""period"",""comma"",""period""]",0,"[1.304100000000119,1.5878999999999337,1.7568999999999164,1.9375]",66,0,66,0,1
,,,,,,,5fb1eae625a37f74fa1f4630,,,,,,5fb1eae625a37f74fa1f4630,Mężczyzna,19,2021-09-06_19h18.49.255,rantool2,2021.1.4,Win32,60.02040694,6135e006383e6ea6c3d06a28,61364dc91df16449a5127632,"[""period"",""comma"",""period"",""comma"",""period"",""comma"",""period"",""comma"",""period""]",0,"[0.32439999999991187,0.5078000000002589,0.776100000000099,0.9624999999999773,1.117700000000184,1.2781000000001086,1.4250000000000114,1.6108000000002676,1.7716000000000918]",67,0,67,0,1
,,,,,,,5fb1eae625a37f74fa1f4630,,,,,,5fb1eae625a37f74fa1f4630,Mężczyzna,19,2021-09-06_19h18.49.255,rantool2,2021.1.4,Win32,60.02040694,6135e006383e6ea6c3d06a28,61364dc91df16449a5127632,"[""comma"",""period"",""comma"",""period"",""comma"",""period""]",0,"[0.02620000000018763,0.36270000000018854,0.5575000000000045,0.8377000000002113,1.0406000000000972,1.2379999999999995]",68,0,68,0,1
,,,,,,,5fb1eae625a37f74fa1f4630,,,,,,5fb1eae625a37f74fa1f4630,Mężczyzna,19,2021-09-06_19h18.49.255,rantool2,2021.1.4,Win32,60.02040694,6135e006383e6ea6c3d06a28,61364dc91df16449a5127632,0,0,,69,0,69,0,1
,,,,,,,5fb1eae625a37f74fa1f4630,,,,,,5fb1eae625a37f74fa1f4630,Mężczyzna,19,2021-09-06_19h18.49.255,rantool2,2021.1.4,Win32,60.02040694,6135e006383e6ea6c3d06a28,61364dc91df16449a5127632,0,0,,70,0,70,0,1
,,,,,,,5fb1eae625a37f74fa1f4630,,,,,,5fb1eae625a37f74fa1f4630,Mężczyzna,19,2021-09-06_19h18.49.255,rantool2,2021.1.4,Win32,60.02040694,6135e006383e6ea6c3d06a28,61364dc91df16449a5127632,0,0,,71,0,71,0,1
,,,,,,,5fb1eae625a37f74fa1f4630,,,,,,5fb1eae625a37f74fa1f4630,Mężczyzna,19,2021-09-06_19h18.49.255,rantool2,2021.1.4,Win32,60.02040694,6135e006383e6ea6c3d06a28,61364dc91df16449a5127632,0,0,,72,0,72,0,1
,,,,,,,5fb1eae625a37f74fa1f4630,,,,,,5fb1eae625a37f74fa1f4630,Mężczyzna,19,2021-09-06_19h18.49.255,rantool2,2021.1.4,Win32,60.02040694,6135e006383e6ea6c3d06a28,61364dc91df16449a5127632,0,0,,73,0,73,0,1
,,,,,,,5fb1eae625a37f74fa1f4630,,,,,,5fb1eae625a37f74fa1f4630,Mężczyzna,19,2021-09-06_19h18.49.255,rantool2,2021.1.4,Win32,60.02040694,6135e006383e6ea6c3d06a28,61364dc91df16449a5127632,0,0,,74,0,74,0,1
,,,,,,,5fb1eae625a37f74fa1f4630,,,,,,5fb1eae625a37f74fa1f4630,Mężczyzna,19,2021-09-06_19h18.49.255,rantool2,2021.1.4,Win32,60.02040694,6135e006383e6ea6c3d06a28,61364dc91df16449a5127632,0,0,,75,0,75,0,1
,,,,,,,5fb1eae625a37f74fa1f4630,,,,,,5fb1eae625a37f74fa1f4630,Mężczyzna,19,2021-09-06_19h18.49.255,rantool2,2021.1.4,Win32,60.02040694,6135e006383e6ea6c3d06a28,61364dc91df16449a5127632,0,0,,76,0,76,0,1
,,,,,,,5fb1eae625a37f74fa1f4630,,,,,,5fb1eae625a37f74fa1f4630,Mężczyzna,19,2021-09-06_19h18.49.255,rantool2,2021.1.4,Win32,60.02040694,6135e006383e6ea6c3d06a28,61364dc91df16449a5127632,0,0,,77,0,77,0,1
,,,,,,,5fb1eae625a37f74fa1f4630,,,,,,5fb1eae625a37f74fa1f4630,Mężczyzna,19,2021-09-06_19h18.49.255,rantool2,2021.1.4,Win32,60.02040694,6135e006383e6ea6c3d06a28,61364dc91df16449a5127632,0,0,,78,0,78,0,1
,,,,,,,5fb1eae625a37f74fa1f4630,,,,,,5fb1eae625a37f74fa1f4630,Mężczyzna,19,2021-09-06_19h18.49.255,rantool2,2021.1.4,Win32,60.02040694,6135e006383e6ea6c3d06a28,61364dc91df16449a5127632,0,0,,79,0,79,0,1
,,,,,,,5fb1eae625a37f74fa1f4630,,,,,,5fb1eae625a37f74fa1f4630,Mężczyzna,19,2021-09-06_19h18.49.255,rantool2,2021.1.4,Win32,60.02040694,6135e006383e6ea6c3d06a28,61364dc91df16449a5127632,0,0,,80,0,80,0,1
,,,,,,,5fb1eae625a37f74fa1f4630,,,,,,5fb1eae625a37f74fa1f4630,Mężczyzna,19,2021-09-06_19h18.49.255,rantool2,2021.1.4,Win32,60.02040694,6135e006383e6ea6c3d06a28,61364dc91df16449a5127632,0,0,,81,0,81,0,1
,,,,,,,5fb1eae625a37f74fa1f4630,,,,,,5fb1eae625a37f74fa1f4630,Mężczyzna,19,2021-09-06_19h18.49.255,rantool2,2021.1.4,Win32,60.02040694,6135e006383e6ea6c3d06a28,61364dc91df16449a5127632,0,0,,82,0,82,0,1
,,,,,,,5fb1eae625a37f74fa1f4630,,,,,,5fb1eae625a37f74fa1f4630,Mężczyzna,19,2021-09-06_19h18.49.255,rantool2,2021.1.4,Win32,60.02040694,6135e006383e6ea6c3d06a28,61364dc91df16449a5127632,0,0,,83,0,83,0,1
,,,,,,,5fb1eae625a37f74fa1f4630,,,,,,5fb1eae625a37f74fa1f4630,Mężczyzna,19,2021-09-06_19h18.49.255,rantool2,2021.1.4,Win32,60.02040694,6135e006383e6ea6c3d06a28,61364dc91df16449a5127632,0,0,,84,0,84,0,1
,,,,,,,5fb1eae625a37f74fa1f4630,,,,,,5fb1eae625a37f74fa1f4630,Mężczyzna,19,2021-09-06_19h18.49.255,rantool2,2021.1.4,Win32,60.02040694,6135e006383e6ea6c3d06a28,61364dc91df16449a5127632,0,0,,85,0,85,0,1
,,,,,,,5fb1eae625a37f74fa1f4630,,,,,,5fb1eae625a37f74fa1f4630,Mężczyzna,19,2021-09-06_19h18.49.255,rantool2,2021.1.4,Win32,60.02040694,6135e006383e6ea6c3d06a28,61364dc91df16449a5127632,0,0,,86,0,86,0,1
,,,,,,,5fb1eae625a37f74fa1f4630,,,,,,5fb1eae625a37f74fa1f4630,Mężczyzna,19,2021-09-06_19h18.49.255,rantool2,2021.1.4,Win32,60.02040694,6135e006383e6ea6c3d06a28,61364dc91df16449a5127632,0,0,,87,0,87,0,1
,,,,,,,5fb1eae625a37f74fa1f4630,,,,,,5fb1eae625a37f74fa1f4630,Mężczyzna,19,2021-09-06_19h18.49.255,rantool2,2021.1.4,Win32,60.02040694,6135e006383e6ea6c3d06a28,61364dc91df16449a5127632,0,0,,88,0,88,0,1
,,,,,,,5fb1eae625a37f74fa1f4630,,,,,,5fb1eae625a37f74fa1f4630,Mężczyzna,19,2021-09-06_19h18.49.255,rantool2,2021.1.4,Win32,60.02040694,6135e006383e6ea6c3d06a28,61364dc91df16449a5127632,0,0,,89,0,89,0,1
,,,,,,,5fb1eae625a37f74fa1f4630,,,,,,5fb1eae625a37f74fa1f4630,Mężczyzna,19,2021-09-06_19h18.49.255,rantool2,2021.1.4,Win32,60.02040694,6135e006383e6ea6c3d06a28,61364dc91df16449a5127632,0,0,,90,0,90,0,1
,,,,,,,5fb1eae625a37f74fa1f4630,,,,,,5fb1eae625a37f74fa1f4630,Mężczyzna,19,2021-09-06_19h18.49.255,rantool2,2021.1.4,Win32,60.02040694,6135e006383e6ea6c3d06a28,61364dc91df16449a5127632,0,0,,91,0,91,0,1
,,,,,,,5fb1eae625a37f74fa1f4630,,,,,,5fb1eae625a37f74fa1f4630,Mężczyzna,19,2021-09-06_19h18.49.255,rantool2,2021.1.4,Win32,60.02040694,6135e006383e6ea6c3d06a28,61364dc91df16449a5127632,0,0,,92,0,92,0,1
,,,,,,,5fb1eae625a37f74fa1f4630,,,,,,5fb1eae625a37f74fa1f4630,Mężczyzna,19,2021-09-06_19h18.49.255,rantool2,2021.1.4,Win32,60.02040694,6135e006383e6ea6c3d06a28,61364dc91df16449a5127632,0,0,,93,0,93,0,1
,,,,,,,5fb1eae625a37f74fa1f4630,,,,,,5fb1eae625a37f74fa1f4630,Mężczyzna,19,2021-09-06_19h18.49.255,rantool2,2021.1.4,Win32,60.02040694,6135e006383e6ea6c3d06a28,61364dc91df16449a5127632,0,0,,94,0,94,0,1
,,,,,,,5fb1eae625a37f74fa1f4630,,,,,,5fb1eae625a37f74fa1f4630,Mężczyzna,19,2021-09-06_19h18.49.255,rantool2,2021.1.4,Win32,60.02040694,6135e006383e6ea6c3d06a28,61364dc91df16449a5127632,0,0,,95,0,95,0,1
,,,,,,,5fb1eae625a37f74fa1f4630,,,,,,5fb1eae625a37f74fa1f4630,Mężczyzna,19,2021-09-06_19h18.49.255,rantool2,2021.1.4,Win32,60.02040694,6135e006383e6ea6c3d06a28,61364dc91df16449a5127632,"[""period"",""comma"",""comma"",""period""]",0,"[1.2230000000000132,1.2476000000000909,1.6102999999998246,1.9441999999997392]",96,0,96,0,1
,,,,,,,5fb1eae625a37f74fa1f4630,,,,,,5fb1eae625a37f74fa1f4630,Mężczyzna,19,2021-09-06_19h18.49.255,rantool2,2021.1.4,Win32,60.02040694,6135e006383e6ea6c3d06a28,61364dc91df16449a5127632,"[""comma"",""comma"",""comma"",""comma"",""comma"",""period"",""comma""]",0,"[0.046800000000303044,0.3588999999999487,0.6116000000001236,0.8702000000002386,1.123300000000313,1.457100000000139,1.6735000000000468]",97,0,97,0,1
,,,,,,,5fb1eae625a37f74fa1f4630,,,,,,5fb1eae625a37f74fa1f4630,Mężczyzna,19,2021-09-06_19h18.49.255,rantool2,2021.1.4,Win32,60.02040694,6135e006383e6ea6c3d06a28,61364dc91df16449a5127632,0,0,,98,0,98,0,1
,,,,,,,5fb1eae625a37f74fa1f4630,,,,,,5fb1eae625a37f74fa1f4630,Mężczyzna,19,2021-09-06_19h18.49.255,rantool2,2021.1.4,Win32,60.02040694,6135e006383e6ea6c3d06a28,61364dc91df16449a5127632,0,0,,99,0,99,0,1
,,,,,,,5fb1eae625a37f74fa1f4630,,,,,,5fb1eae625a37f74fa1f4630,Mężczyzna,19,2021-09-06_19h18.49.255,rantool2,2021.1.4,Win32,60.02040694,6135e006383e6ea6c3d06a28,61364dc91df16449a5127632,"[""comma"",""period"",""comma"",""period"",""comma"",""period"",""comma"",""period"",""comma"",""period"",""comma"",""period"",""comma""]",0,"[0.10180000000030986,0.3809000000003948,0.5355000000000132,0.7047000000001731,0.8564000000003489,1.0023000000002753,1.1089000000003466,1.2384999999999877,1.379000000000019,1.5226000000000681,1.652200000000164,1.8013000000002535,1.91700000000003]",100,0,100,0,1
,,,,,,,5fb1eae625a37f74fa1f4630,,,,,,5fb1eae625a37f74fa1f4630,Mężczyzna,19,2021-09-06_19h18.49.255,rantool2,2021.1.4,Win32,60.02040694,6135e006383e6ea6c3d06a28,61364dc91df16449a5127632,"[""comma"",""period"",""comma"",""comma"",""period"",""comma"",""period"",""comma"",""period"",""comma"",""period"",""comma"",""period""]",0,"[0.2519000000003757,0.37240000000036844,0.5074000000003593,0.8112000000001558,0.8526000000000522,1.009900000000357,1.136300000000233,1.2684999999999604,1.3893000000002758,1.5098000000002685,1.6222000000001913,1.7512000000001535,1.8546000000000618]",101,0,101,0,1
,,,,,,,5fb1eae625a37f74fa1f4630,,,,,,5fb1eae625a37f74fa1f4630,Mężczyzna,19,2021-09-06_19h18.49.255,rantool2,2021.1.4,Win32,60.02040694,6135e006383e6ea6c3d06a28,61364dc91df16449a5127632,"[""comma"",""period"",""comma"",""period"",""comma"",""period"",""comma"",""period"",""comma"",""period"",""comma"",""period"",""comma"",""period"",""comma"",""period"",""comma"",""period""]",0,"[-0.014099999999643842,0.08949999999998681,0.2269000000003416,0.31390000000038754,0.4539000000003739,0.5363000000002671,0.678300000000263,0.7568000000002826,0.9084000000003698,1.0016000000000531,1.1443000000002712,1.2622000000001776,1.4142000000001644,1.521000000000015,1.658100000000104,1.733800000000258,1.900600000000054,1.940999999999974]",102,0,102,0,1
,,,,,,,5fb1eae625a37f74fa1f4630,,,,,,5fb1eae625a37f74fa1f4630,Mężczyzna,19,2021-09-06_19h18.49.255,rantool2,2021.1.4,Win32,60.02040694,6135e006383e6ea6c3d06a28,61364dc91df16449a5127632,"[""comma"",""period"",""comma"",""period"",""comma"",""period"",""comma"",""period"",""comma"",""period"",""comma""]",0,"[0.1253999999998996,0.2095999999996252,0.3725999999996361,0.5049999999999955,0.6426999999997633,0.7523999999999091,0.8870999999996343,1.0302999999998406,1.2860999999996352,1.4368999999999232,1.8555000000000064]",103,0,103,0,1
,,,,,,,5fb1eae625a37f74fa1f4630,,,,,,5fb1eae625a37f74fa1f4630,Mężczyzna,19,2021-09-06_19h18.49.255,rantool2,2021.1.4,Win32,60.02040694,6135e006383e6ea6c3d06a28,61364dc91df16449a5127632,"[""comma"",""period"",""comma"",""comma"",""comma"",""comma"",""comma"",""comma"",""comma""]",0,"[0.061900000000377986,0.1661000000000854,0.32080000000030395,0.5594000000003803,0.7387000000002217,0.9019000000004098,1.069200000000194,1.2396000000001095,1.4516000000000986]",104,0,104,0,1
,,,,,,,5fb1eae625a37f74fa1f4630,,,,,,5fb1eae625a37f74fa1f4630,Mężczyzna,19,2021-09-06_19h18.49.255,rantool2,2021.1.4,Win32,60.02040694,6135e006383e6ea6c3d06a28,61364dc91df16449a5127632,"[""comma""]",0,[0.30779999999981555],105,0,105,0,1
,,,,,,,5fb1eae625a37f74fa1f4630,,,,,,5fb1eae625a37f74fa1f4630,Mężczyzna,19,2021-09-06_19h18.49.255,rantool2,2021.1.4,Win32,60.02040694,6135e006383e6ea6c3d06a28,61364dc91df16449a5127632,"[""period""]",0,[0.6357000000001563],106,0,106,0,1
,,,,,,,5fb1eae625a37f74fa1f4630,,,,,,5fb1eae625a37f74fa1f4630,Mężczyzna,19,2021-09-06_19h18.49.255,rantool2,2021.1.4,Win32,60.02040694,6135e006383e6ea6c3d06a28,61364dc91df16449a5127632,"[""period""]",0,[0.3113000000003012],107,0,107,0,1
,,,,,,,5fb1eae625a37f74fa1f4630,,,,,,5fb1eae625a37f74fa1f4630,Mężczyzna,19,2021-09-06_19h18.49.255,rantool2,2021.1.4,Win32,60.02040694,6135e006383e6ea6c3d06a28,61364dc91df16449a5127632,"[""comma"",""comma""]",0,"[-0.0018999999998641215,0.7157000000001972]",108,0,108,0,1
,,,,,,,5fb1eae625a37f74fa1f4630,,,,,,5fb1eae625a37f74fa1f4630,Mężczyzna,19,2021-09-06_19h18.49.255,rantool2,2021.1.4,Win32,60.02040694,6135e006383e6ea6c3d06a28,61364dc91df16449a5127632,"[""comma""]",0,[1.2388999999998873],109,0,109,0,1
,,,,,,,5fb1eae625a37f74fa1f4630,,,,,,5fb1eae625a37f74fa1f4630,Mężczyzna,19,2021-09-06_19h18.49.255,rantool2,2021.1.4,Win32,60.02040694,6135e006383e6ea6c3d06a28,61364dc91df16449a5127632,"[""period""]",0,[0.9927999999998178],110,0,110,0,1
,,,,,,,5fb1eae625a37f74fa1f4630,,,,,,5fb1eae625a37f74fa1f4630,Mężczyzna,19,2021-09-06_19h18.49.255,rantool2,2021.1.4,Win32,60.02040694,6135e006383e6ea6c3d06a28,61364dc91df16449a5127632,"[""comma""]",0,[1.0241000000000895],111,0,111,0,1
,,,,,,,5fb1eae625a37f74fa1f4630,,,,,,5fb1eae625a37f74fa1f4630,Mężczyzna,19,2021-09-06_19h18.49.255,rantool2,2021.1.4,Win32,60.02040694,6135e006383e6ea6c3d06a28,61364dc91df16449a5127632,"[""period""]",0,[1.0132999999998447],112,0,112,0,1
,,,,,,,5fb1eae625a37f74fa1f4630,,,,,,5fb1eae625a37f74fa1f4630,Mężczyzna,19,2021-09-06_19h18.49.255,rantool2,2021.1.4,Win32,60.02040694,6135e006383e6ea6c3d06a28,61364dc91df16449a5127632,"[""comma""]",0,[0.8186000000000604],113,0,113,0,1
,,,,,,,5fb1eae625a37f74fa1f4630,,,,,,5fb1eae625a37f74fa1f4630,Mężczyzna,19,2021-09-06_19h18.49.255,rantool2,2021.1.4,Win32,60.02040694,6135e006383e6ea6c3d06a28,61364dc91df16449a5127632,"[""period""]",0,[1.1523000000003094],114,0,114,0,1
,,,,,,,5fb1eae625a37f74fa1f4630,,,,,,5fb1eae625a37f74fa1f4630,Mężczyzna,19,2021-09-06_19h18.49.255,rantool2,2021.1.4,Win32,60.02040694,6135e006383e6ea6c3d06a28,61364dc91df16449a5127632,"[""comma"",""comma""]",0,"[0.508899999999926,1.2013000000002876]",115,0,115,0,1
,,,,,,,5fb1eae625a37f74fa1f4630,,,,,,5fb1eae625a37f74fa1f4630,Mężczyzna,19,2021-09-06_19h18.49.255,rantool2,2021.1.4,Win32,60.02040694,6135e006383e6ea6c3d06a28,61364dc91df16449a5127632,"[""comma""]",0,[1.1194000000003825],116,0,116,0,1
,,,,,,,5fb1eae625a37f74fa1f4630,,,,,,5fb1eae625a37f74fa1f4630,Mężczyzna,19,2021-09-06_19h18.49.255,rantool2,2021.1.4,Win32,60.02040694,6135e006383e6ea6c3d06a28,61364dc91df16449a5127632,"[""period"",""period""]",0,"[0.5609999999999786,1.5620999999996457]",117,0,117,0,1
,,,,,,,5fb1eae625a37f74fa1f4630,,,,,,5fb1eae625a37f74fa1f4630,Mężczyzna,19,2021-09-06_19h18.49.255,rantool2,2021.1.4,Win32,60.02040694,6135e006383e6ea6c3d06a28,61364dc91df16449a5127632,"[""comma""]",0,[0.4119999999999777],118,0,118,0,1
,,,,,,,5fb1eae625a37f74fa1f4630,,,,,,5fb1eae625a37f74fa1f4630,Mężczyzna,19,2021-09-06_19h18.49.255,rantool2,2021.1.4,Win32,60.02040694,6135e006383e6ea6c3d06a28,61364dc91df16449a5127632,"[""period""]",0,[0.194500000000005],119,0,119,0,1
