key_resp_7.keys,key_resp_7.rt,trials_2.thisRepN,trials_2.thisTrialN,trials_2.thisN,trials_2.thisIndex,trials_2.ran,id,series_0,series_1,acss_0,acss_1,comparison,id*,Płeć*,Wiek*,date,expName,psychopyVersion,OS,frameRate,STUDY_ID,SESSION_ID,key_resp_5.keys,key_resp_5.corr,key_resp_5.rt,trials.thisRepN,trials.thisTrialN,trials.thisN,trials.thisIndex,trials.ran
f,1.8295,0,0,0,28,1,5eeca8d15ed7a304c006a793,ORRROOO,ORRROOR,22.24142883,22.53364006,series_1,5eeca8d15ed7a304c006a793,Mężczyzna,23,2021-09-06_19h25.27.210,rantool2,2021.1.4,Win32,144.6759259,6135e006383e6ea6c3d06a28,61364ea54f5326e8eb02d46f,,,,,,,,
j,2.8338,0,1,1,35,1,5eeca8d15ed7a304c006a793,ROOORRO,ROOORRR,21.76276513,22.16977179,series_1,5eeca8d15ed7a304c006a793,Mężczyzna,23,2021-09-06_19h25.27.210,rantool2,2021.1.4,Win32,144.6759259,6135e006383e6ea6c3d06a28,61364ea54f5326e8eb02d46f,,,,,,,,
j,2.6125,0,2,2,27,1,5eeca8d15ed7a304c006a793,ORRORRO,ORRORRR,21.55250791,22.2428857,series_1,5eeca8d15ed7a304c006a793,Mężczyzna,23,2021-09-06_19h25.27.210,rantool2,2021.1.4,Win32,144.6759259,6135e006383e6ea6c3d06a28,61364ea54f5326e8eb02d46f,,,,,,,,
f,1.8897,0,3,3,2,1,5eeca8d15ed7a304c006a793,OOOOROO,OOOOROR,20.43051175,21.02936224,series_1,5eeca8d15ed7a304c006a793,Mężczyzna,23,2021-09-06_19h25.27.210,rantool2,2021.1.4,Win32,144.6759259,6135e006383e6ea6c3d06a28,61364ea54f5326e8eb02d46f,,,,,,,,
j,1.5088,0,4,4,52,1,5eeca8d15ed7a304c006a793,RROROOO,RROROOR,22.18365867,22.11097995,series_0,5eeca8d15ed7a304c006a793,Mężczyzna,23,2021-09-06_19h25.27.210,rantool2,2021.1.4,Win32,144.6759259,6135e006383e6ea6c3d06a28,61364ea54f5326e8eb02d46f,,,,,,,,
j,1.4457,0,5,5,1,1,5eeca8d15ed7a304c006a793,OOOOORO,OOOOORR,19.92253567,20.74050628,series_1,5eeca8d15ed7a304c006a793,Mężczyzna,23,2021-09-06_19h25.27.210,rantool2,2021.1.4,Win32,144.6759259,6135e006383e6ea6c3d06a28,61364ea54f5326e8eb02d46f,,,,,,,,
j,2.538,0,6,6,49,1,5eeca8d15ed7a304c006a793,RROOORO,RROOORR,21.76276513,22.53364006,series_1,5eeca8d15ed7a304c006a793,Mężczyzna,23,2021-09-06_19h25.27.210,rantool2,2021.1.4,Win32,144.6759259,6135e006383e6ea6c3d06a28,61364ea54f5326e8eb02d46f,,,,,,,,
f,1.6701,0,7,7,24,1,5eeca8d15ed7a304c006a793,ORROOOO,ORROOOR,21.12383932,22.07102821,series_1,5eeca8d15ed7a304c006a793,Mężczyzna,23,2021-09-06_19h25.27.210,rantool2,2021.1.4,Win32,144.6759259,6135e006383e6ea6c3d06a28,61364ea54f5326e8eb02d46f,,,,,,,,
j,2.8196,0,8,8,54,1,5eeca8d15ed7a304c006a793,RRORROO,RRORROR,21.55250791,20.9984461,series_0,5eeca8d15ed7a304c006a793,Mężczyzna,23,2021-09-06_19h25.27.210,rantool2,2021.1.4,Win32,144.6759259,6135e006383e6ea6c3d06a28,61364ea54f5326e8eb02d46f,,,,,,,,
f,1.7772,0,9,9,61,1,5eeca8d15ed7a304c006a793,RRRRORO,RRRRORR,21.81333602,21.17347734,series_0,5eeca8d15ed7a304c006a793,Mężczyzna,23,2021-09-06_19h25.27.210,rantool2,2021.1.4,Win32,144.6759259,6135e006383e6ea6c3d06a28,61364ea54f5326e8eb02d46f,,,,,,,,
j,2.8007,0,10,10,51,1,5eeca8d15ed7a304c006a793,RROORRO,RROORRR,21.89852628,22.02786418,series_1,5eeca8d15ed7a304c006a793,Mężczyzna,23,2021-09-06_19h25.27.210,rantool2,2021.1.4,Win32,144.6759259,6135e006383e6ea6c3d06a28,61364ea54f5326e8eb02d46f,,,,,,,,
f,1.9571,0,11,11,36,1,5eeca8d15ed7a304c006a793,ROOROOO,ROOROOR,21.07991943,20.9984461,series_0,5eeca8d15ed7a304c006a793,Mężczyzna,23,2021-09-06_19h25.27.210,rantool2,2021.1.4,Win32,144.6759259,6135e006383e6ea6c3d06a28,61364ea54f5326e8eb02d46f,,,,,,,,
j,1.7997,0,12,12,48,1,5eeca8d15ed7a304c006a793,RROOOOO,RROOOOR,20.90986523,22.15934078,series_1,5eeca8d15ed7a304c006a793,Mężczyzna,23,2021-09-06_19h25.27.210,rantool2,2021.1.4,Win32,144.6759259,6135e006383e6ea6c3d06a28,61364ea54f5326e8eb02d46f,,,,,,,,
j,2.0177,0,13,13,62,1,5eeca8d15ed7a304c006a793,RRRRROO,RRRRROR,22.16413392,21.27974287,series_0,5eeca8d15ed7a304c006a793,Mężczyzna,23,2021-09-06_19h25.27.210,rantool2,2021.1.4,Win32,144.6759259,6135e006383e6ea6c3d06a28,61364ea54f5326e8eb02d46f,,,,,,,,
j,2.4948,0,14,14,10,1,5eeca8d15ed7a304c006a793,OOROROO,OOROROR,21.31236711,21.07490964,series_0,5eeca8d15ed7a304c006a793,Mężczyzna,23,2021-09-06_19h25.27.210,rantool2,2021.1.4,Win32,144.6759259,6135e006383e6ea6c3d06a28,61364ea54f5326e8eb02d46f,,,,,,,,
f,2.6184,0,15,15,22,1,5eeca8d15ed7a304c006a793,ORORROO,ORORROR,22.02732763,21.57657071,series_0,5eeca8d15ed7a304c006a793,Mężczyzna,23,2021-09-06_19h25.27.210,rantool2,2021.1.4,Win32,144.6759259,6135e006383e6ea6c3d06a28,61364ea54f5326e8eb02d46f,,,,,,,,
j,2.0587,0,16,16,55,1,5eeca8d15ed7a304c006a793,RRORRRO,RRORRRR,21.56657303,21.21223021,series_0,5eeca8d15ed7a304c006a793,Mężczyzna,23,2021-09-06_19h25.27.210,rantool2,2021.1.4,Win32,144.6759259,6135e006383e6ea6c3d06a28,61364ea54f5326e8eb02d46f,,,,,,,,
j,2.1739,0,17,17,58,1,5eeca8d15ed7a304c006a793,RRROROO,RRROROR,22.1285618,21.37121559,series_0,5eeca8d15ed7a304c006a793,Mężczyzna,23,2021-09-06_19h25.27.210,rantool2,2021.1.4,Win32,144.6759259,6135e006383e6ea6c3d06a28,61364ea54f5326e8eb02d46f,,,,,,,,
j,2.504,0,18,18,14,1,5eeca8d15ed7a304c006a793,OORRROO,OORRROR,22.24142883,22.16977179,series_0,5eeca8d15ed7a304c006a793,Mężczyzna,23,2021-09-06_19h25.27.210,rantool2,2021.1.4,Win32,144.6759259,6135e006383e6ea6c3d06a28,61364ea54f5326e8eb02d46f,,,,,,,,
f,2.1078,0,19,19,39,1,5eeca8d15ed7a304c006a793,ROORRRO,ROORRRR,21.82425538,21.38562617,series_0,5eeca8d15ed7a304c006a793,Mężczyzna,23,2021-09-06_19h25.27.210,rantool2,2021.1.4,Win32,144.6759259,6135e006383e6ea6c3d06a28,61364ea54f5326e8eb02d46f,,,,,,,,
j,3.6669,0,20,20,19,1,5eeca8d15ed7a304c006a793,OROORRO,OROORRR,21.73568164,22.11181017,series_1,5eeca8d15ed7a304c006a793,Mężczyzna,23,2021-09-06_19h25.27.210,rantool2,2021.1.4,Win32,144.6759259,6135e006383e6ea6c3d06a28,61364ea54f5326e8eb02d46f,,,,,,,,
f,2.0839,0,21,21,50,1,5eeca8d15ed7a304c006a793,RROOROO,RROOROR,21.73568164,22.02566557,series_1,5eeca8d15ed7a304c006a793,Mężczyzna,23,2021-09-06_19h25.27.210,rantool2,2021.1.4,Win32,144.6759259,6135e006383e6ea6c3d06a28,61364ea54f5326e8eb02d46f,,,,,,,,
f,2.983,0,22,22,26,1,5eeca8d15ed7a304c006a793,ORROROO,ORROROR,22.02732763,21.71443381,series_0,5eeca8d15ed7a304c006a793,Mężczyzna,23,2021-09-06_19h25.27.210,rantool2,2021.1.4,Win32,144.6759259,6135e006383e6ea6c3d06a28,61364ea54f5326e8eb02d46f,,,,,,,,
f,2.7851,0,23,23,44,1,5eeca8d15ed7a304c006a793,RORROOO,RORROOR,21.66733484,22.02566557,series_1,5eeca8d15ed7a304c006a793,Mężczyzna,23,2021-09-06_19h25.27.210,rantool2,2021.1.4,Win32,144.6759259,6135e006383e6ea6c3d06a28,61364ea54f5326e8eb02d46f,,,,,,,,
f,1.8626,0,24,24,25,1,5eeca8d15ed7a304c006a793,ORROORO,ORROORR,21.79500819,22.61624387,series_1,5eeca8d15ed7a304c006a793,Mężczyzna,23,2021-09-06_19h25.27.210,rantool2,2021.1.4,Win32,144.6759259,6135e006383e6ea6c3d06a28,61364ea54f5326e8eb02d46f,,,,,,,,
f,2.1428,0,25,25,47,1,5eeca8d15ed7a304c006a793,RORRRRO,RORRRRR,21.81333602,21.02936224,series_0,5eeca8d15ed7a304c006a793,Mężczyzna,23,2021-09-06_19h25.27.210,rantool2,2021.1.4,Win32,144.6759259,6135e006383e6ea6c3d06a28,61364ea54f5326e8eb02d46f,,,,,,,,
j,2.9205,0,26,26,9,1,5eeca8d15ed7a304c006a793,OOROORO,OOROORR,21.07991943,22.2428857,series_1,5eeca8d15ed7a304c006a793,Mężczyzna,23,2021-09-06_19h25.27.210,rantool2,2021.1.4,Win32,144.6759259,6135e006383e6ea6c3d06a28,61364ea54f5326e8eb02d46f,,,,,,,,
f,2.437,0,27,27,43,1,5eeca8d15ed7a304c006a793,RORORRO,RORORRR,20.71309134,21.07490964,series_1,5eeca8d15ed7a304c006a793,Mężczyzna,23,2021-09-06_19h25.27.210,rantool2,2021.1.4,Win32,144.6759259,6135e006383e6ea6c3d06a28,61364ea54f5326e8eb02d46f,,,,,,,,
j,3.042,0,28,28,13,1,5eeca8d15ed7a304c006a793,OORRORO,OORRORR,21.66733484,22.11181017,series_1,5eeca8d15ed7a304c006a793,Mężczyzna,23,2021-09-06_19h25.27.210,rantool2,2021.1.4,Win32,144.6759259,6135e006383e6ea6c3d06a28,61364ea54f5326e8eb02d46f,,,,,,,,
f,1.5142,0,29,29,56,1,5eeca8d15ed7a304c006a793,RRROOOO,RRROOOR,21.6194508,22.31681875,series_1,5eeca8d15ed7a304c006a793,Mężczyzna,23,2021-09-06_19h25.27.210,rantool2,2021.1.4,Win32,144.6759259,6135e006383e6ea6c3d06a28,61364ea54f5326e8eb02d46f,,,,,,,,
j,1.7104,0,30,30,3,1,5eeca8d15ed7a304c006a793,OOOORRO,OOOORRR,20.90986523,21.74922619,series_1,5eeca8d15ed7a304c006a793,Mężczyzna,23,2021-09-06_19h25.27.210,rantool2,2021.1.4,Win32,144.6759259,6135e006383e6ea6c3d06a28,61364ea54f5326e8eb02d46f,,,,,,,,
f,1.2289,0,31,31,8,1,5eeca8d15ed7a304c006a793,OOROOOO,OOROOOR,19.91402015,20.89823192,series_1,5eeca8d15ed7a304c006a793,Mężczyzna,23,2021-09-06_19h25.27.210,rantool2,2021.1.4,Win32,144.6759259,6135e006383e6ea6c3d06a28,61364ea54f5326e8eb02d46f,,,,,,,,
j,1.8823,0,32,32,53,1,5eeca8d15ed7a304c006a793,RRORORO,RRORORR,20.71309134,21.90565814,series_1,5eeca8d15ed7a304c006a793,Mężczyzna,23,2021-09-06_19h25.27.210,rantool2,2021.1.4,Win32,144.6759259,6135e006383e6ea6c3d06a28,61364ea54f5326e8eb02d46f,,,,,,,,
j,2.2178,0,33,33,5,1,5eeca8d15ed7a304c006a793,OOORORO,OOORORR,20.87963819,21.9921709,series_1,5eeca8d15ed7a304c006a793,Mężczyzna,23,2021-09-06_19h25.27.210,rantool2,2021.1.4,Win32,144.6759259,6135e006383e6ea6c3d06a28,61364ea54f5326e8eb02d46f,,,,,,,,
j,1.7159,0,34,34,32,1,5eeca8d15ed7a304c006a793,ROOOOOO,ROOOOOR,19.92253567,21.27974287,series_1,5eeca8d15ed7a304c006a793,Mężczyzna,23,2021-09-06_19h25.27.210,rantool2,2021.1.4,Win32,144.6759259,6135e006383e6ea6c3d06a28,61364ea54f5326e8eb02d46f,,,,,,,,
f,2.5512,0,35,35,0,1,5eeca8d15ed7a304c006a793,OOOOOOO,OOOOOOR,18.52739004,19.62521613,series_1,5eeca8d15ed7a304c006a793,Mężczyzna,23,2021-09-06_19h25.27.210,rantool2,2021.1.4,Win32,144.6759259,6135e006383e6ea6c3d06a28,61364ea54f5326e8eb02d46f,,,,,,,,
f,2.8336,0,36,36,4,1,5eeca8d15ed7a304c006a793,OOOROOO,OOOROOR,19.91402015,21.21223021,series_1,5eeca8d15ed7a304c006a793,Mężczyzna,23,2021-09-06_19h25.27.210,rantool2,2021.1.4,Win32,144.6759259,6135e006383e6ea6c3d06a28,61364ea54f5326e8eb02d46f,,,,,,,,
j,2.0142,0,37,37,21,1,5eeca8d15ed7a304c006a793,ORORORO,ORORORR,20.39515459,22.06781359,series_1,5eeca8d15ed7a304c006a793,Mężczyzna,23,2021-09-06_19h25.27.210,rantool2,2021.1.4,Win32,144.6759259,6135e006383e6ea6c3d06a28,61364ea54f5326e8eb02d46f,,,,,,,,
f,2.251,0,38,38,60,1,5eeca8d15ed7a304c006a793,RRRROOO,RRRROOR,22.10108823,22.15934078,series_1,5eeca8d15ed7a304c006a793,Mężczyzna,23,2021-09-06_19h25.27.210,rantool2,2021.1.4,Win32,144.6759259,6135e006383e6ea6c3d06a28,61364ea54f5326e8eb02d46f,,,,,,,,
f,3.2021,0,39,39,41,1,5eeca8d15ed7a304c006a793,ROROORO,ROROORR,20.42602454,21.71443381,series_1,5eeca8d15ed7a304c006a793,Mężczyzna,23,2021-09-06_19h25.27.210,rantool2,2021.1.4,Win32,144.6759259,6135e006383e6ea6c3d06a28,61364ea54f5326e8eb02d46f,,,,,,,,
j,3.0716,0,40,40,37,1,5eeca8d15ed7a304c006a793,ROORORO,ROORORR,20.42602454,21.57657071,series_1,5eeca8d15ed7a304c006a793,Mężczyzna,23,2021-09-06_19h25.27.210,rantool2,2021.1.4,Win32,144.6759259,6135e006383e6ea6c3d06a28,61364ea54f5326e8eb02d46f,,,,,,,,
f,1.8342,0,41,41,63,1,5eeca8d15ed7a304c006a793,RRRRRRO,RRRRRRR,21.35278725,19.62521613,series_0,5eeca8d15ed7a304c006a793,Mężczyzna,23,2021-09-06_19h25.27.210,rantool2,2021.1.4,Win32,144.6759259,6135e006383e6ea6c3d06a28,61364ea54f5326e8eb02d46f,,,,,,,,
j,2.209,0,42,42,18,1,5eeca8d15ed7a304c006a793,OROOROO,OROOROR,20.84860893,21.22513037,series_1,5eeca8d15ed7a304c006a793,Mężczyzna,23,2021-09-06_19h25.27.210,rantool2,2021.1.4,Win32,144.6759259,6135e006383e6ea6c3d06a28,61364ea54f5326e8eb02d46f,,,,,,,,
j,1.5138,0,43,43,42,1,5eeca8d15ed7a304c006a793,ROROROO,ROROROR,20.39515459,19.8361834,series_0,5eeca8d15ed7a304c006a793,Mężczyzna,23,2021-09-06_19h25.27.210,rantool2,2021.1.4,Win32,144.6759259,6135e006383e6ea6c3d06a28,61364ea54f5326e8eb02d46f,,,,,,,,
j,2.9144,0,44,44,6,1,5eeca8d15ed7a304c006a793,OOORROO,OOORROR,21.12383932,21.38562617,series_1,5eeca8d15ed7a304c006a793,Mężczyzna,23,2021-09-06_19h25.27.210,rantool2,2021.1.4,Win32,144.6759259,6135e006383e6ea6c3d06a28,61364ea54f5326e8eb02d46f,,,,,,,,
f,1.4862,0,45,45,16,1,5eeca8d15ed7a304c006a793,OROOOOO,OROOOOR,20.43051175,21.17347734,series_1,5eeca8d15ed7a304c006a793,Mężczyzna,23,2021-09-06_19h25.27.210,rantool2,2021.1.4,Win32,144.6759259,6135e006383e6ea6c3d06a28,61364ea54f5326e8eb02d46f,,,,,,,,
j,2.0417,0,46,46,57,1,5eeca8d15ed7a304c006a793,RRROORO,RRROORR,21.82425538,22.07102821,series_1,5eeca8d15ed7a304c006a793,Mężczyzna,23,2021-09-06_19h25.27.210,rantool2,2021.1.4,Win32,144.6759259,6135e006383e6ea6c3d06a28,61364ea54f5326e8eb02d46f,,,,,,,,
f,1.7707,0,47,47,45,1,5eeca8d15ed7a304c006a793,RORRORO,RORRORR,20.78182524,21.22513037,series_1,5eeca8d15ed7a304c006a793,Mężczyzna,23,2021-09-06_19h25.27.210,rantool2,2021.1.4,Win32,144.6759259,6135e006383e6ea6c3d06a28,61364ea54f5326e8eb02d46f,,,,,,,,
f,2.687,0,48,48,17,1,5eeca8d15ed7a304c006a793,OROOORO,OROOORR,21.03750787,22.12173012,series_1,5eeca8d15ed7a304c006a793,Mężczyzna,23,2021-09-06_19h25.27.210,rantool2,2021.1.4,Win32,144.6759259,6135e006383e6ea6c3d06a28,61364ea54f5326e8eb02d46f,,,,,,,,
f,1.609,0,49,49,34,1,5eeca8d15ed7a304c006a793,ROOOROO,ROOOROR,21.03750787,21.24781509,series_1,5eeca8d15ed7a304c006a793,Mężczyzna,23,2021-09-06_19h25.27.210,rantool2,2021.1.4,Win32,144.6759259,6135e006383e6ea6c3d06a28,61364ea54f5326e8eb02d46f,,,,,,,,
j,2.2924,0,50,50,11,1,5eeca8d15ed7a304c006a793,OORORRO,OORORRR,22.18365867,22.6797523,series_1,5eeca8d15ed7a304c006a793,Mężczyzna,23,2021-09-06_19h25.27.210,rantool2,2021.1.4,Win32,144.6759259,6135e006383e6ea6c3d06a28,61364ea54f5326e8eb02d46f,,,,,,,,
f,1.9586,0,51,51,15,1,5eeca8d15ed7a304c006a793,OORRRRO,OORRRRR,22.10108823,21.74922619,series_0,5eeca8d15ed7a304c006a793,Mężczyzna,23,2021-09-06_19h25.27.210,rantool2,2021.1.4,Win32,144.6759259,6135e006383e6ea6c3d06a28,61364ea54f5326e8eb02d46f,,,,,,,,
j,1.8682,0,52,52,46,1,5eeca8d15ed7a304c006a793,RORRROO,RORRROR,22.00300695,21.24781509,series_0,5eeca8d15ed7a304c006a793,Mężczyzna,23,2021-09-06_19h25.27.210,rantool2,2021.1.4,Win32,144.6759259,6135e006383e6ea6c3d06a28,61364ea54f5326e8eb02d46f,,,,,,,,
j,1.3773,0,53,53,33,1,5eeca8d15ed7a304c006a793,ROOOORO,ROOOORR,20.83779602,22.03072203,series_1,5eeca8d15ed7a304c006a793,Mężczyzna,23,2021-09-06_19h25.27.210,rantool2,2021.1.4,Win32,144.6759259,6135e006383e6ea6c3d06a28,61364ea54f5326e8eb02d46f,,,,,,,,
j,1.6683,0,54,54,38,1,5eeca8d15ed7a304c006a793,ROORROO,ROORROR,21.79500819,21.36812781,series_0,5eeca8d15ed7a304c006a793,Mężczyzna,23,2021-09-06_19h25.27.210,rantool2,2021.1.4,Win32,144.6759259,6135e006383e6ea6c3d06a28,61364ea54f5326e8eb02d46f,,,,,,,,
f,1.5596,0,55,55,12,1,5eeca8d15ed7a304c006a793,OORROOO,OORROOR,21.30250474,22.02786418,series_1,5eeca8d15ed7a304c006a793,Mężczyzna,23,2021-09-06_19h25.27.210,rantool2,2021.1.4,Win32,144.6759259,6135e006383e6ea6c3d06a28,61364ea54f5326e8eb02d46f,,,,,,,,
j,1.5933,0,56,56,20,1,5eeca8d15ed7a304c006a793,OROROOO,OROROOR,21.31236711,21.90565814,series_1,5eeca8d15ed7a304c006a793,Mężczyzna,23,2021-09-06_19h25.27.210,rantool2,2021.1.4,Win32,144.6759259,6135e006383e6ea6c3d06a28,61364ea54f5326e8eb02d46f,,,,,,,,
j,1.7195,0,57,57,30,1,5eeca8d15ed7a304c006a793,ORRRROO,ORRRROR,22.46748491,22.03072203,series_0,5eeca8d15ed7a304c006a793,Mężczyzna,23,2021-09-06_19h25.27.210,rantool2,2021.1.4,Win32,144.6759259,6135e006383e6ea6c3d06a28,61364ea54f5326e8eb02d46f,,,,,,,,
j,1.6873,0,58,58,23,1,5eeca8d15ed7a304c006a793,ORORRRO,ORORRRR,22.1285618,21.9921709,series_0,5eeca8d15ed7a304c006a793,Mężczyzna,23,2021-09-06_19h25.27.210,rantool2,2021.1.4,Win32,144.6759259,6135e006383e6ea6c3d06a28,61364ea54f5326e8eb02d46f,,,,,,,,
f,1.4164,0,59,59,40,1,5eeca8d15ed7a304c006a793,ROROOOO,ROROOOR,20.87963819,21.37121559,series_1,5eeca8d15ed7a304c006a793,Mężczyzna,23,2021-09-06_19h25.27.210,rantool2,2021.1.4,Win32,144.6759259,6135e006383e6ea6c3d06a28,61364ea54f5326e8eb02d46f,,,,,,,,
j,1.7676,0,60,60,29,1,5eeca8d15ed7a304c006a793,ORRRORO,ORRRORR,22.00300695,22.12173012,series_1,5eeca8d15ed7a304c006a793,Mężczyzna,23,2021-09-06_19h25.27.210,rantool2,2021.1.4,Win32,144.6759259,6135e006383e6ea6c3d06a28,61364ea54f5326e8eb02d46f,,,,,,,,
f,2.3858,0,61,61,31,1,5eeca8d15ed7a304c006a793,ORRRRRO,ORRRRRR,22.16413392,20.74050628,series_0,5eeca8d15ed7a304c006a793,Mężczyzna,23,2021-09-06_19h25.27.210,rantool2,2021.1.4,Win32,144.6759259,6135e006383e6ea6c3d06a28,61364ea54f5326e8eb02d46f,,,,,,,,
j,2.6345,0,62,62,59,1,5eeca8d15ed7a304c006a793,RRRORRO,RRRORRR,21.56657303,20.89823192,series_0,5eeca8d15ed7a304c006a793,Mężczyzna,23,2021-09-06_19h25.27.210,rantool2,2021.1.4,Win32,144.6759259,6135e006383e6ea6c3d06a28,61364ea54f5326e8eb02d46f,,,,,,,,
f,1.7709,0,63,63,7,1,5eeca8d15ed7a304c006a793,OOORRRO,OOORRRR,21.6194508,21.899017,series_1,5eeca8d15ed7a304c006a793,Mężczyzna,23,2021-09-06_19h25.27.210,rantool2,2021.1.4,Win32,144.6759259,6135e006383e6ea6c3d06a28,61364ea54f5326e8eb02d46f,,,,,,,,
,,,,,,,5eeca8d15ed7a304c006a793,,,,,,5eeca8d15ed7a304c006a793,Mężczyzna,23,2021-09-06_19h25.27.210,rantool2,2021.1.4,Win32,144.6759259,6135e006383e6ea6c3d06a28,61364ea54f5326e8eb02d46f,"[""comma""]",0,[0.5504999999999995],0,0,0,0,1
,,,,,,,5eeca8d15ed7a304c006a793,,,,,,5eeca8d15ed7a304c006a793,Mężczyzna,23,2021-09-06_19h25.27.210,rantool2,2021.1.4,Win32,144.6759259,6135e006383e6ea6c3d06a28,61364ea54f5326e8eb02d46f,"[""comma""]",0,[0.4921000000238678],1,0,1,0,1
,,,,,,,5eeca8d15ed7a304c006a793,,,,,,5eeca8d15ed7a304c006a793,Mężczyzna,23,2021-09-06_19h25.27.210,rantool2,2021.1.4,Win32,144.6759259,6135e006383e6ea6c3d06a28,61364ea54f5326e8eb02d46f,"[""period""]",0,[0.23720000004772146],2,0,2,0,1
,,,,,,,5eeca8d15ed7a304c006a793,,,,,,5eeca8d15ed7a304c006a793,Mężczyzna,23,2021-09-06_19h25.27.210,rantool2,2021.1.4,Win32,144.6759259,6135e006383e6ea6c3d06a28,61364ea54f5326e8eb02d46f,"[""period""]",0,[0.30579999995234175],3,0,3,0,1
,,,,,,,5eeca8d15ed7a304c006a793,,,,,,5eeca8d15ed7a304c006a793,Mężczyzna,23,2021-09-06_19h25.27.210,rantool2,2021.1.4,Win32,144.6759259,6135e006383e6ea6c3d06a28,61364ea54f5326e8eb02d46f,"[""period""]",0,[0.30639999997617906],4,0,4,0,1
,,,,,,,5eeca8d15ed7a304c006a793,,,,,,5eeca8d15ed7a304c006a793,Mężczyzna,23,2021-09-06_19h25.27.210,rantool2,2021.1.4,Win32,144.6759259,6135e006383e6ea6c3d06a28,61364ea54f5326e8eb02d46f,"[""comma""]",0,[0.10530000007156559],5,0,5,0,1
,,,,,,,5eeca8d15ed7a304c006a793,,,,,,5eeca8d15ed7a304c006a793,Mężczyzna,23,2021-09-06_19h25.27.210,rantool2,2021.1.4,Win32,144.6759259,6135e006383e6ea6c3d06a28,61364ea54f5326e8eb02d46f,"[""period""]",0,[0.2977000000477119],6,0,6,0,1
,,,,,,,5eeca8d15ed7a304c006a793,,,,,,5eeca8d15ed7a304c006a793,Mężczyzna,23,2021-09-06_19h25.27.210,rantool2,2021.1.4,Win32,144.6759259,6135e006383e6ea6c3d06a28,61364ea54f5326e8eb02d46f,"[""period""]",0,[0.20839999997616587],7,0,7,0,1
,,,,,,,5eeca8d15ed7a304c006a793,,,,,,5eeca8d15ed7a304c006a793,Mężczyzna,23,2021-09-06_19h25.27.210,rantool2,2021.1.4,Win32,144.6759259,6135e006383e6ea6c3d06a28,61364ea54f5326e8eb02d46f,"[""comma""]",0,[0.2142000000476969],8,0,8,0,1
,,,,,,,5eeca8d15ed7a304c006a793,,,,,,5eeca8d15ed7a304c006a793,Mężczyzna,23,2021-09-06_19h25.27.210,rantool2,2021.1.4,Win32,144.6759259,6135e006383e6ea6c3d06a28,61364ea54f5326e8eb02d46f,"[""comma""]",0,[0.22950000000003],9,0,9,0,1
,,,,,,,5eeca8d15ed7a304c006a793,,,,,,5eeca8d15ed7a304c006a793,Mężczyzna,23,2021-09-06_19h25.27.210,rantool2,2021.1.4,Win32,144.6759259,6135e006383e6ea6c3d06a28,61364ea54f5326e8eb02d46f,"[""period""]",0,[0.22909999990463348],10,0,10,0,1
,,,,,,,5eeca8d15ed7a304c006a793,,,,,,5eeca8d15ed7a304c006a793,Mężczyzna,23,2021-09-06_19h25.27.210,rantool2,2021.1.4,Win32,144.6759259,6135e006383e6ea6c3d06a28,61364ea54f5326e8eb02d46f,"[""comma""]",0,[0.20269999992848398],11,0,11,0,1
,,,,,,,5eeca8d15ed7a304c006a793,,,,,,5eeca8d15ed7a304c006a793,Mężczyzna,23,2021-09-06_19h25.27.210,rantool2,2021.1.4,Win32,144.6759259,6135e006383e6ea6c3d06a28,61364ea54f5326e8eb02d46f,"[""comma""]",0,[0.17389999997612904],12,0,12,0,1
,,,,,,,5eeca8d15ed7a304c006a793,,,,,,5eeca8d15ed7a304c006a793,Mężczyzna,23,2021-09-06_19h25.27.210,rantool2,2021.1.4,Win32,144.6759259,6135e006383e6ea6c3d06a28,61364ea54f5326e8eb02d46f,"[""comma""]",0,[0.21429999995228854],13,0,13,0,1
,,,,,,,5eeca8d15ed7a304c006a793,,,,,,5eeca8d15ed7a304c006a793,Mężczyzna,23,2021-09-06_19h25.27.210,rantool2,2021.1.4,Win32,144.6759259,6135e006383e6ea6c3d06a28,61364ea54f5326e8eb02d46f,"[""period""]",0,[0.2004999999999768],14,0,14,0,1
,,,,,,,5eeca8d15ed7a304c006a793,,,,,,5eeca8d15ed7a304c006a793,Mężczyzna,23,2021-09-06_19h25.27.210,rantool2,2021.1.4,Win32,144.6759259,6135e006383e6ea6c3d06a28,61364ea54f5326e8eb02d46f,"[""period""]",0,[0.1828999999761436],15,0,15,0,1
,,,,,,,5eeca8d15ed7a304c006a793,,,,,,5eeca8d15ed7a304c006a793,Mężczyzna,23,2021-09-06_19h25.27.210,rantool2,2021.1.4,Win32,144.6759259,6135e006383e6ea6c3d06a28,61364ea54f5326e8eb02d46f,"[""comma""]",0,[0.180499999999995],16,0,16,0,1
,,,,,,,5eeca8d15ed7a304c006a793,,,,,,5eeca8d15ed7a304c006a793,Mężczyzna,23,2021-09-06_19h25.27.210,rantool2,2021.1.4,Win32,144.6759259,6135e006383e6ea6c3d06a28,61364ea54f5326e8eb02d46f,"[""period""]",0,[0.18170000004766962],17,0,17,0,1
,,,,,,,5eeca8d15ed7a304c006a793,,,,,,5eeca8d15ed7a304c006a793,Mężczyzna,23,2021-09-06_19h25.27.210,rantool2,2021.1.4,Win32,144.6759259,6135e006383e6ea6c3d06a28,61364ea54f5326e8eb02d46f,"[""period""]",0,[0.184799999952304],18,0,18,0,1
,,,,,,,5eeca8d15ed7a304c006a793,,,,,,5eeca8d15ed7a304c006a793,Mężczyzna,23,2021-09-06_19h25.27.210,rantool2,2021.1.4,Win32,144.6759259,6135e006383e6ea6c3d06a28,61364ea54f5326e8eb02d46f,"[""comma""]",0,[0.13980000007154558],19,0,19,0,1
,,,,,,,5eeca8d15ed7a304c006a793,,,,,,5eeca8d15ed7a304c006a793,Mężczyzna,23,2021-09-06_19h25.27.210,rantool2,2021.1.4,Win32,144.6759259,6135e006383e6ea6c3d06a28,61364ea54f5326e8eb02d46f,"[""period"",""period""]",0,"[0.20430000007155513,1.9691000000238432]",20,0,20,0,1
,,,,,,,5eeca8d15ed7a304c006a793,,,,,,5eeca8d15ed7a304c006a793,Mężczyzna,23,2021-09-06_19h25.27.210,rantool2,2021.1.4,Win32,144.6759259,6135e006383e6ea6c3d06a28,61364ea54f5326e8eb02d46f,"[""period""]",0,[0.41130000007154877],21,0,21,0,1
,,,,,,,5eeca8d15ed7a304c006a793,,,,,,5eeca8d15ed7a304c006a793,Mężczyzna,23,2021-09-06_19h25.27.210,rantool2,2021.1.4,Win32,144.6759259,6135e006383e6ea6c3d06a28,61364ea54f5326e8eb02d46f,"[""comma""]",0,[0.20410000002385686],22,0,22,0,1
,,,,,,,5eeca8d15ed7a304c006a793,,,,,,5eeca8d15ed7a304c006a793,Mężczyzna,23,2021-09-06_19h25.27.210,rantool2,2021.1.4,Win32,144.6759259,6135e006383e6ea6c3d06a28,61364ea54f5326e8eb02d46f,"[""comma""]",0,[0.27809999990461165],23,0,23,0,1
,,,,,,,5eeca8d15ed7a304c006a793,,,,,,5eeca8d15ed7a304c006a793,Mężczyzna,23,2021-09-06_19h25.27.210,rantool2,2021.1.4,Win32,144.6759259,6135e006383e6ea6c3d06a28,61364ea54f5326e8eb02d46f,"[""period""]",0,[0.20029999995227854],24,0,24,0,1
,,,,,,,5eeca8d15ed7a304c006a793,,,,,,5eeca8d15ed7a304c006a793,Mężczyzna,23,2021-09-06_19h25.27.210,rantool2,2021.1.4,Win32,144.6759259,6135e006383e6ea6c3d06a28,61364ea54f5326e8eb02d46f,"[""period""]",0,[0.06139999997611767],25,0,25,0,1
,,,,,,,5eeca8d15ed7a304c006a793,,,,,,5eeca8d15ed7a304c006a793,Mężczyzna,23,2021-09-06_19h25.27.210,rantool2,2021.1.4,Win32,144.6759259,6135e006383e6ea6c3d06a28,61364ea54f5326e8eb02d46f,"[""comma""]",0,[0.2071999999284344],26,0,26,0,1
,,,,,,,5eeca8d15ed7a304c006a793,,,,,,5eeca8d15ed7a304c006a793,Mężczyzna,23,2021-09-06_19h25.27.210,rantool2,2021.1.4,Win32,144.6759259,6135e006383e6ea6c3d06a28,61364ea54f5326e8eb02d46f,"[""period""]",0,[0.21110000002380502],27,0,27,0,1
,,,,,,,5eeca8d15ed7a304c006a793,,,,,,5eeca8d15ed7a304c006a793,Mężczyzna,23,2021-09-06_19h25.27.210,rantool2,2021.1.4,Win32,144.6759259,6135e006383e6ea6c3d06a28,61364ea54f5326e8eb02d46f,"[""period""]",0,[0.20949999999999136],28,0,28,0,1
,,,,,,,5eeca8d15ed7a304c006a793,,,,,,5eeca8d15ed7a304c006a793,Mężczyzna,23,2021-09-06_19h25.27.210,rantool2,2021.1.4,Win32,144.6759259,6135e006383e6ea6c3d06a28,61364ea54f5326e8eb02d46f,"[""comma""]",0,[0.18760000002384913],29,0,29,0,1
,,,,,,,5eeca8d15ed7a304c006a793,,,,,,5eeca8d15ed7a304c006a793,Mężczyzna,23,2021-09-06_19h25.27.210,rantool2,2021.1.4,Win32,144.6759259,6135e006383e6ea6c3d06a28,61364ea54f5326e8eb02d46f,"[""period""]",0,[0.20870000004765643],30,0,30,0,1
,,,,,,,5eeca8d15ed7a304c006a793,,,,,,5eeca8d15ed7a304c006a793,Mężczyzna,23,2021-09-06_19h25.27.210,rantool2,2021.1.4,Win32,144.6759259,6135e006383e6ea6c3d06a28,61364ea54f5326e8eb02d46f,"[""comma""]",0,[0.0876000000238264],31,0,31,0,1
,,,,,,,5eeca8d15ed7a304c006a793,,,,,,5eeca8d15ed7a304c006a793,Mężczyzna,23,2021-09-06_19h25.27.210,rantool2,2021.1.4,Win32,144.6759259,6135e006383e6ea6c3d06a28,61364ea54f5326e8eb02d46f,"[""comma""]",0,[0.0034999999999740794],32,0,32,0,1
,,,,,,,5eeca8d15ed7a304c006a793,,,,,,5eeca8d15ed7a304c006a793,Mężczyzna,23,2021-09-06_19h25.27.210,rantool2,2021.1.4,Win32,144.6759259,6135e006383e6ea6c3d06a28,61364ea54f5326e8eb02d46f,"[""comma""]",0,[0.2074999999999818],33,0,33,0,1
,,,,,,,5eeca8d15ed7a304c006a793,,,,,,5eeca8d15ed7a304c006a793,Mężczyzna,23,2021-09-06_19h25.27.210,rantool2,2021.1.4,Win32,144.6759259,6135e006383e6ea6c3d06a28,61364ea54f5326e8eb02d46f,"[""comma""]",0,[0.2516000000238705],34,0,34,0,1
,,,,,,,5eeca8d15ed7a304c006a793,,,,,,5eeca8d15ed7a304c006a793,Mężczyzna,23,2021-09-06_19h25.27.210,rantool2,2021.1.4,Win32,144.6759259,6135e006383e6ea6c3d06a28,61364ea54f5326e8eb02d46f,"[""period""]",0,[0.20869999992851263],35,0,35,0,1
,,,,,,,5eeca8d15ed7a304c006a793,,,,,,5eeca8d15ed7a304c006a793,Mężczyzna,23,2021-09-06_19h25.27.210,rantool2,2021.1.4,Win32,144.6759259,6135e006383e6ea6c3d06a28,61364ea54f5326e8eb02d46f,"[""period""]",0,[0.22220000004767826],36,0,36,0,1
,,,,,,,5eeca8d15ed7a304c006a793,,,,,,5eeca8d15ed7a304c006a793,Mężczyzna,23,2021-09-06_19h25.27.210,rantool2,2021.1.4,Win32,144.6759259,6135e006383e6ea6c3d06a28,61364ea54f5326e8eb02d46f,"[""comma""]",0,[0.21549999999996317],37,0,37,0,1
,,,,,,,5eeca8d15ed7a304c006a793,,,,,,5eeca8d15ed7a304c006a793,Mężczyzna,23,2021-09-06_19h25.27.210,rantool2,2021.1.4,Win32,144.6759259,6135e006383e6ea6c3d06a28,61364ea54f5326e8eb02d46f,"[""comma""]",0,[0.21100000000001273],38,0,38,0,1
,,,,,,,5eeca8d15ed7a304c006a793,,,,,,5eeca8d15ed7a304c006a793,Mężczyzna,23,2021-09-06_19h25.27.210,rantool2,2021.1.4,Win32,144.6759259,6135e006383e6ea6c3d06a28,61364ea54f5326e8eb02d46f,"[""period""]",0,[0.20299999999997453],39,0,39,0,1
,,,,,,,5eeca8d15ed7a304c006a793,,,,,,5eeca8d15ed7a304c006a793,Mężczyzna,23,2021-09-06_19h25.27.210,rantool2,2021.1.4,Win32,144.6759259,6135e006383e6ea6c3d06a28,61364ea54f5326e8eb02d46f,"[""comma""]",0,[0.1981999999284767],40,0,40,0,1
,,,,,,,5eeca8d15ed7a304c006a793,,,,,,5eeca8d15ed7a304c006a793,Mężczyzna,23,2021-09-06_19h25.27.210,rantool2,2021.1.4,Win32,144.6759259,6135e006383e6ea6c3d06a28,61364ea54f5326e8eb02d46f,"[""period""]",0,[0.14609999990460665],41,0,41,0,1
,,,,,,,5eeca8d15ed7a304c006a793,,,,,,5eeca8d15ed7a304c006a793,Mężczyzna,23,2021-09-06_19h25.27.210,rantool2,2021.1.4,Win32,144.6759259,6135e006383e6ea6c3d06a28,61364ea54f5326e8eb02d46f,"[""period""]",0,[0.17939999997611267],42,0,42,0,1
,,,,,,,5eeca8d15ed7a304c006a793,,,,,,5eeca8d15ed7a304c006a793,Mężczyzna,23,2021-09-06_19h25.27.210,rantool2,2021.1.4,Win32,144.6759259,6135e006383e6ea6c3d06a28,61364ea54f5326e8eb02d46f,"[""comma""]",0,[0.21699999999998454],43,0,43,0,1
,,,,,,,5eeca8d15ed7a304c006a793,,,,,,5eeca8d15ed7a304c006a793,Mężczyzna,23,2021-09-06_19h25.27.210,rantool2,2021.1.4,Win32,144.6759259,6135e006383e6ea6c3d06a28,61364ea54f5326e8eb02d46f,"[""period""]",0,[0.20489999997613495],44,0,44,0,1
,,,,,,,5eeca8d15ed7a304c006a793,,,,,,5eeca8d15ed7a304c006a793,Mężczyzna,23,2021-09-06_19h25.27.210,rantool2,2021.1.4,Win32,144.6759259,6135e006383e6ea6c3d06a28,61364ea54f5326e8eb02d46f,"[""period""]",0,[0.2109999999999559],45,0,45,0,1
,,,,,,,5eeca8d15ed7a304c006a793,,,,,,5eeca8d15ed7a304c006a793,Mężczyzna,23,2021-09-06_19h25.27.210,rantool2,2021.1.4,Win32,144.6759259,6135e006383e6ea6c3d06a28,61364ea54f5326e8eb02d46f,"[""period""]",0,[0.23630000007148055],46,0,46,0,1
,,,,,,,5eeca8d15ed7a304c006a793,,,,,,5eeca8d15ed7a304c006a793,Mężczyzna,23,2021-09-06_19h25.27.210,rantool2,2021.1.4,Win32,144.6759259,6135e006383e6ea6c3d06a28,61364ea54f5326e8eb02d46f,"[""comma""]",0,[0.2008000000715242],47,0,47,0,1
,,,,,,,5eeca8d15ed7a304c006a793,,,,,,5eeca8d15ed7a304c006a793,Mężczyzna,23,2021-09-06_19h25.27.210,rantool2,2021.1.4,Win32,144.6759259,6135e006383e6ea6c3d06a28,61364ea54f5326e8eb02d46f,"[""period""]",0,[0.19499999999999318],48,0,48,0,1
,,,,,,,5eeca8d15ed7a304c006a793,,,,,,5eeca8d15ed7a304c006a793,Mężczyzna,23,2021-09-06_19h25.27.210,rantool2,2021.1.4,Win32,144.6759259,6135e006383e6ea6c3d06a28,61364ea54f5326e8eb02d46f,"[""period""]",0,[0.20039999997618452],49,0,49,0,1
,,,,,,,5eeca8d15ed7a304c006a793,,,,,,5eeca8d15ed7a304c006a793,Mężczyzna,23,2021-09-06_19h25.27.210,rantool2,2021.1.4,Win32,144.6759259,6135e006383e6ea6c3d06a28,61364ea54f5326e8eb02d46f,"[""period""]",0,[0.20829999995231674],50,0,50,0,1
,,,,,,,5eeca8d15ed7a304c006a793,,,,,,5eeca8d15ed7a304c006a793,Mężczyzna,23,2021-09-06_19h25.27.210,rantool2,2021.1.4,Win32,144.6759259,6135e006383e6ea6c3d06a28,61364ea54f5326e8eb02d46f,"[""period""]",0,[0.18269999992850217],51,0,51,0,1
,,,,,,,5eeca8d15ed7a304c006a793,,,,,,5eeca8d15ed7a304c006a793,Mężczyzna,23,2021-09-06_19h25.27.210,rantool2,2021.1.4,Win32,144.6759259,6135e006383e6ea6c3d06a28,61364ea54f5326e8eb02d46f,"[""period""]",0,[0.24200000000001864],52,0,52,0,1
,,,,,,,5eeca8d15ed7a304c006a793,,,,,,5eeca8d15ed7a304c006a793,Mężczyzna,23,2021-09-06_19h25.27.210,rantool2,2021.1.4,Win32,144.6759259,6135e006383e6ea6c3d06a28,61364ea54f5326e8eb02d46f,"[""comma""]",0,[0.32739999997619407],53,0,53,0,1
,,,,,,,5eeca8d15ed7a304c006a793,,,,,,5eeca8d15ed7a304c006a793,Mężczyzna,23,2021-09-06_19h25.27.210,rantool2,2021.1.4,Win32,144.6759259,6135e006383e6ea6c3d06a28,61364ea54f5326e8eb02d46f,"[""comma""]",0,[0.3186999999284694],54,0,54,0,1
,,,,,,,5eeca8d15ed7a304c006a793,,,,,,5eeca8d15ed7a304c006a793,Mężczyzna,23,2021-09-06_19h25.27.210,rantool2,2021.1.4,Win32,144.6759259,6135e006383e6ea6c3d06a28,61364ea54f5326e8eb02d46f,"[""period""]",0,[0.2282000000477069],55,0,55,0,1
,,,,,,,5eeca8d15ed7a304c006a793,,,,,,5eeca8d15ed7a304c006a793,Mężczyzna,23,2021-09-06_19h25.27.210,rantool2,2021.1.4,Win32,144.6759259,6135e006383e6ea6c3d06a28,61364ea54f5326e8eb02d46f,"[""comma""]",0,[0.23620000004768826],56,0,56,0,1
,,,,,,,5eeca8d15ed7a304c006a793,,,,,,5eeca8d15ed7a304c006a793,Mężczyzna,23,2021-09-06_19h25.27.210,rantool2,2021.1.4,Win32,144.6759259,6135e006383e6ea6c3d06a28,61364ea54f5326e8eb02d46f,"[""period""]",0,[0.04889999997618588],57,0,57,0,1
,,,,,,,5eeca8d15ed7a304c006a793,,,,,,5eeca8d15ed7a304c006a793,Mężczyzna,23,2021-09-06_19h25.27.210,rantool2,2021.1.4,Win32,144.6759259,6135e006383e6ea6c3d06a28,61364ea54f5326e8eb02d46f,"[""period""]",0,[0.17260000002386278],58,0,58,0,1
,,,,,,,5eeca8d15ed7a304c006a793,,,,,,5eeca8d15ed7a304c006a793,Mężczyzna,23,2021-09-06_19h25.27.210,rantool2,2021.1.4,Win32,144.6759259,6135e006383e6ea6c3d06a28,61364ea54f5326e8eb02d46f,"[""period""]",0,[0.23349999999999227],59,0,59,0,1
,,,,,,,5eeca8d15ed7a304c006a793,,,,,,5eeca8d15ed7a304c006a793,Mężczyzna,23,2021-09-06_19h25.27.210,rantool2,2021.1.4,Win32,144.6759259,6135e006383e6ea6c3d06a28,61364ea54f5326e8eb02d46f,"[""comma""]",0,[0.22110000002379593],60,0,60,0,1
,,,,,,,5eeca8d15ed7a304c006a793,,,,,,5eeca8d15ed7a304c006a793,Mężczyzna,23,2021-09-06_19h25.27.210,rantool2,2021.1.4,Win32,144.6759259,6135e006383e6ea6c3d06a28,61364ea54f5326e8eb02d46f,"[""comma""]",0,[0.2145999999046353],61,0,61,0,1
,,,,,,,5eeca8d15ed7a304c006a793,,,,,,5eeca8d15ed7a304c006a793,Mężczyzna,23,2021-09-06_19h25.27.210,rantool2,2021.1.4,Win32,144.6759259,6135e006383e6ea6c3d06a28,61364ea54f5326e8eb02d46f,"[""period""]",0,[0.20569999992846988],62,0,62,0,1
,,,,,,,5eeca8d15ed7a304c006a793,,,,,,5eeca8d15ed7a304c006a793,Mężczyzna,23,2021-09-06_19h25.27.210,rantool2,2021.1.4,Win32,144.6759259,6135e006383e6ea6c3d06a28,61364ea54f5326e8eb02d46f,"[""comma""]",0,[0.2211999999284444],63,0,63,0,1
,,,,,,,5eeca8d15ed7a304c006a793,,,,,,5eeca8d15ed7a304c006a793,Mężczyzna,23,2021-09-06_19h25.27.210,rantool2,2021.1.4,Win32,144.6759259,6135e006383e6ea6c3d06a28,61364ea54f5326e8eb02d46f,"[""period""]",0,[0.19329999995233038],64,0,64,0,1
,,,,,,,5eeca8d15ed7a304c006a793,,,,,,5eeca8d15ed7a304c006a793,Mężczyzna,23,2021-09-06_19h25.27.210,rantool2,2021.1.4,Win32,144.6759259,6135e006383e6ea6c3d06a28,61364ea54f5326e8eb02d46f,"[""period"",""comma""]",0,"[0.18979999995229946,1.9477999999523377]",65,0,65,0,1
,,,,,,,5eeca8d15ed7a304c006a793,,,,,,5eeca8d15ed7a304c006a793,Mężczyzna,23,2021-09-06_19h25.27.210,rantool2,2021.1.4,Win32,144.6759259,6135e006383e6ea6c3d06a28,61364ea54f5326e8eb02d46f,0,0,,66,0,66,0,1
,,,,,,,5eeca8d15ed7a304c006a793,,,,,,5eeca8d15ed7a304c006a793,Mężczyzna,23,2021-09-06_19h25.27.210,rantool2,2021.1.4,Win32,144.6759259,6135e006383e6ea6c3d06a28,61364ea54f5326e8eb02d46f,"[""comma""]",0,[0.08979999995233356],67,0,67,0,1
,,,,,,,5eeca8d15ed7a304c006a793,,,,,,5eeca8d15ed7a304c006a793,Mężczyzna,23,2021-09-06_19h25.27.210,rantool2,2021.1.4,Win32,144.6759259,6135e006383e6ea6c3d06a28,61364ea54f5326e8eb02d46f,"[""comma""]",0,[0.22470000004767599],68,0,68,0,1
,,,,,,,5eeca8d15ed7a304c006a793,,,,,,5eeca8d15ed7a304c006a793,Mężczyzna,23,2021-09-06_19h25.27.210,rantool2,2021.1.4,Win32,144.6759259,6135e006383e6ea6c3d06a28,61364ea54f5326e8eb02d46f,"[""period""]",0,[0.2048999999761918],69,0,69,0,1
,,,,,,,5eeca8d15ed7a304c006a793,,,,,,5eeca8d15ed7a304c006a793,Mężczyzna,23,2021-09-06_19h25.27.210,rantool2,2021.1.4,Win32,144.6759259,6135e006383e6ea6c3d06a28,61364ea54f5326e8eb02d46f,"[""comma""]",0,[0.1757999999523463],70,0,70,0,1
,,,,,,,5eeca8d15ed7a304c006a793,,,,,,5eeca8d15ed7a304c006a793,Mężczyzna,23,2021-09-06_19h25.27.210,rantool2,2021.1.4,Win32,144.6759259,6135e006383e6ea6c3d06a28,61364ea54f5326e8eb02d46f,"[""period""]",0,[0.06160000002387278],71,0,71,0,1
,,,,,,,5eeca8d15ed7a304c006a793,,,,,,5eeca8d15ed7a304c006a793,Mężczyzna,23,2021-09-06_19h25.27.210,rantool2,2021.1.4,Win32,144.6759259,6135e006383e6ea6c3d06a28,61364ea54f5326e8eb02d46f,"[""comma""]",0,[0.13620000004772237],72,0,72,0,1
,,,,,,,5eeca8d15ed7a304c006a793,,,,,,5eeca8d15ed7a304c006a793,Mężczyzna,23,2021-09-06_19h25.27.210,rantool2,2021.1.4,Win32,144.6759259,6135e006383e6ea6c3d06a28,61364ea54f5326e8eb02d46f,"[""comma""]",0,[0.1982000000477342],73,0,73,0,1
,,,,,,,5eeca8d15ed7a304c006a793,,,,,,5eeca8d15ed7a304c006a793,Mężczyzna,23,2021-09-06_19h25.27.210,rantool2,2021.1.4,Win32,144.6759259,6135e006383e6ea6c3d06a28,61364ea54f5326e8eb02d46f,"[""comma""]",0,[0.20190000009540654],74,0,74,0,1
,,,,,,,5eeca8d15ed7a304c006a793,,,,,,5eeca8d15ed7a304c006a793,Mężczyzna,23,2021-09-06_19h25.27.210,rantool2,2021.1.4,Win32,144.6759259,6135e006383e6ea6c3d06a28,61364ea54f5326e8eb02d46f,"[""comma""]",0,[0.2142000000476969],75,0,75,0,1
,,,,,,,5eeca8d15ed7a304c006a793,,,,,,5eeca8d15ed7a304c006a793,Mężczyzna,23,2021-09-06_19h25.27.210,rantool2,2021.1.4,Win32,144.6759259,6135e006383e6ea6c3d06a28,61364ea54f5326e8eb02d46f,"[""period""]",0,[0.2162999999522981],76,0,76,0,1
,,,,,,,5eeca8d15ed7a304c006a793,,,,,,5eeca8d15ed7a304c006a793,Mężczyzna,23,2021-09-06_19h25.27.210,rantool2,2021.1.4,Win32,144.6759259,6135e006383e6ea6c3d06a28,61364ea54f5326e8eb02d46f,"[""comma""]",0,[0.1992999999523022],77,0,77,0,1
,,,,,,,5eeca8d15ed7a304c006a793,,,,,,5eeca8d15ed7a304c006a793,Mężczyzna,23,2021-09-06_19h25.27.210,rantool2,2021.1.4,Win32,144.6759259,6135e006383e6ea6c3d06a28,61364ea54f5326e8eb02d46f,"[""comma""]",0,[0.208500000000015],78,0,78,0,1
,,,,,,,5eeca8d15ed7a304c006a793,,,,,,5eeca8d15ed7a304c006a793,Mężczyzna,23,2021-09-06_19h25.27.210,rantool2,2021.1.4,Win32,144.6759259,6135e006383e6ea6c3d06a28,61364ea54f5326e8eb02d46f,"[""comma""]",0,[0.28019999992847033],79,0,79,0,1
,,,,,,,5eeca8d15ed7a304c006a793,,,,,,5eeca8d15ed7a304c006a793,Mężczyzna,23,2021-09-06_19h25.27.210,rantool2,2021.1.4,Win32,144.6759259,6135e006383e6ea6c3d06a28,61364ea54f5326e8eb02d46f,"[""comma""]",0,[0.2740000000000009],80,0,80,0,1
,,,,,,,5eeca8d15ed7a304c006a793,,,,,,5eeca8d15ed7a304c006a793,Mężczyzna,23,2021-09-06_19h25.27.210,rantool2,2021.1.4,Win32,144.6759259,6135e006383e6ea6c3d06a28,61364ea54f5326e8eb02d46f,"[""period""]",0,[0.26629999995230946],81,0,81,0,1
,,,,,,,5eeca8d15ed7a304c006a793,,,,,,5eeca8d15ed7a304c006a793,Mężczyzna,23,2021-09-06_19h25.27.210,rantool2,2021.1.4,Win32,144.6759259,6135e006383e6ea6c3d06a28,61364ea54f5326e8eb02d46f,"[""period""]",0,[0.21399999999999864],82,0,82,0,1
,,,,,,,5eeca8d15ed7a304c006a793,,,,,,5eeca8d15ed7a304c006a793,Mężczyzna,23,2021-09-06_19h25.27.210,rantool2,2021.1.4,Win32,144.6759259,6135e006383e6ea6c3d06a28,61364ea54f5326e8eb02d46f,"[""comma""]",0,[0.2083000000715174],83,0,83,0,1
,,,,,,,5eeca8d15ed7a304c006a793,,,,,,5eeca8d15ed7a304c006a793,Mężczyzna,23,2021-09-06_19h25.27.210,rantool2,2021.1.4,Win32,144.6759259,6135e006383e6ea6c3d06a28,61364ea54f5326e8eb02d46f,"[""period""]",0,[0.2212000000477019],84,0,84,0,1
,,,,,,,5eeca8d15ed7a304c006a793,,,,,,5eeca8d15ed7a304c006a793,Mężczyzna,23,2021-09-06_19h25.27.210,rantool2,2021.1.4,Win32,144.6759259,6135e006383e6ea6c3d06a28,61364ea54f5326e8eb02d46f,"[""period""]",0,[0.22380000007154877],85,0,85,0,1
,,,,,,,5eeca8d15ed7a304c006a793,,,,,,5eeca8d15ed7a304c006a793,Mężczyzna,23,2021-09-06_19h25.27.210,rantool2,2021.1.4,Win32,144.6759259,6135e006383e6ea6c3d06a28,61364ea54f5326e8eb02d46f,"[""period""]",0,[0.07510000002383777],86,0,86,0,1
,,,,,,,5eeca8d15ed7a304c006a793,,,,,,5eeca8d15ed7a304c006a793,Mężczyzna,23,2021-09-06_19h25.27.210,rantool2,2021.1.4,Win32,144.6759259,6135e006383e6ea6c3d06a28,61364ea54f5326e8eb02d46f,"[""comma""]",0,[0.12509999990464848],87,0,87,0,1
,,,,,,,5eeca8d15ed7a304c006a793,,,,,,5eeca8d15ed7a304c006a793,Mężczyzna,23,2021-09-06_19h25.27.210,rantool2,2021.1.4,Win32,144.6759259,6135e006383e6ea6c3d06a28,61364ea54f5326e8eb02d46f,"[""comma""]",0,[0.22809999990465712],88,0,88,0,1
,,,,,,,5eeca8d15ed7a304c006a793,,,,,,5eeca8d15ed7a304c006a793,Mężczyzna,23,2021-09-06_19h25.27.210,rantool2,2021.1.4,Win32,144.6759259,6135e006383e6ea6c3d06a28,61364ea54f5326e8eb02d46f,"[""period""]",0,[0.19319999992848125],89,0,89,0,1
,,,,,,,5eeca8d15ed7a304c006a793,,,,,,5eeca8d15ed7a304c006a793,Mężczyzna,23,2021-09-06_19h25.27.210,rantool2,2021.1.4,Win32,144.6759259,6135e006383e6ea6c3d06a28,61364ea54f5326e8eb02d46f,"[""period""]",0,[0.20729999995234039],90,0,90,0,1
,,,,,,,5eeca8d15ed7a304c006a793,,,,,,5eeca8d15ed7a304c006a793,Mężczyzna,23,2021-09-06_19h25.27.210,rantool2,2021.1.4,Win32,144.6759259,6135e006383e6ea6c3d06a28,61364ea54f5326e8eb02d46f,"[""comma""]",0,[0.22469999992847534],91,0,91,0,1
,,,,,,,5eeca8d15ed7a304c006a793,,,,,,5eeca8d15ed7a304c006a793,Mężczyzna,23,2021-09-06_19h25.27.210,rantool2,2021.1.4,Win32,144.6759259,6135e006383e6ea6c3d06a28,61364ea54f5326e8eb02d46f,"[""comma""]",0,[0.23599999999999],92,0,92,0,1
,,,,,,,5eeca8d15ed7a304c006a793,,,,,,5eeca8d15ed7a304c006a793,Mężczyzna,23,2021-09-06_19h25.27.210,rantool2,2021.1.4,Win32,144.6759259,6135e006383e6ea6c3d06a28,61364ea54f5326e8eb02d46f,"[""period""]",0,[0.25689999997615587],93,0,93,0,1
,,,,,,,5eeca8d15ed7a304c006a793,,,,,,5eeca8d15ed7a304c006a793,Mężczyzna,23,2021-09-06_19h25.27.210,rantool2,2021.1.4,Win32,144.6759259,6135e006383e6ea6c3d06a28,61364ea54f5326e8eb02d46f,"[""period""]",0,[0.2031000000238805],94,0,94,0,1
,,,,,,,5eeca8d15ed7a304c006a793,,,,,,5eeca8d15ed7a304c006a793,Mężczyzna,23,2021-09-06_19h25.27.210,rantool2,2021.1.4,Win32,144.6759259,6135e006383e6ea6c3d06a28,61364ea54f5326e8eb02d46f,"[""period""]",0,[0.18760000002384913],95,0,95,0,1
,,,,,,,5eeca8d15ed7a304c006a793,,,,,,5eeca8d15ed7a304c006a793,Mężczyzna,23,2021-09-06_19h25.27.210,rantool2,2021.1.4,Win32,144.6759259,6135e006383e6ea6c3d06a28,61364ea54f5326e8eb02d46f,"[""comma""]",0,[0.194500000000005],96,0,96,0,1
,,,,,,,5eeca8d15ed7a304c006a793,,,,,,5eeca8d15ed7a304c006a793,Mężczyzna,23,2021-09-06_19h25.27.210,rantool2,2021.1.4,Win32,144.6759259,6135e006383e6ea6c3d06a28,61364ea54f5326e8eb02d46f,"[""period""]",0,[0.19460000002385414],97,0,97,0,1
,,,,,,,5eeca8d15ed7a304c006a793,,,,,,5eeca8d15ed7a304c006a793,Mężczyzna,23,2021-09-06_19h25.27.210,rantool2,2021.1.4,Win32,144.6759259,6135e006383e6ea6c3d06a28,61364ea54f5326e8eb02d46f,"[""period""]",0,[0.1631000000238032],98,0,98,0,1
,,,,,,,5eeca8d15ed7a304c006a793,,,,,,5eeca8d15ed7a304c006a793,Mężczyzna,23,2021-09-06_19h25.27.210,rantool2,2021.1.4,Win32,144.6759259,6135e006383e6ea6c3d06a28,61364ea54f5326e8eb02d46f,"[""period""]",0,[0.1948999999762009],99,0,99,0,1
,,,,,,,5eeca8d15ed7a304c006a793,,,,,,5eeca8d15ed7a304c006a793,Mężczyzna,23,2021-09-06_19h25.27.210,rantool2,2021.1.4,Win32,144.6759259,6135e006383e6ea6c3d06a28,61364ea54f5326e8eb02d46f,"[""period""]",0,[0.1282999999522758],100,0,100,0,1
,,,,,,,5eeca8d15ed7a304c006a793,,,,,,5eeca8d15ed7a304c006a793,Mężczyzna,23,2021-09-06_19h25.27.210,rantool2,2021.1.4,Win32,144.6759259,6135e006383e6ea6c3d06a28,61364ea54f5326e8eb02d46f,"[""comma""]",0,[0.21030000007152694],101,0,101,0,1
,,,,,,,5eeca8d15ed7a304c006a793,,,,,,5eeca8d15ed7a304c006a793,Mężczyzna,23,2021-09-06_19h25.27.210,rantool2,2021.1.4,Win32,144.6759259,6135e006383e6ea6c3d06a28,61364ea54f5326e8eb02d46f,"[""comma""]",0,[0.2268999999761263],102,0,102,0,1
,,,,,,,5eeca8d15ed7a304c006a793,,,,,,5eeca8d15ed7a304c006a793,Mężczyzna,23,2021-09-06_19h25.27.210,rantool2,2021.1.4,Win32,144.6759259,6135e006383e6ea6c3d06a28,61364ea54f5326e8eb02d46f,"[""period""]",0,[0.2198999999761213],103,0,103,0,1
,,,,,,,5eeca8d15ed7a304c006a793,,,,,,5eeca8d15ed7a304c006a793,Mężczyzna,23,2021-09-06_19h25.27.210,rantool2,2021.1.4,Win32,144.6759259,6135e006383e6ea6c3d06a28,61364ea54f5326e8eb02d46f,"[""comma""]",0,[0.21589999997615905],104,0,104,0,1
,,,,,,,5eeca8d15ed7a304c006a793,,,,,,5eeca8d15ed7a304c006a793,Mężczyzna,23,2021-09-06_19h25.27.210,rantool2,2021.1.4,Win32,144.6759259,6135e006383e6ea6c3d06a28,61364ea54f5326e8eb02d46f,"[""period""]",0,[0.2059000000953688],105,0,105,0,1
,,,,,,,5eeca8d15ed7a304c006a793,,,,,,5eeca8d15ed7a304c006a793,Mężczyzna,23,2021-09-06_19h25.27.210,rantool2,2021.1.4,Win32,144.6759259,6135e006383e6ea6c3d06a28,61364ea54f5326e8eb02d46f,"[""period""]",0,[0.2183000000715083],106,0,106,0,1
,,,,,,,5eeca8d15ed7a304c006a793,,,,,,5eeca8d15ed7a304c006a793,Mężczyzna,23,2021-09-06_19h25.27.210,rantool2,2021.1.4,Win32,144.6759259,6135e006383e6ea6c3d06a28,61364ea54f5326e8eb02d46f,"[""period""]",0,[0.22510000002381503],107,0,107,0,1
,,,,,,,5eeca8d15ed7a304c006a793,,,,,,5eeca8d15ed7a304c006a793,Mężczyzna,23,2021-09-06_19h25.27.210,rantool2,2021.1.4,Win32,144.6759259,6135e006383e6ea6c3d06a28,61364ea54f5326e8eb02d46f,"[""period""]",0,[0.24719999992845487],108,0,108,0,1
,,,,,,,5eeca8d15ed7a304c006a793,,,,,,5eeca8d15ed7a304c006a793,Mężczyzna,23,2021-09-06_19h25.27.210,rantool2,2021.1.4,Win32,144.6759259,6135e006383e6ea6c3d06a28,61364ea54f5326e8eb02d46f,"[""period""]",0,[0.24389999997617906],109,0,109,0,1
,,,,,,,5eeca8d15ed7a304c006a793,,,,,,5eeca8d15ed7a304c006a793,Mężczyzna,23,2021-09-06_19h25.27.210,rantool2,2021.1.4,Win32,144.6759259,6135e006383e6ea6c3d06a28,61364ea54f5326e8eb02d46f,"[""period""]",0,[0.2366000000238273],110,0,110,0,1
,,,,,,,5eeca8d15ed7a304c006a793,,,,,,5eeca8d15ed7a304c006a793,Mężczyzna,23,2021-09-06_19h25.27.210,rantool2,2021.1.4,Win32,144.6759259,6135e006383e6ea6c3d06a28,61364ea54f5326e8eb02d46f,"[""comma""]",0,[0.23629999995233675],111,0,111,0,1
,,,,,,,5eeca8d15ed7a304c006a793,,,,,,5eeca8d15ed7a304c006a793,Mężczyzna,23,2021-09-06_19h25.27.210,rantool2,2021.1.4,Win32,144.6759259,6135e006383e6ea6c3d06a28,61364ea54f5326e8eb02d46f,"[""comma""]",0,[0.20189999997614905],112,0,112,0,1
,,,,,,,5eeca8d15ed7a304c006a793,,,,,,5eeca8d15ed7a304c006a793,Mężczyzna,23,2021-09-06_19h25.27.210,rantool2,2021.1.4,Win32,144.6759259,6135e006383e6ea6c3d06a28,61364ea54f5326e8eb02d46f,"[""period""]",0,[0.17629999995233447],113,0,113,0,1
,,,,,,,5eeca8d15ed7a304c006a793,,,,,,5eeca8d15ed7a304c006a793,Mężczyzna,23,2021-09-06_19h25.27.210,rantool2,2021.1.4,Win32,144.6759259,6135e006383e6ea6c3d06a28,61364ea54f5326e8eb02d46f,"[""comma""]",0,[0.19730000007155013],114,0,114,0,1
,,,,,,,5eeca8d15ed7a304c006a793,,,,,,5eeca8d15ed7a304c006a793,Mężczyzna,23,2021-09-06_19h25.27.210,rantool2,2021.1.4,Win32,144.6759259,6135e006383e6ea6c3d06a28,61364ea54f5326e8eb02d46f,"[""period""]",0,[0.20939999997619907],115,0,115,0,1
,,,,,,,5eeca8d15ed7a304c006a793,,,,,,5eeca8d15ed7a304c006a793,Mężczyzna,23,2021-09-06_19h25.27.210,rantool2,2021.1.4,Win32,144.6759259,6135e006383e6ea6c3d06a28,61364ea54f5326e8eb02d46f,"[""period""]",0,[0.2230000000000132],116,0,116,0,1
,,,,,,,5eeca8d15ed7a304c006a793,,,,,,5eeca8d15ed7a304c006a793,Mężczyzna,23,2021-09-06_19h25.27.210,rantool2,2021.1.4,Win32,144.6759259,6135e006383e6ea6c3d06a28,61364ea54f5326e8eb02d46f,"[""period""]",0,[0.16940000009537926],117,0,117,0,1
,,,,,,,5eeca8d15ed7a304c006a793,,,,,,5eeca8d15ed7a304c006a793,Mężczyzna,23,2021-09-06_19h25.27.210,rantool2,2021.1.4,Win32,144.6759259,6135e006383e6ea6c3d06a28,61364ea54f5326e8eb02d46f,"[""comma""]",0,[0.20170000004759459],118,0,118,0,1
,,,,,,,5eeca8d15ed7a304c006a793,,,,,,5eeca8d15ed7a304c006a793,Mężczyzna,23,2021-09-06_19h25.27.210,rantool2,2021.1.4,Win32,144.6759259,6135e006383e6ea6c3d06a28,61364ea54f5326e8eb02d46f,"[""period""]",0,[0.1985999999046726],119,0,119,0,1
