key_resp_5.keys,key_resp_5.corr,key_resp_5.rt,trials.thisRepN,trials.thisTrialN,trials.thisN,trials.thisIndex,trials.ran,id*,Płeć*,Wiek*,date,expName,psychopyVersion,OS,frameRate,id,STUDY_ID,SESSION_ID,key_resp_7.keys,key_resp_7.rt,trials_2.thisRepN,trials_2.thisTrialN,trials_2.thisN,trials_2.thisIndex,trials_2.ran,series_0,series_1,acss_0,acss_1,comparison
"[""period""]",0,[0.7696999999880774],0,0,0,0,1,5f1b26dbd5dc042c9aedb7a4,Mężczyzna,19,2021-07-13_22h11.28.099,rantool2,2021.1.4,Win32,62.01165819,5f1b26dbd5dc042c9aedb7a4,60d9d14f4a8a35a482e0d9bf,60edf0d45c28a315ad8056c2,,,,,,,,,,,,
"[""comma""]",0,[0.666999999999998],1,0,1,0,1,5f1b26dbd5dc042c9aedb7a4,Mężczyzna,19,2021-07-13_22h11.28.099,rantool2,2021.1.4,Win32,62.01165819,5f1b26dbd5dc042c9aedb7a4,60d9d14f4a8a35a482e0d9bf,60edf0d45c28a315ad8056c2,,,,,,,,,,,,
"[""period""]",0,[0.30049999999999955],2,0,2,0,1,5f1b26dbd5dc042c9aedb7a4,Mężczyzna,19,2021-07-13_22h11.28.099,rantool2,2021.1.4,Win32,62.01165819,5f1b26dbd5dc042c9aedb7a4,60d9d14f4a8a35a482e0d9bf,60edf0d45c28a315ad8056c2,,,,,,,,,,,,
"[""comma""]",0,[0.23430000001192042],3,0,3,0,1,5f1b26dbd5dc042c9aedb7a4,Mężczyzna,19,2021-07-13_22h11.28.099,rantool2,2021.1.4,Win32,62.01165819,5f1b26dbd5dc042c9aedb7a4,60d9d14f4a8a35a482e0d9bf,60edf0d45c28a315ad8056c2,,,,,,,,,,,,
"[""comma""]",0,[0.4268999999761576],4,0,4,0,1,5f1b26dbd5dc042c9aedb7a4,Mężczyzna,19,2021-07-13_22h11.28.099,rantool2,2021.1.4,Win32,62.01165819,5f1b26dbd5dc042c9aedb7a4,60d9d14f4a8a35a482e0d9bf,60edf0d45c28a315ad8056c2,,,,,,,,,,,,
"[""period""]",0,[0.3544000000059633],5,0,5,0,1,5f1b26dbd5dc042c9aedb7a4,Mężczyzna,19,2021-07-13_22h11.28.099,rantool2,2021.1.4,Win32,62.01165819,5f1b26dbd5dc042c9aedb7a4,60d9d14f4a8a35a482e0d9bf,60edf0d45c28a315ad8056c2,,,,,,,,,,,,
"[""comma""]",0,[0.3254999999999981],6,0,6,0,1,5f1b26dbd5dc042c9aedb7a4,Mężczyzna,19,2021-07-13_22h11.28.099,rantool2,2021.1.4,Win32,62.01165819,5f1b26dbd5dc042c9aedb7a4,60d9d14f4a8a35a482e0d9bf,60edf0d45c28a315ad8056c2,,,,,,,,,,,,
"[""period""]",0,[0.3108999999761579],7,0,7,0,1,5f1b26dbd5dc042c9aedb7a4,Mężczyzna,19,2021-07-13_22h11.28.099,rantool2,2021.1.4,Win32,62.01165819,5f1b26dbd5dc042c9aedb7a4,60d9d14f4a8a35a482e0d9bf,60edf0d45c28a315ad8056c2,,,,,,,,,,,,
"[""comma""]",0,[0.2999000000059624],8,0,8,0,1,5f1b26dbd5dc042c9aedb7a4,Mężczyzna,19,2021-07-13_22h11.28.099,rantool2,2021.1.4,Win32,62.01165819,5f1b26dbd5dc042c9aedb7a4,60d9d14f4a8a35a482e0d9bf,60edf0d45c28a315ad8056c2,,,,,,,,,,,,
"[""comma""]",0,[0.3344000000059637],9,0,9,0,1,5f1b26dbd5dc042c9aedb7a4,Mężczyzna,19,2021-07-13_22h11.28.099,rantool2,2021.1.4,Win32,62.01165819,5f1b26dbd5dc042c9aedb7a4,60d9d14f4a8a35a482e0d9bf,60edf0d45c28a315ad8056c2,,,,,,,,,,,,
"[""period""]",0,[0.4503000000119215],10,0,10,0,1,5f1b26dbd5dc042c9aedb7a4,Mężczyzna,19,2021-07-13_22h11.28.099,rantool2,2021.1.4,Win32,62.01165819,5f1b26dbd5dc042c9aedb7a4,60d9d14f4a8a35a482e0d9bf,60edf0d45c28a315ad8056c2,,,,,,,,,,,,
"[""comma""]",0,[0.4174999999999969],11,0,11,0,1,5f1b26dbd5dc042c9aedb7a4,Mężczyzna,19,2021-07-13_22h11.28.099,rantool2,2021.1.4,Win32,62.01165819,5f1b26dbd5dc042c9aedb7a4,60d9d14f4a8a35a482e0d9bf,60edf0d45c28a315ad8056c2,,,,,,,,,,,,
"[""comma""]",0,[0.3176999999880792],12,0,12,0,1,5f1b26dbd5dc042c9aedb7a4,Mężczyzna,19,2021-07-13_22h11.28.099,rantool2,2021.1.4,Win32,62.01165819,5f1b26dbd5dc042c9aedb7a4,60d9d14f4a8a35a482e0d9bf,60edf0d45c28a315ad8056c2,,,,,,,,,,,,
"[""comma""]",0,[0.28419999998808265],13,0,13,0,1,5f1b26dbd5dc042c9aedb7a4,Mężczyzna,19,2021-07-13_22h11.28.099,rantool2,2021.1.4,Win32,62.01165819,5f1b26dbd5dc042c9aedb7a4,60d9d14f4a8a35a482e0d9bf,60edf0d45c28a315ad8056c2,,,,,,,,,,,,
"[""period""]",0,[0.3043000000119207],14,0,14,0,1,5f1b26dbd5dc042c9aedb7a4,Mężczyzna,19,2021-07-13_22h11.28.099,rantool2,2021.1.4,Win32,62.01165819,5f1b26dbd5dc042c9aedb7a4,60d9d14f4a8a35a482e0d9bf,60edf0d45c28a315ad8056c2,,,,,,,,,,,,
"[""comma""]",0,[0.25690000000596314],15,0,15,0,1,5f1b26dbd5dc042c9aedb7a4,Mężczyzna,19,2021-07-13_22h11.28.099,rantool2,2021.1.4,Win32,62.01165819,5f1b26dbd5dc042c9aedb7a4,60d9d14f4a8a35a482e0d9bf,60edf0d45c28a315ad8056c2,,,,,,,,,,,,
"[""period""]",0,[0.14300000000000068],16,0,16,0,1,5f1b26dbd5dc042c9aedb7a4,Mężczyzna,19,2021-07-13_22h11.28.099,rantool2,2021.1.4,Win32,62.01165819,5f1b26dbd5dc042c9aedb7a4,60d9d14f4a8a35a482e0d9bf,60edf0d45c28a315ad8056c2,,,,,,,,,,,,
"[""comma""]",0,[0.2540000000000049],17,0,17,0,1,5f1b26dbd5dc042c9aedb7a4,Mężczyzna,19,2021-07-13_22h11.28.099,rantool2,2021.1.4,Win32,62.01165819,5f1b26dbd5dc042c9aedb7a4,60d9d14f4a8a35a482e0d9bf,60edf0d45c28a315ad8056c2,,,,,,,,,,,,
"[""period""]",0,[0.2734999999999985],18,0,18,0,1,5f1b26dbd5dc042c9aedb7a4,Mężczyzna,19,2021-07-13_22h11.28.099,rantool2,2021.1.4,Win32,62.01165819,5f1b26dbd5dc042c9aedb7a4,60d9d14f4a8a35a482e0d9bf,60edf0d45c28a315ad8056c2,,,,,,,,,,,,
"[""comma""]",0,[0.20930000001192184],19,0,19,0,1,5f1b26dbd5dc042c9aedb7a4,Mężczyzna,19,2021-07-13_22h11.28.099,rantool2,2021.1.4,Win32,62.01165819,5f1b26dbd5dc042c9aedb7a4,60d9d14f4a8a35a482e0d9bf,60edf0d45c28a315ad8056c2,,,,,,,,,,,,
"[""period""]",0,[0.2957000000178809],20,0,20,0,1,5f1b26dbd5dc042c9aedb7a4,Mężczyzna,19,2021-07-13_22h11.28.099,rantool2,2021.1.4,Win32,62.01165819,5f1b26dbd5dc042c9aedb7a4,60d9d14f4a8a35a482e0d9bf,60edf0d45c28a315ad8056c2,,,,,,,,,,,,
"[""comma""]",0,[0.24430000001191843],21,0,21,0,1,5f1b26dbd5dc042c9aedb7a4,Mężczyzna,19,2021-07-13_22h11.28.099,rantool2,2021.1.4,Win32,62.01165819,5f1b26dbd5dc042c9aedb7a4,60d9d14f4a8a35a482e0d9bf,60edf0d45c28a315ad8056c2,,,,,,,,,,,,
"[""period""]",0,[0.2542000000178817],22,0,22,0,1,5f1b26dbd5dc042c9aedb7a4,Mężczyzna,19,2021-07-13_22h11.28.099,rantool2,2021.1.4,Win32,62.01165819,5f1b26dbd5dc042c9aedb7a4,60d9d14f4a8a35a482e0d9bf,60edf0d45c28a315ad8056c2,,,,,,,,,,,,
"[""period""]",0,[0.40910000002384095],23,0,23,0,1,5f1b26dbd5dc042c9aedb7a4,Mężczyzna,19,2021-07-13_22h11.28.099,rantool2,2021.1.4,Win32,62.01165819,5f1b26dbd5dc042c9aedb7a4,60d9d14f4a8a35a482e0d9bf,60edf0d45c28a315ad8056c2,,,,,,,,,,,,
"[""period""]",0,[0.3621999999880785],24,0,24,0,1,5f1b26dbd5dc042c9aedb7a4,Mężczyzna,19,2021-07-13_22h11.28.099,rantool2,2021.1.4,Win32,62.01165819,5f1b26dbd5dc042c9aedb7a4,60d9d14f4a8a35a482e0d9bf,60edf0d45c28a315ad8056c2,,,,,,,,,,,,
"[""comma""]",0,[0.25099999999999056],25,0,25,0,1,5f1b26dbd5dc042c9aedb7a4,Mężczyzna,19,2021-07-13_22h11.28.099,rantool2,2021.1.4,Win32,62.01165819,5f1b26dbd5dc042c9aedb7a4,60d9d14f4a8a35a482e0d9bf,60edf0d45c28a315ad8056c2,,,,,,,,,,,,
"[""comma""]",0,[0.2231999999880685],26,0,26,0,1,5f1b26dbd5dc042c9aedb7a4,Mężczyzna,19,2021-07-13_22h11.28.099,rantool2,2021.1.4,Win32,62.01165819,5f1b26dbd5dc042c9aedb7a4,60d9d14f4a8a35a482e0d9bf,60edf0d45c28a315ad8056c2,,,,,,,,,,,,
"[""comma""]",0,[0.25950000000000273],27,0,27,0,1,5f1b26dbd5dc042c9aedb7a4,Mężczyzna,19,2021-07-13_22h11.28.099,rantool2,2021.1.4,Win32,62.01165819,5f1b26dbd5dc042c9aedb7a4,60d9d14f4a8a35a482e0d9bf,60edf0d45c28a315ad8056c2,,,,,,,,,,,,
"[""period""]",0,[0.21800000000000352],28,0,28,0,1,5f1b26dbd5dc042c9aedb7a4,Mężczyzna,19,2021-07-13_22h11.28.099,rantool2,2021.1.4,Win32,62.01165819,5f1b26dbd5dc042c9aedb7a4,60d9d14f4a8a35a482e0d9bf,60edf0d45c28a315ad8056c2,,,,,,,,,,,,
"[""period""]",0,[0.25109999999403954],29,0,29,0,1,5f1b26dbd5dc042c9aedb7a4,Mężczyzna,19,2021-07-13_22h11.28.099,rantool2,2021.1.4,Win32,62.01165819,5f1b26dbd5dc042c9aedb7a4,60d9d14f4a8a35a482e0d9bf,60edf0d45c28a315ad8056c2,,,,,,,,,,,,
"[""comma""]",0,[0.22580000001192957],30,0,30,0,1,5f1b26dbd5dc042c9aedb7a4,Mężczyzna,19,2021-07-13_22h11.28.099,rantool2,2021.1.4,Win32,62.01165819,5f1b26dbd5dc042c9aedb7a4,60d9d14f4a8a35a482e0d9bf,60edf0d45c28a315ad8056c2,,,,,,,,,,,,
"[""comma""]",0,[0.2956999999880878],31,0,31,0,1,5f1b26dbd5dc042c9aedb7a4,Mężczyzna,19,2021-07-13_22h11.28.099,rantool2,2021.1.4,Win32,62.01165819,5f1b26dbd5dc042c9aedb7a4,60d9d14f4a8a35a482e0d9bf,60edf0d45c28a315ad8056c2,,,,,,,,,,,,
"[""period""]",0,[0.23359999999404124],32,0,32,0,1,5f1b26dbd5dc042c9aedb7a4,Mężczyzna,19,2021-07-13_22h11.28.099,rantool2,2021.1.4,Win32,62.01165819,5f1b26dbd5dc042c9aedb7a4,60d9d14f4a8a35a482e0d9bf,60edf0d45c28a315ad8056c2,,,,,,,,,,,,
"[""comma""]",0,[0.10740000000596694],33,0,33,0,1,5f1b26dbd5dc042c9aedb7a4,Mężczyzna,19,2021-07-13_22h11.28.099,rantool2,2021.1.4,Win32,62.01165819,5f1b26dbd5dc042c9aedb7a4,60d9d14f4a8a35a482e0d9bf,60edf0d45c28a315ad8056c2,,,,,,,,,,,,
"[""period""]",0,[0.21209999999403806],34,0,34,0,1,5f1b26dbd5dc042c9aedb7a4,Mężczyzna,19,2021-07-13_22h11.28.099,rantool2,2021.1.4,Win32,62.01165819,5f1b26dbd5dc042c9aedb7a4,60d9d14f4a8a35a482e0d9bf,60edf0d45c28a315ad8056c2,,,,,,,,,,,,
"[""comma""]",0,[0.23720000001789288],35,0,35,0,1,5f1b26dbd5dc042c9aedb7a4,Mężczyzna,19,2021-07-13_22h11.28.099,rantool2,2021.1.4,Win32,62.01165819,5f1b26dbd5dc042c9aedb7a4,60d9d14f4a8a35a482e0d9bf,60edf0d45c28a315ad8056c2,,,,,,,,,,,,
"[""period""]",0,[0.22219999998807793],36,0,36,0,1,5f1b26dbd5dc042c9aedb7a4,Mężczyzna,19,2021-07-13_22h11.28.099,rantool2,2021.1.4,Win32,62.01165819,5f1b26dbd5dc042c9aedb7a4,60d9d14f4a8a35a482e0d9bf,60edf0d45c28a315ad8056c2,,,,,,,,,,,,
"[""period""]",0,[0.22049999999998704],37,0,37,0,1,5f1b26dbd5dc042c9aedb7a4,Mężczyzna,19,2021-07-13_22h11.28.099,rantool2,2021.1.4,Win32,62.01165819,5f1b26dbd5dc042c9aedb7a4,60d9d14f4a8a35a482e0d9bf,60edf0d45c28a315ad8056c2,,,,,,,,,,,,
"[""comma""]",0,[0.2842999999821103],38,0,38,0,1,5f1b26dbd5dc042c9aedb7a4,Mężczyzna,19,2021-07-13_22h11.28.099,rantool2,2021.1.4,Win32,62.01165819,5f1b26dbd5dc042c9aedb7a4,60d9d14f4a8a35a482e0d9bf,60edf0d45c28a315ad8056c2,,,,,,,,,,,,
"[""period""]",0,[0.31749999999999545],39,0,39,0,1,5f1b26dbd5dc042c9aedb7a4,Mężczyzna,19,2021-07-13_22h11.28.099,rantool2,2021.1.4,Win32,62.01165819,5f1b26dbd5dc042c9aedb7a4,60d9d14f4a8a35a482e0d9bf,60edf0d45c28a315ad8056c2,,,,,,,,,,,,
"[""comma""]",0,[0.2725999999940285],40,0,40,0,1,5f1b26dbd5dc042c9aedb7a4,Mężczyzna,19,2021-07-13_22h11.28.099,rantool2,2021.1.4,Win32,62.01165819,5f1b26dbd5dc042c9aedb7a4,60d9d14f4a8a35a482e0d9bf,60edf0d45c28a315ad8056c2,,,,,,,,,,,,
"[""period""]",0,[0.28419999998807555],41,0,41,0,1,5f1b26dbd5dc042c9aedb7a4,Mężczyzna,19,2021-07-13_22h11.28.099,rantool2,2021.1.4,Win32,62.01165819,5f1b26dbd5dc042c9aedb7a4,60d9d14f4a8a35a482e0d9bf,60edf0d45c28a315ad8056c2,,,,,,,,,,,,
"[""comma""]",0,[0.25109999999403954],42,0,42,0,1,5f1b26dbd5dc042c9aedb7a4,Mężczyzna,19,2021-07-13_22h11.28.099,rantool2,2021.1.4,Win32,62.01165819,5f1b26dbd5dc042c9aedb7a4,60d9d14f4a8a35a482e0d9bf,60edf0d45c28a315ad8056c2,,,,,,,,,,,,
"[""comma""]",0,[0.12719999998807907],43,0,43,0,1,5f1b26dbd5dc042c9aedb7a4,Mężczyzna,19,2021-07-13_22h11.28.099,rantool2,2021.1.4,Win32,62.01165819,5f1b26dbd5dc042c9aedb7a4,60d9d14f4a8a35a482e0d9bf,60edf0d45c28a315ad8056c2,,,,,,,,,,,,
"[""comma"",""period""]",0,"[0.010699999988077025,1.9176999999880735]",44,0,44,0,1,5f1b26dbd5dc042c9aedb7a4,Mężczyzna,19,2021-07-13_22h11.28.099,rantool2,2021.1.4,Win32,62.01165819,5f1b26dbd5dc042c9aedb7a4,60d9d14f4a8a35a482e0d9bf,60edf0d45c28a315ad8056c2,,,,,,,,,,,,
"[""comma""]",0,[1.9173999999761548],45,0,45,0,1,5f1b26dbd5dc042c9aedb7a4,Mężczyzna,19,2021-07-13_22h11.28.099,rantool2,2021.1.4,Win32,62.01165819,5f1b26dbd5dc042c9aedb7a4,60d9d14f4a8a35a482e0d9bf,60edf0d45c28a315ad8056c2,,,,,,,,,,,,
"[""period""]",0,[1.9334999999999951],46,0,46,0,1,5f1b26dbd5dc042c9aedb7a4,Mężczyzna,19,2021-07-13_22h11.28.099,rantool2,2021.1.4,Win32,62.01165819,5f1b26dbd5dc042c9aedb7a4,60d9d14f4a8a35a482e0d9bf,60edf0d45c28a315ad8056c2,,,,,,,,,,,,
0,0,,47,0,47,0,1,5f1b26dbd5dc042c9aedb7a4,Mężczyzna,19,2021-07-13_22h11.28.099,rantool2,2021.1.4,Win32,62.01165819,5f1b26dbd5dc042c9aedb7a4,60d9d14f4a8a35a482e0d9bf,60edf0d45c28a315ad8056c2,,,,,,,,,,,,
"[""period""]",0,[0.06770000001789356],48,0,48,0,1,5f1b26dbd5dc042c9aedb7a4,Mężczyzna,19,2021-07-13_22h11.28.099,rantool2,2021.1.4,Win32,62.01165819,5f1b26dbd5dc042c9aedb7a4,60d9d14f4a8a35a482e0d9bf,60edf0d45c28a315ad8056c2,,,,,,,,,,,,
"[""period""]",0,[0.28600000000000136],49,0,49,0,1,5f1b26dbd5dc042c9aedb7a4,Mężczyzna,19,2021-07-13_22h11.28.099,rantool2,2021.1.4,Win32,62.01165819,5f1b26dbd5dc042c9aedb7a4,60d9d14f4a8a35a482e0d9bf,60edf0d45c28a315ad8056c2,,,,,,,,,,,,
"[""comma""]",0,[0.2759000000059615],50,0,50,0,1,5f1b26dbd5dc042c9aedb7a4,Mężczyzna,19,2021-07-13_22h11.28.099,rantool2,2021.1.4,Win32,62.01165819,5f1b26dbd5dc042c9aedb7a4,60d9d14f4a8a35a482e0d9bf,60edf0d45c28a315ad8056c2,,,,,,,,,,,,
"[""period""]",0,[0.2091999999880727],51,0,51,0,1,5f1b26dbd5dc042c9aedb7a4,Mężczyzna,19,2021-07-13_22h11.28.099,rantool2,2021.1.4,Win32,62.01165819,5f1b26dbd5dc042c9aedb7a4,60d9d14f4a8a35a482e0d9bf,60edf0d45c28a315ad8056c2,,,,,,,,,,,,
"[""period""]",0,[0.2945999999940341],52,0,52,0,1,5f1b26dbd5dc042c9aedb7a4,Mężczyzna,19,2021-07-13_22h11.28.099,rantool2,2021.1.4,Win32,62.01165819,5f1b26dbd5dc042c9aedb7a4,60d9d14f4a8a35a482e0d9bf,60edf0d45c28a315ad8056c2,,,,,,,,,,,,
"[""comma""]",0,[0.3185000000000002],53,0,53,0,1,5f1b26dbd5dc042c9aedb7a4,Mężczyzna,19,2021-07-13_22h11.28.099,rantool2,2021.1.4,Win32,62.01165819,5f1b26dbd5dc042c9aedb7a4,60d9d14f4a8a35a482e0d9bf,60edf0d45c28a315ad8056c2,,,,,,,,,,,,
"[""comma""]",0,[0.3105999999940394],54,0,54,0,1,5f1b26dbd5dc042c9aedb7a4,Mężczyzna,19,2021-07-13_22h11.28.099,rantool2,2021.1.4,Win32,62.01165819,5f1b26dbd5dc042c9aedb7a4,60d9d14f4a8a35a482e0d9bf,60edf0d45c28a315ad8056c2,,,,,,,,,,,,
"[""comma""]",0,[0.2880000000000109],55,0,55,0,1,5f1b26dbd5dc042c9aedb7a4,Mężczyzna,19,2021-07-13_22h11.28.099,rantool2,2021.1.4,Win32,62.01165819,5f1b26dbd5dc042c9aedb7a4,60d9d14f4a8a35a482e0d9bf,60edf0d45c28a315ad8056c2,,,,,,,,,,,,
"[""comma""]",0,[0.2711000000238357],56,0,56,0,1,5f1b26dbd5dc042c9aedb7a4,Mężczyzna,19,2021-07-13_22h11.28.099,rantool2,2021.1.4,Win32,62.01165819,5f1b26dbd5dc042c9aedb7a4,60d9d14f4a8a35a482e0d9bf,60edf0d45c28a315ad8056c2,,,,,,,,,,,,
"[""period""]",0,[0.2677999999821168],57,0,57,0,1,5f1b26dbd5dc042c9aedb7a4,Mężczyzna,19,2021-07-13_22h11.28.099,rantool2,2021.1.4,Win32,62.01165819,5f1b26dbd5dc042c9aedb7a4,60d9d14f4a8a35a482e0d9bf,60edf0d45c28a315ad8056c2,,,,,,,,,,,,
"[""comma""]",0,[0.2040999999940425],58,0,58,0,1,5f1b26dbd5dc042c9aedb7a4,Mężczyzna,19,2021-07-13_22h11.28.099,rantool2,2021.1.4,Win32,62.01165819,5f1b26dbd5dc042c9aedb7a4,60d9d14f4a8a35a482e0d9bf,60edf0d45c28a315ad8056c2,,,,,,,,,,,,
"[""period""]",0,[0.22040000000595228],59,0,59,0,1,5f1b26dbd5dc042c9aedb7a4,Mężczyzna,19,2021-07-13_22h11.28.099,rantool2,2021.1.4,Win32,62.01165819,5f1b26dbd5dc042c9aedb7a4,60d9d14f4a8a35a482e0d9bf,60edf0d45c28a315ad8056c2,,,,,,,,,,,,
"[""comma""]",0,[0.18920000001787685],60,0,60,0,1,5f1b26dbd5dc042c9aedb7a4,Mężczyzna,19,2021-07-13_22h11.28.099,rantool2,2021.1.4,Win32,62.01165819,5f1b26dbd5dc042c9aedb7a4,60d9d14f4a8a35a482e0d9bf,60edf0d45c28a315ad8056c2,,,,,,,,,,,,
"[""period""]",0,[0.21750000000000114],61,0,61,0,1,5f1b26dbd5dc042c9aedb7a4,Mężczyzna,19,2021-07-13_22h11.28.099,rantool2,2021.1.4,Win32,62.01165819,5f1b26dbd5dc042c9aedb7a4,60d9d14f4a8a35a482e0d9bf,60edf0d45c28a315ad8056c2,,,,,,,,,,,,
"[""comma""]",0,[0.2675000000000125],62,0,62,0,1,5f1b26dbd5dc042c9aedb7a4,Mężczyzna,19,2021-07-13_22h11.28.099,rantool2,2021.1.4,Win32,62.01165819,5f1b26dbd5dc042c9aedb7a4,60d9d14f4a8a35a482e0d9bf,60edf0d45c28a315ad8056c2,,,,,,,,,,,,
"[""period""]",0,[0.24549999999999272],63,0,63,0,1,5f1b26dbd5dc042c9aedb7a4,Mężczyzna,19,2021-07-13_22h11.28.099,rantool2,2021.1.4,Win32,62.01165819,5f1b26dbd5dc042c9aedb7a4,60d9d14f4a8a35a482e0d9bf,60edf0d45c28a315ad8056c2,,,,,,,,,,,,
"[""period""]",0,[0.23510000002383435],64,0,64,0,1,5f1b26dbd5dc042c9aedb7a4,Mężczyzna,19,2021-07-13_22h11.28.099,rantool2,2021.1.4,Win32,62.01165819,5f1b26dbd5dc042c9aedb7a4,60d9d14f4a8a35a482e0d9bf,60edf0d45c28a315ad8056c2,,,,,,,,,,,,
"[""period""]",0,[0.23910000002385345],65,0,65,0,1,5f1b26dbd5dc042c9aedb7a4,Mężczyzna,19,2021-07-13_22h11.28.099,rantool2,2021.1.4,Win32,62.01165819,5f1b26dbd5dc042c9aedb7a4,60d9d14f4a8a35a482e0d9bf,60edf0d45c28a315ad8056c2,,,,,,,,,,,,
"[""period""]",0,[0.29379999998212725],66,0,66,0,1,5f1b26dbd5dc042c9aedb7a4,Mężczyzna,19,2021-07-13_22h11.28.099,rantool2,2021.1.4,Win32,62.01165819,5f1b26dbd5dc042c9aedb7a4,60d9d14f4a8a35a482e0d9bf,60edf0d45c28a315ad8056c2,,,,,,,,,,,,
"[""comma""]",0,[0.23850000000001614],67,0,67,0,1,5f1b26dbd5dc042c9aedb7a4,Mężczyzna,19,2021-07-13_22h11.28.099,rantool2,2021.1.4,Win32,62.01165819,5f1b26dbd5dc042c9aedb7a4,60d9d14f4a8a35a482e0d9bf,60edf0d45c28a315ad8056c2,,,,,,,,,,,,
"[""period""]",0,[0.25610000002384936],68,0,68,0,1,5f1b26dbd5dc042c9aedb7a4,Mężczyzna,19,2021-07-13_22h11.28.099,rantool2,2021.1.4,Win32,62.01165819,5f1b26dbd5dc042c9aedb7a4,60d9d14f4a8a35a482e0d9bf,60edf0d45c28a315ad8056c2,,,,,,,,,,,,
"[""period""]",0,[0.21259999999404045],69,0,69,0,1,5f1b26dbd5dc042c9aedb7a4,Mężczyzna,19,2021-07-13_22h11.28.099,rantool2,2021.1.4,Win32,62.01165819,5f1b26dbd5dc042c9aedb7a4,60d9d14f4a8a35a482e0d9bf,60edf0d45c28a315ad8056c2,,,,,,,,,,,,
"[""period""]",0,[0.25690000000597024],70,0,70,0,1,5f1b26dbd5dc042c9aedb7a4,Mężczyzna,19,2021-07-13_22h11.28.099,rantool2,2021.1.4,Win32,62.01165819,5f1b26dbd5dc042c9aedb7a4,60d9d14f4a8a35a482e0d9bf,60edf0d45c28a315ad8056c2,,,,,,,,,,,,
"[""comma""]",0,[0.2378000000119016],71,0,71,0,1,5f1b26dbd5dc042c9aedb7a4,Mężczyzna,19,2021-07-13_22h11.28.099,rantool2,2021.1.4,Win32,62.01165819,5f1b26dbd5dc042c9aedb7a4,60d9d14f4a8a35a482e0d9bf,60edf0d45c28a315ad8056c2,,,,,,,,,,,,
"[""comma""]",0,[0.23819999998806907],72,0,72,0,1,5f1b26dbd5dc042c9aedb7a4,Mężczyzna,19,2021-07-13_22h11.28.099,rantool2,2021.1.4,Win32,62.01165819,5f1b26dbd5dc042c9aedb7a4,60d9d14f4a8a35a482e0d9bf,60edf0d45c28a315ad8056c2,,,,,,,,,,,,
"[""period""]",0,[0.25070000001787207],73,0,73,0,1,5f1b26dbd5dc042c9aedb7a4,Mężczyzna,19,2021-07-13_22h11.28.099,rantool2,2021.1.4,Win32,62.01165819,5f1b26dbd5dc042c9aedb7a4,60d9d14f4a8a35a482e0d9bf,60edf0d45c28a315ad8056c2,,,,,,,,,,,,
"[""period""]",0,[0.22100000000000364],74,0,74,0,1,5f1b26dbd5dc042c9aedb7a4,Mężczyzna,19,2021-07-13_22h11.28.099,rantool2,2021.1.4,Win32,62.01165819,5f1b26dbd5dc042c9aedb7a4,60d9d14f4a8a35a482e0d9bf,60edf0d45c28a315ad8056c2,,,,,,,,,,,,
"[""comma""]",0,[0.13410000002383526],75,0,75,0,1,5f1b26dbd5dc042c9aedb7a4,Mężczyzna,19,2021-07-13_22h11.28.099,rantool2,2021.1.4,Win32,62.01165819,5f1b26dbd5dc042c9aedb7a4,60d9d14f4a8a35a482e0d9bf,60edf0d45c28a315ad8056c2,,,,,,,,,,,,
"[""period""]",0,[0.000599999994051359],76,0,76,0,1,5f1b26dbd5dc042c9aedb7a4,Mężczyzna,19,2021-07-13_22h11.28.099,rantool2,2021.1.4,Win32,62.01165819,5f1b26dbd5dc042c9aedb7a4,60d9d14f4a8a35a482e0d9bf,60edf0d45c28a315ad8056c2,,,,,,,,,,,,
"[""comma""]",0,[0.21159999999403567],77,0,77,0,1,5f1b26dbd5dc042c9aedb7a4,Mężczyzna,19,2021-07-13_22h11.28.099,rantool2,2021.1.4,Win32,62.01165819,5f1b26dbd5dc042c9aedb7a4,60d9d14f4a8a35a482e0d9bf,60edf0d45c28a315ad8056c2,,,,,,,,,,,,
"[""comma""]",0,[0.3209000000059632],78,0,78,0,1,5f1b26dbd5dc042c9aedb7a4,Mężczyzna,19,2021-07-13_22h11.28.099,rantool2,2021.1.4,Win32,62.01165819,5f1b26dbd5dc042c9aedb7a4,60d9d14f4a8a35a482e0d9bf,60edf0d45c28a315ad8056c2,,,,,,,,,,,,
"[""comma""]",0,[0.2752999999821384],79,0,79,0,1,5f1b26dbd5dc042c9aedb7a4,Mężczyzna,19,2021-07-13_22h11.28.099,rantool2,2021.1.4,Win32,62.01165819,5f1b26dbd5dc042c9aedb7a4,60d9d14f4a8a35a482e0d9bf,60edf0d45c28a315ad8056c2,,,,,,,,,,,,
"[""period""]",0,[0.3012999999821204],80,0,80,0,1,5f1b26dbd5dc042c9aedb7a4,Mężczyzna,19,2021-07-13_22h11.28.099,rantool2,2021.1.4,Win32,62.01165819,5f1b26dbd5dc042c9aedb7a4,60d9d14f4a8a35a482e0d9bf,60edf0d45c28a315ad8056c2,,,,,,,,,,,,
"[""comma""]",0,[0.2912000000178807],81,0,81,0,1,5f1b26dbd5dc042c9aedb7a4,Mężczyzna,19,2021-07-13_22h11.28.099,rantool2,2021.1.4,Win32,62.01165819,5f1b26dbd5dc042c9aedb7a4,60d9d14f4a8a35a482e0d9bf,60edf0d45c28a315ad8056c2,,,,,,,,,,,,
"[""period""]",0,[0.2913999999761643],82,0,82,0,1,5f1b26dbd5dc042c9aedb7a4,Mężczyzna,19,2021-07-13_22h11.28.099,rantool2,2021.1.4,Win32,62.01165819,5f1b26dbd5dc042c9aedb7a4,60d9d14f4a8a35a482e0d9bf,60edf0d45c28a315ad8056c2,,,,,,,,,,,,
"[""period""]",0,[0.23659999999404135],83,0,83,0,1,5f1b26dbd5dc042c9aedb7a4,Mężczyzna,19,2021-07-13_22h11.28.099,rantool2,2021.1.4,Win32,62.01165819,5f1b26dbd5dc042c9aedb7a4,60d9d14f4a8a35a482e0d9bf,60edf0d45c28a315ad8056c2,,,,,,,,,,,,
"[""comma""]",0,[0.3064999999999998],84,0,84,0,1,5f1b26dbd5dc042c9aedb7a4,Mężczyzna,19,2021-07-13_22h11.28.099,rantool2,2021.1.4,Win32,62.01165819,5f1b26dbd5dc042c9aedb7a4,60d9d14f4a8a35a482e0d9bf,60edf0d45c28a315ad8056c2,,,,,,,,,,,,
"[""period""]",0,[0.2842999999821245],85,0,85,0,1,5f1b26dbd5dc042c9aedb7a4,Mężczyzna,19,2021-07-13_22h11.28.099,rantool2,2021.1.4,Win32,62.01165819,5f1b26dbd5dc042c9aedb7a4,60d9d14f4a8a35a482e0d9bf,60edf0d45c28a315ad8056c2,,,,,,,,,,,,
"[""comma""]",0,[0.2849999999999966],86,0,86,0,1,5f1b26dbd5dc042c9aedb7a4,Mężczyzna,19,2021-07-13_22h11.28.099,rantool2,2021.1.4,Win32,62.01165819,5f1b26dbd5dc042c9aedb7a4,60d9d14f4a8a35a482e0d9bf,60edf0d45c28a315ad8056c2,,,,,,,,,,,,
"[""period""]",0,[0.31009999999403703],87,0,87,0,1,5f1b26dbd5dc042c9aedb7a4,Mężczyzna,19,2021-07-13_22h11.28.099,rantool2,2021.1.4,Win32,62.01165819,5f1b26dbd5dc042c9aedb7a4,60d9d14f4a8a35a482e0d9bf,60edf0d45c28a315ad8056c2,,,,,,,,,,,,
"[""comma""]",0,[0.40149999999999864],88,0,88,0,1,5f1b26dbd5dc042c9aedb7a4,Mężczyzna,19,2021-07-13_22h11.28.099,rantool2,2021.1.4,Win32,62.01165819,5f1b26dbd5dc042c9aedb7a4,60d9d14f4a8a35a482e0d9bf,60edf0d45c28a315ad8056c2,,,,,,,,,,,,
"[""period""]",0,[0.32940000000596115],89,0,89,0,1,5f1b26dbd5dc042c9aedb7a4,Mężczyzna,19,2021-07-13_22h11.28.099,rantool2,2021.1.4,Win32,62.01165819,5f1b26dbd5dc042c9aedb7a4,60d9d14f4a8a35a482e0d9bf,60edf0d45c28a315ad8056c2,,,,,,,,,,,,
"[""comma""]",0,[0.33380000001193366],90,0,90,0,1,5f1b26dbd5dc042c9aedb7a4,Mężczyzna,19,2021-07-13_22h11.28.099,rantool2,2021.1.4,Win32,62.01165819,5f1b26dbd5dc042c9aedb7a4,60d9d14f4a8a35a482e0d9bf,60edf0d45c28a315ad8056c2,,,,,,,,,,,,
"[""period""]",0,[0.5076999999880911],91,0,91,0,1,5f1b26dbd5dc042c9aedb7a4,Mężczyzna,19,2021-07-13_22h11.28.099,rantool2,2021.1.4,Win32,62.01165819,5f1b26dbd5dc042c9aedb7a4,60d9d14f4a8a35a482e0d9bf,60edf0d45c28a315ad8056c2,,,,,,,,,,,,
"[""comma""]",0,[0.417400000005955],92,0,92,0,1,5f1b26dbd5dc042c9aedb7a4,Mężczyzna,19,2021-07-13_22h11.28.099,rantool2,2021.1.4,Win32,62.01165819,5f1b26dbd5dc042c9aedb7a4,60d9d14f4a8a35a482e0d9bf,60edf0d45c28a315ad8056c2,,,,,,,,,,,,
"[""period""]",0,[0.4675999999940359],93,0,93,0,1,5f1b26dbd5dc042c9aedb7a4,Mężczyzna,19,2021-07-13_22h11.28.099,rantool2,2021.1.4,Win32,62.01165819,5f1b26dbd5dc042c9aedb7a4,60d9d14f4a8a35a482e0d9bf,60edf0d45c28a315ad8056c2,,,,,,,,,,,,
"[""comma""]",0,[0.4836999999880902],94,0,94,0,1,5f1b26dbd5dc042c9aedb7a4,Mężczyzna,19,2021-07-13_22h11.28.099,rantool2,2021.1.4,Win32,62.01165819,5f1b26dbd5dc042c9aedb7a4,60d9d14f4a8a35a482e0d9bf,60edf0d45c28a315ad8056c2,,,,,,,,,,,,
"[""period""]",0,[0.5342000000178757],95,0,95,0,1,5f1b26dbd5dc042c9aedb7a4,Mężczyzna,19,2021-07-13_22h11.28.099,rantool2,2021.1.4,Win32,62.01165819,5f1b26dbd5dc042c9aedb7a4,60d9d14f4a8a35a482e0d9bf,60edf0d45c28a315ad8056c2,,,,,,,,,,,,
"[""comma""]",0,[0.5674000000059607],96,0,96,0,1,5f1b26dbd5dc042c9aedb7a4,Mężczyzna,19,2021-07-13_22h11.28.099,rantool2,2021.1.4,Win32,62.01165819,5f1b26dbd5dc042c9aedb7a4,60d9d14f4a8a35a482e0d9bf,60edf0d45c28a315ad8056c2,,,,,,,,,,,,
"[""period""]",0,[0.4179000000059716],97,0,97,0,1,5f1b26dbd5dc042c9aedb7a4,Mężczyzna,19,2021-07-13_22h11.28.099,rantool2,2021.1.4,Win32,62.01165819,5f1b26dbd5dc042c9aedb7a4,60d9d14f4a8a35a482e0d9bf,60edf0d45c28a315ad8056c2,,,,,,,,,,,,
"[""comma""]",0,[0.3276999999880843],98,0,98,0,1,5f1b26dbd5dc042c9aedb7a4,Mężczyzna,19,2021-07-13_22h11.28.099,rantool2,2021.1.4,Win32,62.01165819,5f1b26dbd5dc042c9aedb7a4,60d9d14f4a8a35a482e0d9bf,60edf0d45c28a315ad8056c2,,,,,,,,,,,,
"[""period""]",0,[0.327800000011905],99,0,99,0,1,5f1b26dbd5dc042c9aedb7a4,Mężczyzna,19,2021-07-13_22h11.28.099,rantool2,2021.1.4,Win32,62.01165819,5f1b26dbd5dc042c9aedb7a4,60d9d14f4a8a35a482e0d9bf,60edf0d45c28a315ad8056c2,,,,,,,,,,,,
"[""comma""]",0,[0.2833000000119341],100,0,100,0,1,5f1b26dbd5dc042c9aedb7a4,Mężczyzna,19,2021-07-13_22h11.28.099,rantool2,2021.1.4,Win32,62.01165819,5f1b26dbd5dc042c9aedb7a4,60d9d14f4a8a35a482e0d9bf,60edf0d45c28a315ad8056c2,,,,,,,,,,,,
"[""period""]",0,[0.28480000001192707],101,0,101,0,1,5f1b26dbd5dc042c9aedb7a4,Mężczyzna,19,2021-07-13_22h11.28.099,rantool2,2021.1.4,Win32,62.01165819,5f1b26dbd5dc042c9aedb7a4,60d9d14f4a8a35a482e0d9bf,60edf0d45c28a315ad8056c2,,,,,,,,,,,,
"[""comma""]",0,[0.2511000000238539],102,0,102,0,1,5f1b26dbd5dc042c9aedb7a4,Mężczyzna,19,2021-07-13_22h11.28.099,rantool2,2021.1.4,Win32,62.01165819,5f1b26dbd5dc042c9aedb7a4,60d9d14f4a8a35a482e0d9bf,60edf0d45c28a315ad8056c2,,,,,,,,,,,,
"[""period""]",0,[0.23619999998805952],103,0,103,0,1,5f1b26dbd5dc042c9aedb7a4,Mężczyzna,19,2021-07-13_22h11.28.099,rantool2,2021.1.4,Win32,62.01165819,5f1b26dbd5dc042c9aedb7a4,60d9d14f4a8a35a482e0d9bf,60edf0d45c28a315ad8056c2,,,,,,,,,,,,
"[""comma""]",0,[0.15280000001192207],104,0,104,0,1,5f1b26dbd5dc042c9aedb7a4,Mężczyzna,19,2021-07-13_22h11.28.099,rantool2,2021.1.4,Win32,62.01165819,5f1b26dbd5dc042c9aedb7a4,60d9d14f4a8a35a482e0d9bf,60edf0d45c28a315ad8056c2,,,,,,,,,,,,
"[""period""]",0,[0.20119999998809135],105,0,105,0,1,5f1b26dbd5dc042c9aedb7a4,Mężczyzna,19,2021-07-13_22h11.28.099,rantool2,2021.1.4,Win32,62.01165819,5f1b26dbd5dc042c9aedb7a4,60d9d14f4a8a35a482e0d9bf,60edf0d45c28a315ad8056c2,,,,,,,,,,,,
"[""period""]",0,[0.28970000001785934],106,0,106,0,1,5f1b26dbd5dc042c9aedb7a4,Mężczyzna,19,2021-07-13_22h11.28.099,rantool2,2021.1.4,Win32,62.01165819,5f1b26dbd5dc042c9aedb7a4,60d9d14f4a8a35a482e0d9bf,60edf0d45c28a315ad8056c2,,,,,,,,,,,,
"[""comma""]",0,[0.2524999999999977],107,0,107,0,1,5f1b26dbd5dc042c9aedb7a4,Mężczyzna,19,2021-07-13_22h11.28.099,rantool2,2021.1.4,Win32,62.01165819,5f1b26dbd5dc042c9aedb7a4,60d9d14f4a8a35a482e0d9bf,60edf0d45c28a315ad8056c2,,,,,,,,,,,,
"[""period""]",0,[0.23690000000596],108,0,108,0,1,5f1b26dbd5dc042c9aedb7a4,Mężczyzna,19,2021-07-13_22h11.28.099,rantool2,2021.1.4,Win32,62.01165819,5f1b26dbd5dc042c9aedb7a4,60d9d14f4a8a35a482e0d9bf,60edf0d45c28a315ad8056c2,,,,,,,,,,,,
"[""period""]",0,[0.20110000002384254],109,0,109,0,1,5f1b26dbd5dc042c9aedb7a4,Mężczyzna,19,2021-07-13_22h11.28.099,rantool2,2021.1.4,Win32,62.01165819,5f1b26dbd5dc042c9aedb7a4,60d9d14f4a8a35a482e0d9bf,60edf0d45c28a315ad8056c2,,,,,,,,,,,,
"[""comma""]",0,[0.23739999997616223],110,0,110,0,1,5f1b26dbd5dc042c9aedb7a4,Mężczyzna,19,2021-07-13_22h11.28.099,rantool2,2021.1.4,Win32,62.01165819,5f1b26dbd5dc042c9aedb7a4,60d9d14f4a8a35a482e0d9bf,60edf0d45c28a315ad8056c2,,,,,,,,,,,,
"[""comma""]",0,[0.23409999999404363],111,0,111,0,1,5f1b26dbd5dc042c9aedb7a4,Mężczyzna,19,2021-07-13_22h11.28.099,rantool2,2021.1.4,Win32,62.01165819,5f1b26dbd5dc042c9aedb7a4,60d9d14f4a8a35a482e0d9bf,60edf0d45c28a315ad8056c2,,,,,,,,,,,,
"[""comma""]",0,[0.3044999999999902],112,0,112,0,1,5f1b26dbd5dc042c9aedb7a4,Mężczyzna,19,2021-07-13_22h11.28.099,rantool2,2021.1.4,Win32,62.01165819,5f1b26dbd5dc042c9aedb7a4,60d9d14f4a8a35a482e0d9bf,60edf0d45c28a315ad8056c2,,,,,,,,,,,,
"[""comma""]",0,[0.38979999998210246],113,0,113,0,1,5f1b26dbd5dc042c9aedb7a4,Mężczyzna,19,2021-07-13_22h11.28.099,rantool2,2021.1.4,Win32,62.01165819,5f1b26dbd5dc042c9aedb7a4,60d9d14f4a8a35a482e0d9bf,60edf0d45c28a315ad8056c2,,,,,,,,,,,,
"[""period""]",0,[0.34479999998211497],114,0,114,0,1,5f1b26dbd5dc042c9aedb7a4,Mężczyzna,19,2021-07-13_22h11.28.099,rantool2,2021.1.4,Win32,62.01165819,5f1b26dbd5dc042c9aedb7a4,60d9d14f4a8a35a482e0d9bf,60edf0d45c28a315ad8056c2,,,,,,,,,,,,
"[""comma"",""period""]",0,"[0.3337000000178705,0.8763000000119234]",115,0,115,0,1,5f1b26dbd5dc042c9aedb7a4,Mężczyzna,19,2021-07-13_22h11.28.099,rantool2,2021.1.4,Win32,62.01165819,5f1b26dbd5dc042c9aedb7a4,60d9d14f4a8a35a482e0d9bf,60edf0d45c28a315ad8056c2,,,,,,,,,,,,
"[""period""]",0,[0.28700000000000614],116,0,116,0,1,5f1b26dbd5dc042c9aedb7a4,Mężczyzna,19,2021-07-13_22h11.28.099,rantool2,2021.1.4,Win32,62.01165819,5f1b26dbd5dc042c9aedb7a4,60d9d14f4a8a35a482e0d9bf,60edf0d45c28a315ad8056c2,,,,,,,,,,,,
"[""period""]",0,[0.28579999998211747],117,0,117,0,1,5f1b26dbd5dc042c9aedb7a4,Mężczyzna,19,2021-07-13_22h11.28.099,rantool2,2021.1.4,Win32,62.01165819,5f1b26dbd5dc042c9aedb7a4,60d9d14f4a8a35a482e0d9bf,60edf0d45c28a315ad8056c2,,,,,,,,,,,,
"[""period""]",0,[0.2688000000119075],118,0,118,0,1,5f1b26dbd5dc042c9aedb7a4,Mężczyzna,19,2021-07-13_22h11.28.099,rantool2,2021.1.4,Win32,62.01165819,5f1b26dbd5dc042c9aedb7a4,60d9d14f4a8a35a482e0d9bf,60edf0d45c28a315ad8056c2,,,,,,,,,,,,
"[""period""]",0,[0.3419000000059782],119,0,119,0,1,5f1b26dbd5dc042c9aedb7a4,Mężczyzna,19,2021-07-13_22h11.28.099,rantool2,2021.1.4,Win32,62.01165819,5f1b26dbd5dc042c9aedb7a4,60d9d14f4a8a35a482e0d9bf,60edf0d45c28a315ad8056c2,,,,,,,,,,,,
,,,,,,,,5f1b26dbd5dc042c9aedb7a4,Mężczyzna,19,2021-07-13_22h11.28.099,rantool2,2021.1.4,Win32,62.01165819,5f1b26dbd5dc042c9aedb7a4,60d9d14f4a8a35a482e0d9bf,60edf0d45c28a315ad8056c2,f,2.1953,0,0,0,5,1,OOORORO,OOORORR,20.87963819,21.9921709,series_1
,,,,,,,,5f1b26dbd5dc042c9aedb7a4,Mężczyzna,19,2021-07-13_22h11.28.099,rantool2,2021.1.4,Win32,62.01165819,5f1b26dbd5dc042c9aedb7a4,60d9d14f4a8a35a482e0d9bf,60edf0d45c28a315ad8056c2,f,2.6423,0,1,1,40,1,ROROOOO,ROROOOR,20.87963819,21.37121559,series_1
,,,,,,,,5f1b26dbd5dc042c9aedb7a4,Mężczyzna,19,2021-07-13_22h11.28.099,rantool2,2021.1.4,Win32,62.01165819,5f1b26dbd5dc042c9aedb7a4,60d9d14f4a8a35a482e0d9bf,60edf0d45c28a315ad8056c2,j,1.3755,0,2,2,61,1,RRRRORO,RRRRORR,21.81333602,21.17347734,series_0
,,,,,,,,5f1b26dbd5dc042c9aedb7a4,Mężczyzna,19,2021-07-13_22h11.28.099,rantool2,2021.1.4,Win32,62.01165819,5f1b26dbd5dc042c9aedb7a4,60d9d14f4a8a35a482e0d9bf,60edf0d45c28a315ad8056c2,f,0.9201,0,3,3,36,1,ROOROOO,ROOROOR,21.07991943,20.9984461,series_0
,,,,,,,,5f1b26dbd5dc042c9aedb7a4,Mężczyzna,19,2021-07-13_22h11.28.099,rantool2,2021.1.4,Win32,62.01165819,5f1b26dbd5dc042c9aedb7a4,60d9d14f4a8a35a482e0d9bf,60edf0d45c28a315ad8056c2,f,2.0072,0,4,4,7,1,OOORRRO,OOORRRR,21.6194508,21.899017,series_1
,,,,,,,,5f1b26dbd5dc042c9aedb7a4,Mężczyzna,19,2021-07-13_22h11.28.099,rantool2,2021.1.4,Win32,62.01165819,5f1b26dbd5dc042c9aedb7a4,60d9d14f4a8a35a482e0d9bf,60edf0d45c28a315ad8056c2,f,1.0008,0,5,5,63,1,RRRRRRO,RRRRRRR,21.35278725,19.62521613,series_0
,,,,,,,,5f1b26dbd5dc042c9aedb7a4,Mężczyzna,19,2021-07-13_22h11.28.099,rantool2,2021.1.4,Win32,62.01165819,5f1b26dbd5dc042c9aedb7a4,60d9d14f4a8a35a482e0d9bf,60edf0d45c28a315ad8056c2,j,1.6345,0,6,6,52,1,RROROOO,RROROOR,22.18365867,22.11097995,series_0
,,,,,,,,5f1b26dbd5dc042c9aedb7a4,Mężczyzna,19,2021-07-13_22h11.28.099,rantool2,2021.1.4,Win32,62.01165819,5f1b26dbd5dc042c9aedb7a4,60d9d14f4a8a35a482e0d9bf,60edf0d45c28a315ad8056c2,f,2.2016,0,7,7,0,1,OOOOOOO,OOOOOOR,18.52739004,19.62521613,series_1
,,,,,,,,5f1b26dbd5dc042c9aedb7a4,Mężczyzna,19,2021-07-13_22h11.28.099,rantool2,2021.1.4,Win32,62.01165819,5f1b26dbd5dc042c9aedb7a4,60d9d14f4a8a35a482e0d9bf,60edf0d45c28a315ad8056c2,f,2.5724,0,8,8,46,1,RORRROO,RORRROR,22.00300695,21.24781509,series_0
,,,,,,,,5f1b26dbd5dc042c9aedb7a4,Mężczyzna,19,2021-07-13_22h11.28.099,rantool2,2021.1.4,Win32,62.01165819,5f1b26dbd5dc042c9aedb7a4,60d9d14f4a8a35a482e0d9bf,60edf0d45c28a315ad8056c2,j,1.4103,0,9,9,22,1,ORORROO,ORORROR,22.02732763,21.57657071,series_0
,,,,,,,,5f1b26dbd5dc042c9aedb7a4,Mężczyzna,19,2021-07-13_22h11.28.099,rantool2,2021.1.4,Win32,62.01165819,5f1b26dbd5dc042c9aedb7a4,60d9d14f4a8a35a482e0d9bf,60edf0d45c28a315ad8056c2,j,1.5886,0,10,10,11,1,OORORRO,OORORRR,22.18365867,22.6797523,series_1
,,,,,,,,5f1b26dbd5dc042c9aedb7a4,Mężczyzna,19,2021-07-13_22h11.28.099,rantool2,2021.1.4,Win32,62.01165819,5f1b26dbd5dc042c9aedb7a4,60d9d14f4a8a35a482e0d9bf,60edf0d45c28a315ad8056c2,f,1.7444,0,11,11,13,1,OORRORO,OORRORR,21.66733484,22.11181017,series_1
,,,,,,,,5f1b26dbd5dc042c9aedb7a4,Mężczyzna,19,2021-07-13_22h11.28.099,rantool2,2021.1.4,Win32,62.01165819,5f1b26dbd5dc042c9aedb7a4,60d9d14f4a8a35a482e0d9bf,60edf0d45c28a315ad8056c2,j,1.3172,0,12,12,31,1,ORRRRRO,ORRRRRR,22.16413392,20.74050628,series_0
,,,,,,,,5f1b26dbd5dc042c9aedb7a4,Mężczyzna,19,2021-07-13_22h11.28.099,rantool2,2021.1.4,Win32,62.01165819,5f1b26dbd5dc042c9aedb7a4,60d9d14f4a8a35a482e0d9bf,60edf0d45c28a315ad8056c2,j,2.8669,0,13,13,58,1,RRROROO,RRROROR,22.1285618,21.37121559,series_0
,,,,,,,,5f1b26dbd5dc042c9aedb7a4,Mężczyzna,19,2021-07-13_22h11.28.099,rantool2,2021.1.4,Win32,62.01165819,5f1b26dbd5dc042c9aedb7a4,60d9d14f4a8a35a482e0d9bf,60edf0d45c28a315ad8056c2,j,3.0172,0,14,14,59,1,RRRORRO,RRRORRR,21.56657303,20.89823192,series_0
,,,,,,,,5f1b26dbd5dc042c9aedb7a4,Mężczyzna,19,2021-07-13_22h11.28.099,rantool2,2021.1.4,Win32,62.01165819,5f1b26dbd5dc042c9aedb7a4,60d9d14f4a8a35a482e0d9bf,60edf0d45c28a315ad8056c2,f,2.9504,0,15,15,49,1,RROOORO,RROOORR,21.76276513,22.53364006,series_1
,,,,,,,,5f1b26dbd5dc042c9aedb7a4,Mężczyzna,19,2021-07-13_22h11.28.099,rantool2,2021.1.4,Win32,62.01165819,5f1b26dbd5dc042c9aedb7a4,60d9d14f4a8a35a482e0d9bf,60edf0d45c28a315ad8056c2,j,2.9115,0,16,16,6,1,OOORROO,OOORROR,21.12383932,21.38562617,series_1
,,,,,,,,5f1b26dbd5dc042c9aedb7a4,Mężczyzna,19,2021-07-13_22h11.28.099,rantool2,2021.1.4,Win32,62.01165819,5f1b26dbd5dc042c9aedb7a4,60d9d14f4a8a35a482e0d9bf,60edf0d45c28a315ad8056c2,f,2.4336,0,17,17,54,1,RRORROO,RRORROR,21.55250791,20.9984461,series_0
,,,,,,,,5f1b26dbd5dc042c9aedb7a4,Mężczyzna,19,2021-07-13_22h11.28.099,rantool2,2021.1.4,Win32,62.01165819,5f1b26dbd5dc042c9aedb7a4,60d9d14f4a8a35a482e0d9bf,60edf0d45c28a315ad8056c2,j,0.9123,0,18,18,48,1,RROOOOO,RROOOOR,20.90986523,22.15934078,series_1
,,,,,,,,5f1b26dbd5dc042c9aedb7a4,Mężczyzna,19,2021-07-13_22h11.28.099,rantool2,2021.1.4,Win32,62.01165819,5f1b26dbd5dc042c9aedb7a4,60d9d14f4a8a35a482e0d9bf,60edf0d45c28a315ad8056c2,f,1.1212,0,19,19,55,1,RRORRRO,RRORRRR,21.56657303,21.21223021,series_0
,,,,,,,,5f1b26dbd5dc042c9aedb7a4,Mężczyzna,19,2021-07-13_22h11.28.099,rantool2,2021.1.4,Win32,62.01165819,5f1b26dbd5dc042c9aedb7a4,60d9d14f4a8a35a482e0d9bf,60edf0d45c28a315ad8056c2,j,0.8674,0,20,20,8,1,OOROOOO,OOROOOR,19.91402015,20.89823192,series_1
,,,,,,,,5f1b26dbd5dc042c9aedb7a4,Mężczyzna,19,2021-07-13_22h11.28.099,rantool2,2021.1.4,Win32,62.01165819,5f1b26dbd5dc042c9aedb7a4,60d9d14f4a8a35a482e0d9bf,60edf0d45c28a315ad8056c2,f,1.0177,0,21,21,56,1,RRROOOO,RRROOOR,21.6194508,22.31681875,series_1
,,,,,,,,5f1b26dbd5dc042c9aedb7a4,Mężczyzna,19,2021-07-13_22h11.28.099,rantool2,2021.1.4,Win32,62.01165819,5f1b26dbd5dc042c9aedb7a4,60d9d14f4a8a35a482e0d9bf,60edf0d45c28a315ad8056c2,j,3.1339,0,22,22,53,1,RRORORO,RRORORR,20.71309134,21.90565814,series_1
,,,,,,,,5f1b26dbd5dc042c9aedb7a4,Mężczyzna,19,2021-07-13_22h11.28.099,rantool2,2021.1.4,Win32,62.01165819,5f1b26dbd5dc042c9aedb7a4,60d9d14f4a8a35a482e0d9bf,60edf0d45c28a315ad8056c2,j,2.801,0,23,23,30,1,ORRRROO,ORRRROR,22.46748491,22.03072203,series_0
,,,,,,,,5f1b26dbd5dc042c9aedb7a4,Mężczyzna,19,2021-07-13_22h11.28.099,rantool2,2021.1.4,Win32,62.01165819,5f1b26dbd5dc042c9aedb7a4,60d9d14f4a8a35a482e0d9bf,60edf0d45c28a315ad8056c2,j,1.9902,0,24,24,4,1,OOOROOO,OOOROOR,19.91402015,21.21223021,series_1
,,,,,,,,5f1b26dbd5dc042c9aedb7a4,Mężczyzna,19,2021-07-13_22h11.28.099,rantool2,2021.1.4,Win32,62.01165819,5f1b26dbd5dc042c9aedb7a4,60d9d14f4a8a35a482e0d9bf,60edf0d45c28a315ad8056c2,j,2.8727,0,25,25,34,1,ROOOROO,ROOOROR,21.03750787,21.24781509,series_1
,,,,,,,,5f1b26dbd5dc042c9aedb7a4,Mężczyzna,19,2021-07-13_22h11.28.099,rantool2,2021.1.4,Win32,62.01165819,5f1b26dbd5dc042c9aedb7a4,60d9d14f4a8a35a482e0d9bf,60edf0d45c28a315ad8056c2,f,2.592,0,26,26,33,1,ROOOORO,ROOOORR,20.83779602,22.03072203,series_1
,,,,,,,,5f1b26dbd5dc042c9aedb7a4,Mężczyzna,19,2021-07-13_22h11.28.099,rantool2,2021.1.4,Win32,62.01165819,5f1b26dbd5dc042c9aedb7a4,60d9d14f4a8a35a482e0d9bf,60edf0d45c28a315ad8056c2,j,2.0673,0,27,27,37,1,ROORORO,ROORORR,20.42602454,21.57657071,series_1
,,,,,,,,5f1b26dbd5dc042c9aedb7a4,Mężczyzna,19,2021-07-13_22h11.28.099,rantool2,2021.1.4,Win32,62.01165819,5f1b26dbd5dc042c9aedb7a4,60d9d14f4a8a35a482e0d9bf,60edf0d45c28a315ad8056c2,j,3.0068,0,28,28,57,1,RRROORO,RRROORR,21.82425538,22.07102821,series_1
,,,,,,,,5f1b26dbd5dc042c9aedb7a4,Mężczyzna,19,2021-07-13_22h11.28.099,rantool2,2021.1.4,Win32,62.01165819,5f1b26dbd5dc042c9aedb7a4,60d9d14f4a8a35a482e0d9bf,60edf0d45c28a315ad8056c2,f,2.0395,0,29,29,24,1,ORROOOO,ORROOOR,21.12383932,22.07102821,series_1
,,,,,,,,5f1b26dbd5dc042c9aedb7a4,Mężczyzna,19,2021-07-13_22h11.28.099,rantool2,2021.1.4,Win32,62.01165819,5f1b26dbd5dc042c9aedb7a4,60d9d14f4a8a35a482e0d9bf,60edf0d45c28a315ad8056c2,j,4.1336,0,30,30,19,1,OROORRO,OROORRR,21.73568164,22.11181017,series_1
,,,,,,,,5f1b26dbd5dc042c9aedb7a4,Mężczyzna,19,2021-07-13_22h11.28.099,rantool2,2021.1.4,Win32,62.01165819,5f1b26dbd5dc042c9aedb7a4,60d9d14f4a8a35a482e0d9bf,60edf0d45c28a315ad8056c2,j,2.3336,0,31,31,28,1,ORRROOO,ORRROOR,22.24142883,22.53364006,series_1
,,,,,,,,5f1b26dbd5dc042c9aedb7a4,Mężczyzna,19,2021-07-13_22h11.28.099,rantool2,2021.1.4,Win32,62.01165819,5f1b26dbd5dc042c9aedb7a4,60d9d14f4a8a35a482e0d9bf,60edf0d45c28a315ad8056c2,j,2.4003,0,32,32,42,1,ROROROO,ROROROR,20.39515459,19.8361834,series_0
,,,,,,,,5f1b26dbd5dc042c9aedb7a4,Mężczyzna,19,2021-07-13_22h11.28.099,rantool2,2021.1.4,Win32,62.01165819,5f1b26dbd5dc042c9aedb7a4,60d9d14f4a8a35a482e0d9bf,60edf0d45c28a315ad8056c2,f,1.5543,0,33,33,18,1,OROOROO,OROOROR,20.84860893,21.22513037,series_1
,,,,,,,,5f1b26dbd5dc042c9aedb7a4,Mężczyzna,19,2021-07-13_22h11.28.099,rantool2,2021.1.4,Win32,62.01165819,5f1b26dbd5dc042c9aedb7a4,60d9d14f4a8a35a482e0d9bf,60edf0d45c28a315ad8056c2,j,1.1578,0,34,34,2,1,OOOOROO,OOOOROR,20.43051175,21.02936224,series_1
,,,,,,,,5f1b26dbd5dc042c9aedb7a4,Mężczyzna,19,2021-07-13_22h11.28.099,rantool2,2021.1.4,Win32,62.01165819,5f1b26dbd5dc042c9aedb7a4,60d9d14f4a8a35a482e0d9bf,60edf0d45c28a315ad8056c2,f,1.1547,0,35,35,51,1,RROORRO,RROORRR,21.89852628,22.02786418,series_1
,,,,,,,,5f1b26dbd5dc042c9aedb7a4,Mężczyzna,19,2021-07-13_22h11.28.099,rantool2,2021.1.4,Win32,62.01165819,5f1b26dbd5dc042c9aedb7a4,60d9d14f4a8a35a482e0d9bf,60edf0d45c28a315ad8056c2,j,1.1424,0,36,36,25,1,ORROORO,ORROORR,21.79500819,22.61624387,series_1
,,,,,,,,5f1b26dbd5dc042c9aedb7a4,Mężczyzna,19,2021-07-13_22h11.28.099,rantool2,2021.1.4,Win32,62.01165819,5f1b26dbd5dc042c9aedb7a4,60d9d14f4a8a35a482e0d9bf,60edf0d45c28a315ad8056c2,f,1.3174,0,37,37,39,1,ROORRRO,ROORRRR,21.82425538,21.38562617,series_0
,,,,,,,,5f1b26dbd5dc042c9aedb7a4,Mężczyzna,19,2021-07-13_22h11.28.099,rantool2,2021.1.4,Win32,62.01165819,5f1b26dbd5dc042c9aedb7a4,60d9d14f4a8a35a482e0d9bf,60edf0d45c28a315ad8056c2,j,1.3753,0,38,38,15,1,OORRRRO,OORRRRR,22.10108823,21.74922619,series_0
,,,,,,,,5f1b26dbd5dc042c9aedb7a4,Mężczyzna,19,2021-07-13_22h11.28.099,rantool2,2021.1.4,Win32,62.01165819,5f1b26dbd5dc042c9aedb7a4,60d9d14f4a8a35a482e0d9bf,60edf0d45c28a315ad8056c2,j,1.1754,0,39,39,3,1,OOOORRO,OOOORRR,20.90986523,21.74922619,series_1
,,,,,,,,5f1b26dbd5dc042c9aedb7a4,Mężczyzna,19,2021-07-13_22h11.28.099,rantool2,2021.1.4,Win32,62.01165819,5f1b26dbd5dc042c9aedb7a4,60d9d14f4a8a35a482e0d9bf,60edf0d45c28a315ad8056c2,f,1.3842,0,40,40,1,1,OOOOORO,OOOOORR,19.92253567,20.74050628,series_1
,,,,,,,,5f1b26dbd5dc042c9aedb7a4,Mężczyzna,19,2021-07-13_22h11.28.099,rantool2,2021.1.4,Win32,62.01165819,5f1b26dbd5dc042c9aedb7a4,60d9d14f4a8a35a482e0d9bf,60edf0d45c28a315ad8056c2,f,1.0883,0,41,41,50,1,RROOROO,RROOROR,21.73568164,22.02566557,series_1
,,,,,,,,5f1b26dbd5dc042c9aedb7a4,Mężczyzna,19,2021-07-13_22h11.28.099,rantool2,2021.1.4,Win32,62.01165819,5f1b26dbd5dc042c9aedb7a4,60d9d14f4a8a35a482e0d9bf,60edf0d45c28a315ad8056c2,f,1.3007,0,42,42,44,1,RORROOO,RORROOR,21.66733484,22.02566557,series_1
,,,,,,,,5f1b26dbd5dc042c9aedb7a4,Mężczyzna,19,2021-07-13_22h11.28.099,rantool2,2021.1.4,Win32,62.01165819,5f1b26dbd5dc042c9aedb7a4,60d9d14f4a8a35a482e0d9bf,60edf0d45c28a315ad8056c2,j,1.0897,0,43,43,17,1,OROOORO,OROOORR,21.03750787,22.12173012,series_1
,,,,,,,,5f1b26dbd5dc042c9aedb7a4,Mężczyzna,19,2021-07-13_22h11.28.099,rantool2,2021.1.4,Win32,62.01165819,5f1b26dbd5dc042c9aedb7a4,60d9d14f4a8a35a482e0d9bf,60edf0d45c28a315ad8056c2,f,1.3008,0,44,44,35,1,ROOORRO,ROOORRR,21.76276513,22.16977179,series_1
,,,,,,,,5f1b26dbd5dc042c9aedb7a4,Mężczyzna,19,2021-07-13_22h11.28.099,rantool2,2021.1.4,Win32,62.01165819,5f1b26dbd5dc042c9aedb7a4,60d9d14f4a8a35a482e0d9bf,60edf0d45c28a315ad8056c2,j,1.817,0,45,45,62,1,RRRRROO,RRRRROR,22.16413392,21.27974287,series_0
,,,,,,,,5f1b26dbd5dc042c9aedb7a4,Mężczyzna,19,2021-07-13_22h11.28.099,rantool2,2021.1.4,Win32,62.01165819,5f1b26dbd5dc042c9aedb7a4,60d9d14f4a8a35a482e0d9bf,60edf0d45c28a315ad8056c2,j,1.4245,0,46,46,32,1,ROOOOOO,ROOOOOR,19.92253567,21.27974287,series_1
,,,,,,,,5f1b26dbd5dc042c9aedb7a4,Mężczyzna,19,2021-07-13_22h11.28.099,rantool2,2021.1.4,Win32,62.01165819,5f1b26dbd5dc042c9aedb7a4,60d9d14f4a8a35a482e0d9bf,60edf0d45c28a315ad8056c2,j,1.8178,0,47,47,41,1,ROROORO,ROROORR,20.42602454,21.71443381,series_1
,,,,,,,,5f1b26dbd5dc042c9aedb7a4,Mężczyzna,19,2021-07-13_22h11.28.099,rantool2,2021.1.4,Win32,62.01165819,5f1b26dbd5dc042c9aedb7a4,60d9d14f4a8a35a482e0d9bf,60edf0d45c28a315ad8056c2,f,3.2345,0,48,48,43,1,RORORRO,RORORRR,20.71309134,21.07490964,series_1
,,,,,,,,5f1b26dbd5dc042c9aedb7a4,Mężczyzna,19,2021-07-13_22h11.28.099,rantool2,2021.1.4,Win32,62.01165819,5f1b26dbd5dc042c9aedb7a4,60d9d14f4a8a35a482e0d9bf,60edf0d45c28a315ad8056c2,f,4.2199,0,49,49,23,1,ORORRRO,ORORRRR,22.1285618,21.9921709,series_0
,,,,,,,,5f1b26dbd5dc042c9aedb7a4,Mężczyzna,19,2021-07-13_22h11.28.099,rantool2,2021.1.4,Win32,62.01165819,5f1b26dbd5dc042c9aedb7a4,60d9d14f4a8a35a482e0d9bf,60edf0d45c28a315ad8056c2,j,1.0854,0,50,50,27,1,ORRORRO,ORRORRR,21.55250791,22.2428857,series_1
,,,,,,,,5f1b26dbd5dc042c9aedb7a4,Mężczyzna,19,2021-07-13_22h11.28.099,rantool2,2021.1.4,Win32,62.01165819,5f1b26dbd5dc042c9aedb7a4,60d9d14f4a8a35a482e0d9bf,60edf0d45c28a315ad8056c2,f,1.1258,0,51,51,45,1,RORRORO,RORRORR,20.78182524,21.22513037,series_1
,,,,,,,,5f1b26dbd5dc042c9aedb7a4,Mężczyzna,19,2021-07-13_22h11.28.099,rantool2,2021.1.4,Win32,62.01165819,5f1b26dbd5dc042c9aedb7a4,60d9d14f4a8a35a482e0d9bf,60edf0d45c28a315ad8056c2,j,1.0178,0,52,52,9,1,OOROORO,OOROORR,21.07991943,22.2428857,series_1
,,,,,,,,5f1b26dbd5dc042c9aedb7a4,Mężczyzna,19,2021-07-13_22h11.28.099,rantool2,2021.1.4,Win32,62.01165819,5f1b26dbd5dc042c9aedb7a4,60d9d14f4a8a35a482e0d9bf,60edf0d45c28a315ad8056c2,j,2.0932,0,53,53,60,1,RRRROOO,RRRROOR,22.10108823,22.15934078,series_1
,,,,,,,,5f1b26dbd5dc042c9aedb7a4,Mężczyzna,19,2021-07-13_22h11.28.099,rantool2,2021.1.4,Win32,62.01165819,5f1b26dbd5dc042c9aedb7a4,60d9d14f4a8a35a482e0d9bf,60edf0d45c28a315ad8056c2,f,1.1026,0,54,54,20,1,OROROOO,OROROOR,21.31236711,21.90565814,series_1
,,,,,,,,5f1b26dbd5dc042c9aedb7a4,Mężczyzna,19,2021-07-13_22h11.28.099,rantool2,2021.1.4,Win32,62.01165819,5f1b26dbd5dc042c9aedb7a4,60d9d14f4a8a35a482e0d9bf,60edf0d45c28a315ad8056c2,j,0.8851,0,55,55,21,1,ORORORO,ORORORR,20.39515459,22.06781359,series_1
,,,,,,,,5f1b26dbd5dc042c9aedb7a4,Mężczyzna,19,2021-07-13_22h11.28.099,rantool2,2021.1.4,Win32,62.01165819,5f1b26dbd5dc042c9aedb7a4,60d9d14f4a8a35a482e0d9bf,60edf0d45c28a315ad8056c2,f,0.8343,0,56,56,38,1,ROORROO,ROORROR,21.79500819,21.36812781,series_0
,,,,,,,,5f1b26dbd5dc042c9aedb7a4,Mężczyzna,19,2021-07-13_22h11.28.099,rantool2,2021.1.4,Win32,62.01165819,5f1b26dbd5dc042c9aedb7a4,60d9d14f4a8a35a482e0d9bf,60edf0d45c28a315ad8056c2,j,0.5103,0,57,57,14,1,OORRROO,OORRROR,22.24142883,22.16977179,series_0
,,,,,,,,5f1b26dbd5dc042c9aedb7a4,Mężczyzna,19,2021-07-13_22h11.28.099,rantool2,2021.1.4,Win32,62.01165819,5f1b26dbd5dc042c9aedb7a4,60d9d14f4a8a35a482e0d9bf,60edf0d45c28a315ad8056c2,f,0.6839,0,58,58,29,1,ORRRORO,ORRRORR,22.00300695,22.12173012,series_1
,,,,,,,,5f1b26dbd5dc042c9aedb7a4,Mężczyzna,19,2021-07-13_22h11.28.099,rantool2,2021.1.4,Win32,62.01165819,5f1b26dbd5dc042c9aedb7a4,60d9d14f4a8a35a482e0d9bf,60edf0d45c28a315ad8056c2,j,0.5012,0,59,59,12,1,OORROOO,OORROOR,21.30250474,22.02786418,series_1
,,,,,,,,5f1b26dbd5dc042c9aedb7a4,Mężczyzna,19,2021-07-13_22h11.28.099,rantool2,2021.1.4,Win32,62.01165819,5f1b26dbd5dc042c9aedb7a4,60d9d14f4a8a35a482e0d9bf,60edf0d45c28a315ad8056c2,f,0.6511,0,60,60,10,1,OOROROO,OOROROR,21.31236711,21.07490964,series_0
,,,,,,,,5f1b26dbd5dc042c9aedb7a4,Mężczyzna,19,2021-07-13_22h11.28.099,rantool2,2021.1.4,Win32,62.01165819,5f1b26dbd5dc042c9aedb7a4,60d9d14f4a8a35a482e0d9bf,60edf0d45c28a315ad8056c2,j,0.6346,0,61,61,26,1,ORROROO,ORROROR,22.02732763,21.71443381,series_0
,,,,,,,,5f1b26dbd5dc042c9aedb7a4,Mężczyzna,19,2021-07-13_22h11.28.099,rantool2,2021.1.4,Win32,62.01165819,5f1b26dbd5dc042c9aedb7a4,60d9d14f4a8a35a482e0d9bf,60edf0d45c28a315ad8056c2,j,1.5341,0,62,62,16,1,OROOOOO,OROOOOR,20.43051175,21.17347734,series_1
,,,,,,,,5f1b26dbd5dc042c9aedb7a4,Mężczyzna,19,2021-07-13_22h11.28.099,rantool2,2021.1.4,Win32,62.01165819,5f1b26dbd5dc042c9aedb7a4,60d9d14f4a8a35a482e0d9bf,60edf0d45c28a315ad8056c2,f,0.0374,0,63,63,47,1,RORRRRO,RORRRRR,21.81333602,21.02936224,series_0
