key_resp_5.keys,key_resp_5.corr,key_resp_5.rt,trials.thisRepN,trials.thisTrialN,trials.thisN,trials.thisIndex,trials.ran,id*,Płeć*,Wiek*,date,expName,psychopyVersion,OS,frameRate,id,STUDY_ID,SESSION_ID,key_resp_7.keys,key_resp_7.rt,trials_2.thisRepN,trials_2.thisTrialN,trials_2.thisN,trials_2.thisIndex,trials_2.ran,series_0,series_1,acss_0,acss_1,comparison
0,,,0,0,0,0,1,60ec9e86f46f8c4d12a73abb,Mężczyzna,26,2021-07-13_21h39.23.686,rantool2,2021.1.4,Win32,143.9263097,60ec9e86f46f8c4d12a73abb,60d9d14f4a8a35a482e0d9bf,60edebca371ddf148745d314,,,,,,,,,,,,
"[""comma""]",0,[0.7323999999999131],1,0,1,0,1,60ec9e86f46f8c4d12a73abb,Mężczyzna,26,2021-07-13_21h39.23.686,rantool2,2021.1.4,Win32,143.9263097,60ec9e86f46f8c4d12a73abb,60d9d14f4a8a35a482e0d9bf,60edebca371ddf148745d314,,,,,,,,,,,,
"[""comma""]",0,[1.0606000000000932],2,0,2,0,1,60ec9e86f46f8c4d12a73abb,Mężczyzna,26,2021-07-13_21h39.23.686,rantool2,2021.1.4,Win32,143.9263097,60ec9e86f46f8c4d12a73abb,60d9d14f4a8a35a482e0d9bf,60edebca371ddf148745d314,,,,,,,,,,,,
"[""period""]",0,[0.5065000000000026],3,0,3,0,1,60ec9e86f46f8c4d12a73abb,Mężczyzna,26,2021-07-13_21h39.23.686,rantool2,2021.1.4,Win32,143.9263097,60ec9e86f46f8c4d12a73abb,60d9d14f4a8a35a482e0d9bf,60edebca371ddf148745d314,,,,,,,,,,,,
"[""comma""]",0,[0.7386000000000905],4,0,4,0,1,60ec9e86f46f8c4d12a73abb,Mężczyzna,26,2021-07-13_21h39.23.686,rantool2,2021.1.4,Win32,143.9263097,60ec9e86f46f8c4d12a73abb,60d9d14f4a8a35a482e0d9bf,60edebca371ddf148745d314,,,,,,,,,,,,
"[""period""]",0,[0.8685999999996312],5,0,5,0,1,60ec9e86f46f8c4d12a73abb,Mężczyzna,26,2021-07-13_21h39.23.686,rantool2,2021.1.4,Win32,143.9263097,60ec9e86f46f8c4d12a73abb,60d9d14f4a8a35a482e0d9bf,60edebca371ddf148745d314,,,,,,,,,,,,
"[""comma""]",0,[0.48439999999990846],6,0,6,0,1,60ec9e86f46f8c4d12a73abb,Mężczyzna,26,2021-07-13_21h39.23.686,rantool2,2021.1.4,Win32,143.9263097,60ec9e86f46f8c4d12a73abb,60d9d14f4a8a35a482e0d9bf,60edebca371ddf148745d314,,,,,,,,,,,,
"[""period""]",0,[0.6202999999998156],7,0,7,0,1,60ec9e86f46f8c4d12a73abb,Mężczyzna,26,2021-07-13_21h39.23.686,rantool2,2021.1.4,Win32,143.9263097,60ec9e86f46f8c4d12a73abb,60d9d14f4a8a35a482e0d9bf,60edebca371ddf148745d314,,,,,,,,,,,,
"[""period""]",0,[0.3464999999999918],8,0,8,0,1,60ec9e86f46f8c4d12a73abb,Mężczyzna,26,2021-07-13_21h39.23.686,rantool2,2021.1.4,Win32,143.9263097,60ec9e86f46f8c4d12a73abb,60d9d14f4a8a35a482e0d9bf,60edebca371ddf148745d314,,,,,,,,,,,,
"[""comma""]",0,[0.20389999999990494],9,0,9,0,1,60ec9e86f46f8c4d12a73abb,Mężczyzna,26,2021-07-13_21h39.23.686,rantool2,2021.1.4,Win32,143.9263097,60ec9e86f46f8c4d12a73abb,60d9d14f4a8a35a482e0d9bf,60edebca371ddf148745d314,,,,,,,,,,,,
"[""comma""]",0,[0.20429999999981874],10,0,10,0,1,60ec9e86f46f8c4d12a73abb,Mężczyzna,26,2021-07-13_21h39.23.686,rantool2,2021.1.4,Win32,143.9263097,60ec9e86f46f8c4d12a73abb,60d9d14f4a8a35a482e0d9bf,60edebca371ddf148745d314,,,,,,,,,,,,
"[""period""]",0,[0.11640000000036821],11,0,11,0,1,60ec9e86f46f8c4d12a73abb,Mężczyzna,26,2021-07-13_21h39.23.686,rantool2,2021.1.4,Win32,143.9263097,60ec9e86f46f8c4d12a73abb,60d9d14f4a8a35a482e0d9bf,60edebca371ddf148745d314,,,,,,,,,,,,
"[""period"",""comma""]",0,"[0.11630000000027962,1.9743000000002837]",12,0,12,0,1,60ec9e86f46f8c4d12a73abb,Mężczyzna,26,2021-07-13_21h39.23.686,rantool2,2021.1.4,Win32,143.9263097,60ec9e86f46f8c4d12a73abb,60d9d14f4a8a35a482e0d9bf,60edebca371ddf148745d314,,,,,,,,,,,,
"[""comma""]",0,[1.7707000000001756],13,0,13,0,1,60ec9e86f46f8c4d12a73abb,Mężczyzna,26,2021-07-13_21h39.23.686,rantool2,2021.1.4,Win32,143.9263097,60ec9e86f46f8c4d12a73abb,60d9d14f4a8a35a482e0d9bf,60edebca371ddf148745d314,,,,,,,,,,,,
0,0,,14,0,14,0,1,60ec9e86f46f8c4d12a73abb,Mężczyzna,26,2021-07-13_21h39.23.686,rantool2,2021.1.4,Win32,143.9263097,60ec9e86f46f8c4d12a73abb,60d9d14f4a8a35a482e0d9bf,60edebca371ddf148745d314,,,,,,,,,,,,
"[""period""]",0,[0.1937000000001916],15,0,15,0,1,60ec9e86f46f8c4d12a73abb,Mężczyzna,26,2021-07-13_21h39.23.686,rantool2,2021.1.4,Win32,143.9263097,60ec9e86f46f8c4d12a73abb,60d9d14f4a8a35a482e0d9bf,60edebca371ddf148745d314,,,,,,,,,,,,
"[""comma""]",0,[0.1701000000000903],16,0,16,0,1,60ec9e86f46f8c4d12a73abb,Mężczyzna,26,2021-07-13_21h39.23.686,rantool2,2021.1.4,Win32,143.9263097,60ec9e86f46f8c4d12a73abb,60d9d14f4a8a35a482e0d9bf,60edebca371ddf148745d314,,,,,,,,,,,,
"[""period"",""period""]",0,"[0.11520000000018626,1.9072000000001879]",17,0,17,0,1,60ec9e86f46f8c4d12a73abb,Mężczyzna,26,2021-07-13_21h39.23.686,rantool2,2021.1.4,Win32,143.9263097,60ec9e86f46f8c4d12a73abb,60d9d14f4a8a35a482e0d9bf,60edebca371ddf148745d314,,,,,,,,,,,,
0,0,,18,0,18,0,1,60ec9e86f46f8c4d12a73abb,Mężczyzna,26,2021-07-13_21h39.23.686,rantool2,2021.1.4,Win32,143.9263097,60ec9e86f46f8c4d12a73abb,60d9d14f4a8a35a482e0d9bf,60edebca371ddf148745d314,,,,,,,,,,,,
"[""comma""]",0,[0.17199999999999704],19,0,19,0,1,60ec9e86f46f8c4d12a73abb,Mężczyzna,26,2021-07-13_21h39.23.686,rantool2,2021.1.4,Win32,143.9263097,60ec9e86f46f8c4d12a73abb,60d9d14f4a8a35a482e0d9bf,60edebca371ddf148745d314,,,,,,,,,,,,
"[""period""]",0,[0.21220000000016626],20,0,20,0,1,60ec9e86f46f8c4d12a73abb,Mężczyzna,26,2021-07-13_21h39.23.686,rantool2,2021.1.4,Win32,143.9263097,60ec9e86f46f8c4d12a73abb,60d9d14f4a8a35a482e0d9bf,60edebca371ddf148745d314,,,,,,,,,,,,
"[""comma"",""period""]",0,"[0.07550000000000523,1.8754999999999882]",21,0,21,0,1,60ec9e86f46f8c4d12a73abb,Mężczyzna,26,2021-07-13_21h39.23.686,rantool2,2021.1.4,Win32,143.9263097,60ec9e86f46f8c4d12a73abb,60d9d14f4a8a35a482e0d9bf,60edebca371ddf148745d314,,,,,,,,,,,,
0,0,,22,0,22,0,1,60ec9e86f46f8c4d12a73abb,Mężczyzna,26,2021-07-13_21h39.23.686,rantool2,2021.1.4,Win32,143.9263097,60ec9e86f46f8c4d12a73abb,60d9d14f4a8a35a482e0d9bf,60edebca371ddf148745d314,,,,,,,,,,,,
"[""comma""]",0,[0.19610000000008654],23,0,23,0,1,60ec9e86f46f8c4d12a73abb,Mężczyzna,26,2021-07-13_21h39.23.686,rantool2,2021.1.4,Win32,143.9263097,60ec9e86f46f8c4d12a73abb,60d9d14f4a8a35a482e0d9bf,60edebca371ddf148745d314,,,,,,,,,,,,
"[""period""]",0,[0.24429999999981078],24,0,24,0,1,60ec9e86f46f8c4d12a73abb,Mężczyzna,26,2021-07-13_21h39.23.686,rantool2,2021.1.4,Win32,143.9263097,60ec9e86f46f8c4d12a73abb,60d9d14f4a8a35a482e0d9bf,60edebca371ddf148745d314,,,,,,,,,,,,
"[""comma""]",0,[0.3540000000000134],25,0,25,0,1,60ec9e86f46f8c4d12a73abb,Mężczyzna,26,2021-07-13_21h39.23.686,rantool2,2021.1.4,Win32,143.9263097,60ec9e86f46f8c4d12a73abb,60d9d14f4a8a35a482e0d9bf,60edebca371ddf148745d314,,,,,,,,,,,,
"[""period""]",0,[0.2423000000002844],26,0,26,0,1,60ec9e86f46f8c4d12a73abb,Mężczyzna,26,2021-07-13_21h39.23.686,rantool2,2021.1.4,Win32,143.9263097,60ec9e86f46f8c4d12a73abb,60d9d14f4a8a35a482e0d9bf,60edebca371ddf148745d314,,,,,,,,,,,,
"[""comma""]",0,[0.21970000000018786],27,0,27,0,1,60ec9e86f46f8c4d12a73abb,Mężczyzna,26,2021-07-13_21h39.23.686,rantool2,2021.1.4,Win32,143.9263097,60ec9e86f46f8c4d12a73abb,60d9d14f4a8a35a482e0d9bf,60edebca371ddf148745d314,,,,,,,,,,,,
"[""comma""]",0,[0.23789999999991096],28,0,28,0,1,60ec9e86f46f8c4d12a73abb,Mężczyzna,26,2021-07-13_21h39.23.686,rantool2,2021.1.4,Win32,143.9263097,60ec9e86f46f8c4d12a73abb,60d9d14f4a8a35a482e0d9bf,60edebca371ddf148745d314,,,,,,,,,,,,
"[""comma""]",0,[0.20400000000000773],29,0,29,0,1,60ec9e86f46f8c4d12a73abb,Mężczyzna,26,2021-07-13_21h39.23.686,rantool2,2021.1.4,Win32,143.9263097,60ec9e86f46f8c4d12a73abb,60d9d14f4a8a35a482e0d9bf,60edebca371ddf148745d314,,,,,,,,,,,,
"[""period"",""period""]",0,"[0.18589999999989004,1.9712999999998146]",30,0,30,0,1,60ec9e86f46f8c4d12a73abb,Mężczyzna,26,2021-07-13_21h39.23.686,rantool2,2021.1.4,Win32,143.9263097,60ec9e86f46f8c4d12a73abb,60d9d14f4a8a35a482e0d9bf,60edebca371ddf148745d314,,,,,,,,,,,,
0,0,,31,0,31,0,1,60ec9e86f46f8c4d12a73abb,Mężczyzna,26,2021-07-13_21h39.23.686,rantool2,2021.1.4,Win32,143.9263097,60ec9e86f46f8c4d12a73abb,60d9d14f4a8a35a482e0d9bf,60edebca371ddf148745d314,,,,,,,,,,,,
"[""comma""]",0,[0.2282000000001858],32,0,32,0,1,60ec9e86f46f8c4d12a73abb,Mężczyzna,26,2021-07-13_21h39.23.686,rantool2,2021.1.4,Win32,143.9263097,60ec9e86f46f8c4d12a73abb,60d9d14f4a8a35a482e0d9bf,60edebca371ddf148745d314,,,,,,,,,,,,
"[""period""]",0,[0.18260000000009313],33,0,33,0,1,60ec9e86f46f8c4d12a73abb,Mężczyzna,26,2021-07-13_21h39.23.686,rantool2,2021.1.4,Win32,143.9263097,60ec9e86f46f8c4d12a73abb,60d9d14f4a8a35a482e0d9bf,60edebca371ddf148745d314,,,,,,,,,,,,
"[""comma""]",0,[0.22789999999989163],34,0,34,0,1,60ec9e86f46f8c4d12a73abb,Mężczyzna,26,2021-07-13_21h39.23.686,rantool2,2021.1.4,Win32,143.9263097,60ec9e86f46f8c4d12a73abb,60d9d14f4a8a35a482e0d9bf,60edebca371ddf148745d314,,,,,,,,,,,,
"[""period""]",0,[0.17760000000009768],35,0,35,0,1,60ec9e86f46f8c4d12a73abb,Mężczyzna,26,2021-07-13_21h39.23.686,rantool2,2021.1.4,Win32,143.9263097,60ec9e86f46f8c4d12a73abb,60d9d14f4a8a35a482e0d9bf,60edebca371ddf148745d314,,,,,,,,,,,,
"[""period""]",0,[0.09910000000007813],36,0,36,0,1,60ec9e86f46f8c4d12a73abb,Mężczyzna,26,2021-07-13_21h39.23.686,rantool2,2021.1.4,Win32,143.9263097,60ec9e86f46f8c4d12a73abb,60d9d14f4a8a35a482e0d9bf,60edebca371ddf148745d314,,,,,,,,,,,,
"[""comma""]",0,[0.13219999999972742],37,0,37,0,1,60ec9e86f46f8c4d12a73abb,Mężczyzna,26,2021-07-13_21h39.23.686,rantool2,2021.1.4,Win32,143.9263097,60ec9e86f46f8c4d12a73abb,60d9d14f4a8a35a482e0d9bf,60edebca371ddf148745d314,,,,,,,,,,,,
"[""period""]",0,[0.18269999999972697],38,0,38,0,1,60ec9e86f46f8c4d12a73abb,Mężczyzna,26,2021-07-13_21h39.23.686,rantool2,2021.1.4,Win32,143.9263097,60ec9e86f46f8c4d12a73abb,60d9d14f4a8a35a482e0d9bf,60edebca371ddf148745d314,,,,,,,,,,,,
"[""comma""]",0,[0.12089999999989232],39,0,39,0,1,60ec9e86f46f8c4d12a73abb,Mężczyzna,26,2021-07-13_21h39.23.686,rantool2,2021.1.4,Win32,143.9263097,60ec9e86f46f8c4d12a73abb,60d9d14f4a8a35a482e0d9bf,60edebca371ddf148745d314,,,,,,,,,,,,
"[""period""]",0,[1.6984999999999957],40,0,40,0,1,60ec9e86f46f8c4d12a73abb,Mężczyzna,26,2021-07-13_21h39.23.686,rantool2,2021.1.4,Win32,143.9263097,60ec9e86f46f8c4d12a73abb,60d9d14f4a8a35a482e0d9bf,60edebca371ddf148745d314,,,,,,,,,,,,
0,0,,41,0,41,0,1,60ec9e86f46f8c4d12a73abb,Mężczyzna,26,2021-07-13_21h39.23.686,rantool2,2021.1.4,Win32,143.9263097,60ec9e86f46f8c4d12a73abb,60d9d14f4a8a35a482e0d9bf,60edebca371ddf148745d314,,,,,,,,,,,,
"[""comma""]",0,[0.2520999999996434],42,0,42,0,1,60ec9e86f46f8c4d12a73abb,Mężczyzna,26,2021-07-13_21h39.23.686,rantool2,2021.1.4,Win32,143.9263097,60ec9e86f46f8c4d12a73abb,60d9d14f4a8a35a482e0d9bf,60edebca371ddf148745d314,,,,,,,,,,,,
"[""period"",""comma""]",0,"[0.027800000000269165,1.8124000000003662]",43,0,43,0,1,60ec9e86f46f8c4d12a73abb,Mężczyzna,26,2021-07-13_21h39.23.686,rantool2,2021.1.4,Win32,143.9263097,60ec9e86f46f8c4d12a73abb,60d9d14f4a8a35a482e0d9bf,60edebca371ddf148745d314,,,,,,,,,,,,
"[""period""]",0,[1.9451000000001102],44,0,44,0,1,60ec9e86f46f8c4d12a73abb,Mężczyzna,26,2021-07-13_21h39.23.686,rantool2,2021.1.4,Win32,143.9263097,60ec9e86f46f8c4d12a73abb,60d9d14f4a8a35a482e0d9bf,60edebca371ddf148745d314,,,,,,,,,,,,
0,0,,45,0,45,0,1,60ec9e86f46f8c4d12a73abb,Mężczyzna,26,2021-07-13_21h39.23.686,rantool2,2021.1.4,Win32,143.9263097,60ec9e86f46f8c4d12a73abb,60d9d14f4a8a35a482e0d9bf,60edebca371ddf148745d314,,,,,,,,,,,,
"[""period""]",0,[0.22750000000002046],46,0,46,0,1,60ec9e86f46f8c4d12a73abb,Mężczyzna,26,2021-07-13_21h39.23.686,rantool2,2021.1.4,Win32,143.9263097,60ec9e86f46f8c4d12a73abb,60d9d14f4a8a35a482e0d9bf,60edebca371ddf148745d314,,,,,,,,,,,,
"[""comma""]",0,[0.2038000000002853],47,0,47,0,1,60ec9e86f46f8c4d12a73abb,Mężczyzna,26,2021-07-13_21h39.23.686,rantool2,2021.1.4,Win32,143.9263097,60ec9e86f46f8c4d12a73abb,60d9d14f4a8a35a482e0d9bf,60edebca371ddf148745d314,,,,,,,,,,,,
"[""comma""]",0,[0.14770000000018513],48,0,48,0,1,60ec9e86f46f8c4d12a73abb,Mężczyzna,26,2021-07-13_21h39.23.686,rantool2,2021.1.4,Win32,143.9263097,60ec9e86f46f8c4d12a73abb,60d9d14f4a8a35a482e0d9bf,60edebca371ddf148745d314,,,,,,,,,,,,
"[""period""]",0,[0.17170000000018604],49,0,49,0,1,60ec9e86f46f8c4d12a73abb,Mężczyzna,26,2021-07-13_21h39.23.686,rantool2,2021.1.4,Win32,143.9263097,60ec9e86f46f8c4d12a73abb,60d9d14f4a8a35a482e0d9bf,60edebca371ddf148745d314,,,,,,,,,,,,
"[""comma""]",0,[0.06680000000028485],50,0,50,0,1,60ec9e86f46f8c4d12a73abb,Mężczyzna,26,2021-07-13_21h39.23.686,rantool2,2021.1.4,Win32,143.9263097,60ec9e86f46f8c4d12a73abb,60d9d14f4a8a35a482e0d9bf,60edebca371ddf148745d314,,,,,,,,,,,,
"[""period""]",0,[0.02729999999979782],51,0,51,0,1,60ec9e86f46f8c4d12a73abb,Mężczyzna,26,2021-07-13_21h39.23.686,rantool2,2021.1.4,Win32,143.9263097,60ec9e86f46f8c4d12a73abb,60d9d14f4a8a35a482e0d9bf,60edebca371ddf148745d314,,,,,,,,,,,,
"[""comma""]",0,[0.09960000000009472],52,0,52,0,1,60ec9e86f46f8c4d12a73abb,Mężczyzna,26,2021-07-13_21h39.23.686,rantool2,2021.1.4,Win32,143.9263097,60ec9e86f46f8c4d12a73abb,60d9d14f4a8a35a482e0d9bf,60edebca371ddf148745d314,,,,,,,,,,,,
"[""period""]",0,[0.14760000000009654],53,0,53,0,1,60ec9e86f46f8c4d12a73abb,Mężczyzna,26,2021-07-13_21h39.23.686,rantool2,2021.1.4,Win32,143.9263097,60ec9e86f46f8c4d12a73abb,60d9d14f4a8a35a482e0d9bf,60edebca371ddf148745d314,,,,,,,,,,,,
"[""comma""]",0,[0.1771000000001095],54,0,54,0,1,60ec9e86f46f8c4d12a73abb,Mężczyzna,26,2021-07-13_21h39.23.686,rantool2,2021.1.4,Win32,143.9263097,60ec9e86f46f8c4d12a73abb,60d9d14f4a8a35a482e0d9bf,60edebca371ddf148745d314,,,,,,,,,,,,
"[""period""]",0,[0.17120000000019786],55,0,55,0,1,60ec9e86f46f8c4d12a73abb,Mężczyzna,26,2021-07-13_21h39.23.686,rantool2,2021.1.4,Win32,143.9263097,60ec9e86f46f8c4d12a73abb,60d9d14f4a8a35a482e0d9bf,60edebca371ddf148745d314,,,,,,,,,,,,
"[""period""]",0,[0.20889999999988618],56,0,56,0,1,60ec9e86f46f8c4d12a73abb,Mężczyzna,26,2021-07-13_21h39.23.686,rantool2,2021.1.4,Win32,143.9263097,60ec9e86f46f8c4d12a73abb,60d9d14f4a8a35a482e0d9bf,60edebca371ddf148745d314,,,,,,,,,,,,
"[""comma""]",0,[0.17889999999991346],57,0,57,0,1,60ec9e86f46f8c4d12a73abb,Mężczyzna,26,2021-07-13_21h39.23.686,rantool2,2021.1.4,Win32,143.9263097,60ec9e86f46f8c4d12a73abb,60d9d14f4a8a35a482e0d9bf,60edebca371ddf148745d314,,,,,,,,,,,,
"[""period""]",0,[0.09950000000000614],58,0,58,0,1,60ec9e86f46f8c4d12a73abb,Mężczyzna,26,2021-07-13_21h39.23.686,rantool2,2021.1.4,Win32,143.9263097,60ec9e86f46f8c4d12a73abb,60d9d14f4a8a35a482e0d9bf,60edebca371ddf148745d314,,,,,,,,,,,,
"[""comma""]",0,[0.1076000000001045],59,0,59,0,1,60ec9e86f46f8c4d12a73abb,Mężczyzna,26,2021-07-13_21h39.23.686,rantool2,2021.1.4,Win32,143.9263097,60ec9e86f46f8c4d12a73abb,60d9d14f4a8a35a482e0d9bf,60edebca371ddf148745d314,,,,,,,,,,,,
"[""comma""]",0,[0.1882999999998276],60,0,60,0,1,60ec9e86f46f8c4d12a73abb,Mężczyzna,26,2021-07-13_21h39.23.686,rantool2,2021.1.4,Win32,143.9263097,60ec9e86f46f8c4d12a73abb,60d9d14f4a8a35a482e0d9bf,60edebca371ddf148745d314,,,,,,,,,,,,
"[""comma"",""period""]",0,"[0.1323999999999046,1.835299999999819]",61,0,61,0,1,60ec9e86f46f8c4d12a73abb,Mężczyzna,26,2021-07-13_21h39.23.686,rantool2,2021.1.4,Win32,143.9263097,60ec9e86f46f8c4d12a73abb,60d9d14f4a8a35a482e0d9bf,60edebca371ddf148745d314,,,,,,,,,,,,
"[""comma""]",0,[1.9784999999999968],62,0,62,0,1,60ec9e86f46f8c4d12a73abb,Mężczyzna,26,2021-07-13_21h39.23.686,rantool2,2021.1.4,Win32,143.9263097,60ec9e86f46f8c4d12a73abb,60d9d14f4a8a35a482e0d9bf,60edebca371ddf148745d314,,,,,,,,,,,,
0,0,,63,0,63,0,1,60ec9e86f46f8c4d12a73abb,Mężczyzna,26,2021-07-13_21h39.23.686,rantool2,2021.1.4,Win32,143.9263097,60ec9e86f46f8c4d12a73abb,60d9d14f4a8a35a482e0d9bf,60edebca371ddf148745d314,,,,,,,,,,,,
"[""period""]",0,[0.18889999999990437],64,0,64,0,1,60ec9e86f46f8c4d12a73abb,Mężczyzna,26,2021-07-13_21h39.23.686,rantool2,2021.1.4,Win32,143.9263097,60ec9e86f46f8c4d12a73abb,60d9d14f4a8a35a482e0d9bf,60edebca371ddf148745d314,,,,,,,,,,,,
"[""comma""]",0,[0.22750000000002046],65,0,65,0,1,60ec9e86f46f8c4d12a73abb,Mężczyzna,26,2021-07-13_21h39.23.686,rantool2,2021.1.4,Win32,143.9263097,60ec9e86f46f8c4d12a73abb,60d9d14f4a8a35a482e0d9bf,60edebca371ddf148745d314,,,,,,,,,,,,
"[""period""]",0,[0.08929999999980964],66,0,66,0,1,60ec9e86f46f8c4d12a73abb,Mężczyzna,26,2021-07-13_21h39.23.686,rantool2,2021.1.4,Win32,143.9263097,60ec9e86f46f8c4d12a73abb,60d9d14f4a8a35a482e0d9bf,60edebca371ddf148745d314,,,,,,,,,,,,
"[""comma""]",0,[0.194799999999816],67,0,67,0,1,60ec9e86f46f8c4d12a73abb,Mężczyzna,26,2021-07-13_21h39.23.686,rantool2,2021.1.4,Win32,143.9263097,60ec9e86f46f8c4d12a73abb,60d9d14f4a8a35a482e0d9bf,60edebca371ddf148745d314,,,,,,,,,,,,
"[""period""]",0,[0.20339999999993097],68,0,68,0,1,60ec9e86f46f8c4d12a73abb,Mężczyzna,26,2021-07-13_21h39.23.686,rantool2,2021.1.4,Win32,143.9263097,60ec9e86f46f8c4d12a73abb,60d9d14f4a8a35a482e0d9bf,60edebca371ddf148745d314,,,,,,,,,,,,
"[""period""]",0,[0.2192999999998051],69,0,69,0,1,60ec9e86f46f8c4d12a73abb,Mężczyzna,26,2021-07-13_21h39.23.686,rantool2,2021.1.4,Win32,143.9263097,60ec9e86f46f8c4d12a73abb,60d9d14f4a8a35a482e0d9bf,60edebca371ddf148745d314,,,,,,,,,,,,
"[""period""]",0,[0.06460000000006971],70,0,70,0,1,60ec9e86f46f8c4d12a73abb,Mężczyzna,26,2021-07-13_21h39.23.686,rantool2,2021.1.4,Win32,143.9263097,60ec9e86f46f8c4d12a73abb,60d9d14f4a8a35a482e0d9bf,60edebca371ddf148745d314,,,,,,,,,,,,
"[""comma""]",0,[0.04970000000017194],71,0,71,0,1,60ec9e86f46f8c4d12a73abb,Mężczyzna,26,2021-07-13_21h39.23.686,rantool2,2021.1.4,Win32,143.9263097,60ec9e86f46f8c4d12a73abb,60d9d14f4a8a35a482e0d9bf,60edebca371ddf148745d314,,,,,,,,,,,,
"[""comma""]",0,[-0.004600000000095861],72,0,72,0,1,60ec9e86f46f8c4d12a73abb,Mężczyzna,26,2021-07-13_21h39.23.686,rantool2,2021.1.4,Win32,143.9263097,60ec9e86f46f8c4d12a73abb,60d9d14f4a8a35a482e0d9bf,60edebca371ddf148745d314,,,,,,,,,,,,
"[""comma""]",0,[0.035299999999807596],73,0,73,0,1,60ec9e86f46f8c4d12a73abb,Mężczyzna,26,2021-07-13_21h39.23.686,rantool2,2021.1.4,Win32,143.9263097,60ec9e86f46f8c4d12a73abb,60d9d14f4a8a35a482e0d9bf,60edebca371ddf148745d314,,,,,,,,,,,,
"[""period"",""comma""]",0,"[0.011200000000201271,1.9071000000000993]",74,0,74,0,1,60ec9e86f46f8c4d12a73abb,Mężczyzna,26,2021-07-13_21h39.23.686,rantool2,2021.1.4,Win32,143.9263097,60ec9e86f46f8c4d12a73abb,60d9d14f4a8a35a482e0d9bf,60edebca371ddf148745d314,,,,,,,,,,,,
0,0,,75,0,75,0,1,60ec9e86f46f8c4d12a73abb,Mężczyzna,26,2021-07-13_21h39.23.686,rantool2,2021.1.4,Win32,143.9263097,60ec9e86f46f8c4d12a73abb,60d9d14f4a8a35a482e0d9bf,60edebca371ddf148745d314,,,,,,,,,,,,
"[""period""]",0,[0.11380000000025348],76,0,76,0,1,60ec9e86f46f8c4d12a73abb,Mężczyzna,26,2021-07-13_21h39.23.686,rantool2,2021.1.4,Win32,143.9263097,60ec9e86f46f8c4d12a73abb,60d9d14f4a8a35a482e0d9bf,60edebca371ddf148745d314,,,,,,,,,,,,
"[""period""]",0,[0.1875],77,0,77,0,1,60ec9e86f46f8c4d12a73abb,Mężczyzna,26,2021-07-13_21h39.23.686,rantool2,2021.1.4,Win32,143.9263097,60ec9e86f46f8c4d12a73abb,60d9d14f4a8a35a482e0d9bf,60edebca371ddf148745d314,,,,,,,,,,,,
"[""comma""]",0,[0.019100000000094042],78,0,78,0,1,60ec9e86f46f8c4d12a73abb,Mężczyzna,26,2021-07-13_21h39.23.686,rantool2,2021.1.4,Win32,143.9263097,60ec9e86f46f8c4d12a73abb,60d9d14f4a8a35a482e0d9bf,60edebca371ddf148745d314,,,,,,,,,,,,
"[""comma""]",0,[0.011200000000201271],79,0,79,0,1,60ec9e86f46f8c4d12a73abb,Mężczyzna,26,2021-07-13_21h39.23.686,rantool2,2021.1.4,Win32,143.9263097,60ec9e86f46f8c4d12a73abb,60d9d14f4a8a35a482e0d9bf,60edebca371ddf148745d314,,,,,,,,,,,,
"[""comma""]",0,[0.0892000000001758],80,0,80,0,1,60ec9e86f46f8c4d12a73abb,Mężczyzna,26,2021-07-13_21h39.23.686,rantool2,2021.1.4,Win32,143.9263097,60ec9e86f46f8c4d12a73abb,60d9d14f4a8a35a482e0d9bf,60edebca371ddf148745d314,,,,,,,,,,,,
"[""comma"",""period""]",0,"[0.1705000000000041,1.962399999999917]",81,0,81,0,1,60ec9e86f46f8c4d12a73abb,Mężczyzna,26,2021-07-13_21h39.23.686,rantool2,2021.1.4,Win32,143.9263097,60ec9e86f46f8c4d12a73abb,60d9d14f4a8a35a482e0d9bf,60edebca371ddf148745d314,,,,,,,,,,,,
0,0,,82,0,82,0,1,60ec9e86f46f8c4d12a73abb,Mężczyzna,26,2021-07-13_21h39.23.686,rantool2,2021.1.4,Win32,143.9263097,60ec9e86f46f8c4d12a73abb,60d9d14f4a8a35a482e0d9bf,60edebca371ddf148745d314,,,,,,,,,,,,
"[""period""]",0,[0.1791000000000622],83,0,83,0,1,60ec9e86f46f8c4d12a73abb,Mężczyzna,26,2021-07-13_21h39.23.686,rantool2,2021.1.4,Win32,143.9263097,60ec9e86f46f8c4d12a73abb,60d9d14f4a8a35a482e0d9bf,60edebca371ddf148745d314,,,,,,,,,,,,
"[""comma""]",0,[0.17020000000019309],84,0,84,0,1,60ec9e86f46f8c4d12a73abb,Mężczyzna,26,2021-07-13_21h39.23.686,rantool2,2021.1.4,Win32,143.9263097,60ec9e86f46f8c4d12a73abb,60d9d14f4a8a35a482e0d9bf,60edebca371ddf148745d314,,,,,,,,,,,,
"[""period"",""comma""]",0,"[0.05899999999996908,1.9470000000000027]",85,0,85,0,1,60ec9e86f46f8c4d12a73abb,Mężczyzna,26,2021-07-13_21h39.23.686,rantool2,2021.1.4,Win32,143.9263097,60ec9e86f46f8c4d12a73abb,60d9d14f4a8a35a482e0d9bf,60edebca371ddf148745d314,,,,,,,,,,,,
0,0,,86,0,86,0,1,60ec9e86f46f8c4d12a73abb,Mężczyzna,26,2021-07-13_21h39.23.686,rantool2,2021.1.4,Win32,143.9263097,60ec9e86f46f8c4d12a73abb,60d9d14f4a8a35a482e0d9bf,60edebca371ddf148745d314,,,,,,,,,,,,
"[""period"",""comma""]",0,"[0.011100000000055843,1.9629999999999654]",87,0,87,0,1,60ec9e86f46f8c4d12a73abb,Mężczyzna,26,2021-07-13_21h39.23.686,rantool2,2021.1.4,Win32,143.9263097,60ec9e86f46f8c4d12a73abb,60d9d14f4a8a35a482e0d9bf,60edebca371ddf148745d314,,,,,,,,,,,,
"[""period""]",0,[1.9442999999998278],88,0,88,0,1,60ec9e86f46f8c4d12a73abb,Mężczyzna,26,2021-07-13_21h39.23.686,rantool2,2021.1.4,Win32,143.9263097,60ec9e86f46f8c4d12a73abb,60d9d14f4a8a35a482e0d9bf,60edebca371ddf148745d314,,,,,,,,,,,,
"[""comma""]",0,[1.9783999999999082],89,0,89,0,1,60ec9e86f46f8c4d12a73abb,Mężczyzna,26,2021-07-13_21h39.23.686,rantool2,2021.1.4,Win32,143.9263097,60ec9e86f46f8c4d12a73abb,60d9d14f4a8a35a482e0d9bf,60edebca371ddf148745d314,,,,,,,,,,,,
0,0,,90,0,90,0,1,60ec9e86f46f8c4d12a73abb,Mężczyzna,26,2021-07-13_21h39.23.686,rantool2,2021.1.4,Win32,143.9263097,60ec9e86f46f8c4d12a73abb,60d9d14f4a8a35a482e0d9bf,60edebca371ddf148745d314,,,,,,,,,,,,
"[""comma""]",0,[0.16300000000001091],91,0,91,0,1,60ec9e86f46f8c4d12a73abb,Mężczyzna,26,2021-07-13_21h39.23.686,rantool2,2021.1.4,Win32,143.9263097,60ec9e86f46f8c4d12a73abb,60d9d14f4a8a35a482e0d9bf,60edebca371ddf148745d314,,,,,,,,,,,,
"[""period"",""comma""]",0,"[0.09889999999990096,1.9876999999997338]",92,0,92,0,1,60ec9e86f46f8c4d12a73abb,Mężczyzna,26,2021-07-13_21h39.23.686,rantool2,2021.1.4,Win32,143.9263097,60ec9e86f46f8c4d12a73abb,60d9d14f4a8a35a482e0d9bf,60edebca371ddf148745d314,,,,,,,,,,,,
0,0,,93,0,93,0,1,60ec9e86f46f8c4d12a73abb,Mężczyzna,26,2021-07-13_21h39.23.686,rantool2,2021.1.4,Win32,143.9263097,60ec9e86f46f8c4d12a73abb,60d9d14f4a8a35a482e0d9bf,60edebca371ddf148745d314,,,,,,,,,,,,
"[""period""]",0,[0.1617999999998574],94,0,94,0,1,60ec9e86f46f8c4d12a73abb,Mężczyzna,26,2021-07-13_21h39.23.686,rantool2,2021.1.4,Win32,143.9263097,60ec9e86f46f8c4d12a73abb,60d9d14f4a8a35a482e0d9bf,60edebca371ddf148745d314,,,,,,,,,,,,
"[""comma"",""period""]",0,"[0.19469999999972742,1.9387999999997874]",95,0,95,0,1,60ec9e86f46f8c4d12a73abb,Mężczyzna,26,2021-07-13_21h39.23.686,rantool2,2021.1.4,Win32,143.9263097,60ec9e86f46f8c4d12a73abb,60d9d14f4a8a35a482e0d9bf,60edebca371ddf148745d314,,,,,,,,,,,,
"[""comma""]",0,[1.8756999999997106],96,0,96,0,1,60ec9e86f46f8c4d12a73abb,Mężczyzna,26,2021-07-13_21h39.23.686,rantool2,2021.1.4,Win32,143.9263097,60ec9e86f46f8c4d12a73abb,60d9d14f4a8a35a482e0d9bf,60edebca371ddf148745d314,,,,,,,,,,,,
0,0,,97,0,97,0,1,60ec9e86f46f8c4d12a73abb,Mężczyzna,26,2021-07-13_21h39.23.686,rantool2,2021.1.4,Win32,143.9263097,60ec9e86f46f8c4d12a73abb,60d9d14f4a8a35a482e0d9bf,60edebca371ddf148745d314,,,,,,,,,,,,
"[""period""]",0,[0.15479999999979555],98,0,98,0,1,60ec9e86f46f8c4d12a73abb,Mężczyzna,26,2021-07-13_21h39.23.686,rantool2,2021.1.4,Win32,143.9263097,60ec9e86f46f8c4d12a73abb,60d9d14f4a8a35a482e0d9bf,60edebca371ddf148745d314,,,,,,,,,,,,
"[""comma""]",0,[0.05069999999972197],99,0,99,0,1,60ec9e86f46f8c4d12a73abb,Mężczyzna,26,2021-07-13_21h39.23.686,rantool2,2021.1.4,Win32,143.9263097,60ec9e86f46f8c4d12a73abb,60d9d14f4a8a35a482e0d9bf,60edebca371ddf148745d314,,,,,,,,,,,,
"[""period""]",0,[0.11479999999983193],100,0,100,0,1,60ec9e86f46f8c4d12a73abb,Mężczyzna,26,2021-07-13_21h39.23.686,rantool2,2021.1.4,Win32,143.9263097,60ec9e86f46f8c4d12a73abb,60d9d14f4a8a35a482e0d9bf,60edebca371ddf148745d314,,,,,,,,,,,,
"[""comma""]",0,[0.1537999999998192],101,0,101,0,1,60ec9e86f46f8c4d12a73abb,Mężczyzna,26,2021-07-13_21h39.23.686,rantool2,2021.1.4,Win32,143.9263097,60ec9e86f46f8c4d12a73abb,60d9d14f4a8a35a482e0d9bf,60edebca371ddf148745d314,,,,,,,,,,,,
"[""period""]",0,[0.09079999999983102],102,0,102,0,1,60ec9e86f46f8c4d12a73abb,Mężczyzna,26,2021-07-13_21h39.23.686,rantool2,2021.1.4,Win32,143.9263097,60ec9e86f46f8c4d12a73abb,60d9d14f4a8a35a482e0d9bf,60edebca371ddf148745d314,,,,,,,,,,,,
"[""period"",""comma""]",0,"[0.15449999999998454,1.9792000000001622]",103,0,103,0,1,60ec9e86f46f8c4d12a73abb,Mężczyzna,26,2021-07-13_21h39.23.686,rantool2,2021.1.4,Win32,143.9263097,60ec9e86f46f8c4d12a73abb,60d9d14f4a8a35a482e0d9bf,60edebca371ddf148745d314,,,,,,,,,,,,
0,0,,104,0,104,0,1,60ec9e86f46f8c4d12a73abb,Mężczyzna,26,2021-07-13_21h39.23.686,rantool2,2021.1.4,Win32,143.9263097,60ec9e86f46f8c4d12a73abb,60d9d14f4a8a35a482e0d9bf,60edebca371ddf148745d314,,,,,,,,,,,,
"[""comma"",""period""]",0,"[0.008499999999969532,1.9603999999998791]",105,0,105,0,1,60ec9e86f46f8c4d12a73abb,Mężczyzna,26,2021-07-13_21h39.23.686,rantool2,2021.1.4,Win32,143.9263097,60ec9e86f46f8c4d12a73abb,60d9d14f4a8a35a482e0d9bf,60edebca371ddf148745d314,,,,,,,,,,,,
0,0,,106,0,106,0,1,60ec9e86f46f8c4d12a73abb,Mężczyzna,26,2021-07-13_21h39.23.686,rantool2,2021.1.4,Win32,143.9263097,60ec9e86f46f8c4d12a73abb,60d9d14f4a8a35a482e0d9bf,60edebca371ddf148745d314,,,,,,,,,,,,
"[""comma""]",0,[0.17869999999970787],107,0,107,0,1,60ec9e86f46f8c4d12a73abb,Mężczyzna,26,2021-07-13_21h39.23.686,rantool2,2021.1.4,Win32,143.9263097,60ec9e86f46f8c4d12a73abb,60d9d14f4a8a35a482e0d9bf,60edebca371ddf148745d314,,,,,,,,,,,,
"[""period""]",0,[0.16260000000011132],108,0,108,0,1,60ec9e86f46f8c4d12a73abb,Mężczyzna,26,2021-07-13_21h39.23.686,rantool2,2021.1.4,Win32,143.9263097,60ec9e86f46f8c4d12a73abb,60d9d14f4a8a35a482e0d9bf,60edebca371ddf148745d314,,,,,,,,,,,,
"[""comma""]",0,[0.18879999999978736],109,0,109,0,1,60ec9e86f46f8c4d12a73abb,Mężczyzna,26,2021-07-13_21h39.23.686,rantool2,2021.1.4,Win32,143.9263097,60ec9e86f46f8c4d12a73abb,60d9d14f4a8a35a482e0d9bf,60edebca371ddf148745d314,,,,,,,,,,,,
"[""comma""]",0,[0.08210000000008222],110,0,110,0,1,60ec9e86f46f8c4d12a73abb,Mężczyzna,26,2021-07-13_21h39.23.686,rantool2,2021.1.4,Win32,143.9263097,60ec9e86f46f8c4d12a73abb,60d9d14f4a8a35a482e0d9bf,60edebca371ddf148745d314,,,,,,,,,,,,
"[""period""]",0,[0.0738999999999237],111,0,111,0,1,60ec9e86f46f8c4d12a73abb,Mężczyzna,26,2021-07-13_21h39.23.686,rantool2,2021.1.4,Win32,143.9263097,60ec9e86f46f8c4d12a73abb,60d9d14f4a8a35a482e0d9bf,60edebca371ddf148745d314,,,,,,,,,,,,
"[""comma""]",0,[0.01850000000001728],112,0,112,0,1,60ec9e86f46f8c4d12a73abb,Mężczyzna,26,2021-07-13_21h39.23.686,rantool2,2021.1.4,Win32,143.9263097,60ec9e86f46f8c4d12a73abb,60d9d14f4a8a35a482e0d9bf,60edebca371ddf148745d314,,,,,,,,,,,,
"[""period"",""comma""]",0,"[0.0024999999999977263,1.7065000000000055]",113,0,113,0,1,60ec9e86f46f8c4d12a73abb,Mężczyzna,26,2021-07-13_21h39.23.686,rantool2,2021.1.4,Win32,143.9263097,60ec9e86f46f8c4d12a73abb,60d9d14f4a8a35a482e0d9bf,60edebca371ddf148745d314,,,,,,,,,,,,
0,0,,114,0,114,0,1,60ec9e86f46f8c4d12a73abb,Mężczyzna,26,2021-07-13_21h39.23.686,rantool2,2021.1.4,Win32,143.9263097,60ec9e86f46f8c4d12a73abb,60d9d14f4a8a35a482e0d9bf,60edebca371ddf148745d314,,,,,,,,,,,,
"[""period""]",0,[0.033999999999991815],115,0,115,0,1,60ec9e86f46f8c4d12a73abb,Mężczyzna,26,2021-07-13_21h39.23.686,rantool2,2021.1.4,Win32,143.9263097,60ec9e86f46f8c4d12a73abb,60d9d14f4a8a35a482e0d9bf,60edebca371ddf148745d314,,,,,,,,,,,,
"[""comma"",""period""]",0,"[0.0665000000000191,1.8662999999997965]",116,0,116,0,1,60ec9e86f46f8c4d12a73abb,Mężczyzna,26,2021-07-13_21h39.23.686,rantool2,2021.1.4,Win32,143.9263097,60ec9e86f46f8c4d12a73abb,60d9d14f4a8a35a482e0d9bf,60edebca371ddf148745d314,,,,,,,,,,,,
"[""comma""]",0,[1.946399999999926],117,0,117,0,1,60ec9e86f46f8c4d12a73abb,Mężczyzna,26,2021-07-13_21h39.23.686,rantool2,2021.1.4,Win32,143.9263097,60ec9e86f46f8c4d12a73abb,60d9d14f4a8a35a482e0d9bf,60edebca371ddf148745d314,,,,,,,,,,,,
0,0,,118,0,118,0,1,60ec9e86f46f8c4d12a73abb,Mężczyzna,26,2021-07-13_21h39.23.686,rantool2,2021.1.4,Win32,143.9263097,60ec9e86f46f8c4d12a73abb,60d9d14f4a8a35a482e0d9bf,60edebca371ddf148745d314,,,,,,,,,,,,
"[""period""]",0,[0.23179999999979373],119,0,119,0,1,60ec9e86f46f8c4d12a73abb,Mężczyzna,26,2021-07-13_21h39.23.686,rantool2,2021.1.4,Win32,143.9263097,60ec9e86f46f8c4d12a73abb,60d9d14f4a8a35a482e0d9bf,60edebca371ddf148745d314,,,,,,,,,,,,
,,,,,,,,60ec9e86f46f8c4d12a73abb,Mężczyzna,26,2021-07-13_21h39.23.686,rantool2,2021.1.4,Win32,143.9263097,60ec9e86f46f8c4d12a73abb,60d9d14f4a8a35a482e0d9bf,60edebca371ddf148745d314,f,1.8405,0,0,0,43,1,RORORRO,RORORRR,20.71309134,21.07490964,series_1
,,,,,,,,60ec9e86f46f8c4d12a73abb,Mężczyzna,26,2021-07-13_21h39.23.686,rantool2,2021.1.4,Win32,143.9263097,60ec9e86f46f8c4d12a73abb,60d9d14f4a8a35a482e0d9bf,60edebca371ddf148745d314,j,2.324,0,1,1,25,1,ORROORO,ORROORR,21.79500819,22.61624387,series_1
,,,,,,,,60ec9e86f46f8c4d12a73abb,Mężczyzna,26,2021-07-13_21h39.23.686,rantool2,2021.1.4,Win32,143.9263097,60ec9e86f46f8c4d12a73abb,60d9d14f4a8a35a482e0d9bf,60edebca371ddf148745d314,j,2.8782,0,2,2,21,1,ORORORO,ORORORR,20.39515459,22.06781359,series_1
,,,,,,,,60ec9e86f46f8c4d12a73abb,Mężczyzna,26,2021-07-13_21h39.23.686,rantool2,2021.1.4,Win32,143.9263097,60ec9e86f46f8c4d12a73abb,60d9d14f4a8a35a482e0d9bf,60edebca371ddf148745d314,f,1.7131,0,3,3,13,1,OORRORO,OORRORR,21.66733484,22.11181017,series_1
,,,,,,,,60ec9e86f46f8c4d12a73abb,Mężczyzna,26,2021-07-13_21h39.23.686,rantool2,2021.1.4,Win32,143.9263097,60ec9e86f46f8c4d12a73abb,60d9d14f4a8a35a482e0d9bf,60edebca371ddf148745d314,j,2.7641,0,4,4,1,1,OOOOORO,OOOOORR,19.92253567,20.74050628,series_1
,,,,,,,,60ec9e86f46f8c4d12a73abb,Mężczyzna,26,2021-07-13_21h39.23.686,rantool2,2021.1.4,Win32,143.9263097,60ec9e86f46f8c4d12a73abb,60d9d14f4a8a35a482e0d9bf,60edebca371ddf148745d314,j,1.811,0,5,5,50,1,RROOROO,RROOROR,21.73568164,22.02566557,series_1
,,,,,,,,60ec9e86f46f8c4d12a73abb,Mężczyzna,26,2021-07-13_21h39.23.686,rantool2,2021.1.4,Win32,143.9263097,60ec9e86f46f8c4d12a73abb,60d9d14f4a8a35a482e0d9bf,60edebca371ddf148745d314,f,1.5833,0,6,6,5,1,OOORORO,OOORORR,20.87963819,21.9921709,series_1
,,,,,,,,60ec9e86f46f8c4d12a73abb,Mężczyzna,26,2021-07-13_21h39.23.686,rantool2,2021.1.4,Win32,143.9263097,60ec9e86f46f8c4d12a73abb,60d9d14f4a8a35a482e0d9bf,60edebca371ddf148745d314,f,2.0414,0,7,7,29,1,ORRRORO,ORRRORR,22.00300695,22.12173012,series_1
,,,,,,,,60ec9e86f46f8c4d12a73abb,Mężczyzna,26,2021-07-13_21h39.23.686,rantool2,2021.1.4,Win32,143.9263097,60ec9e86f46f8c4d12a73abb,60d9d14f4a8a35a482e0d9bf,60edebca371ddf148745d314,j,1.4966,0,8,8,53,1,RRORORO,RRORORR,20.71309134,21.90565814,series_1
,,,,,,,,60ec9e86f46f8c4d12a73abb,Mężczyzna,26,2021-07-13_21h39.23.686,rantool2,2021.1.4,Win32,143.9263097,60ec9e86f46f8c4d12a73abb,60d9d14f4a8a35a482e0d9bf,60edebca371ddf148745d314,j,1.9482,0,9,9,4,1,OOOROOO,OOOROOR,19.91402015,21.21223021,series_1
,,,,,,,,60ec9e86f46f8c4d12a73abb,Mężczyzna,26,2021-07-13_21h39.23.686,rantool2,2021.1.4,Win32,143.9263097,60ec9e86f46f8c4d12a73abb,60d9d14f4a8a35a482e0d9bf,60edebca371ddf148745d314,f,1.4066,0,10,10,46,1,RORRROO,RORRROR,22.00300695,21.24781509,series_0
,,,,,,,,60ec9e86f46f8c4d12a73abb,Mężczyzna,26,2021-07-13_21h39.23.686,rantool2,2021.1.4,Win32,143.9263097,60ec9e86f46f8c4d12a73abb,60d9d14f4a8a35a482e0d9bf,60edebca371ddf148745d314,f,3.2058,0,11,11,60,1,RRRROOO,RRRROOR,22.10108823,22.15934078,series_1
,,,,,,,,60ec9e86f46f8c4d12a73abb,Mężczyzna,26,2021-07-13_21h39.23.686,rantool2,2021.1.4,Win32,143.9263097,60ec9e86f46f8c4d12a73abb,60d9d14f4a8a35a482e0d9bf,60edebca371ddf148745d314,j,1.3799,0,12,12,24,1,ORROOOO,ORROOOR,21.12383932,22.07102821,series_1
,,,,,,,,60ec9e86f46f8c4d12a73abb,Mężczyzna,26,2021-07-13_21h39.23.686,rantool2,2021.1.4,Win32,143.9263097,60ec9e86f46f8c4d12a73abb,60d9d14f4a8a35a482e0d9bf,60edebca371ddf148745d314,f,2.0024,0,13,13,52,1,RROROOO,RROROOR,22.18365867,22.11097995,series_0
,,,,,,,,60ec9e86f46f8c4d12a73abb,Mężczyzna,26,2021-07-13_21h39.23.686,rantool2,2021.1.4,Win32,143.9263097,60ec9e86f46f8c4d12a73abb,60d9d14f4a8a35a482e0d9bf,60edebca371ddf148745d314,j,1.5476,0,14,14,14,1,OORRROO,OORRROR,22.24142883,22.16977179,series_0
,,,,,,,,60ec9e86f46f8c4d12a73abb,Mężczyzna,26,2021-07-13_21h39.23.686,rantool2,2021.1.4,Win32,143.9263097,60ec9e86f46f8c4d12a73abb,60d9d14f4a8a35a482e0d9bf,60edebca371ddf148745d314,f,1.6981,0,15,15,61,1,RRRRORO,RRRRORR,21.81333602,21.17347734,series_0
,,,,,,,,60ec9e86f46f8c4d12a73abb,Mężczyzna,26,2021-07-13_21h39.23.686,rantool2,2021.1.4,Win32,143.9263097,60ec9e86f46f8c4d12a73abb,60d9d14f4a8a35a482e0d9bf,60edebca371ddf148745d314,f,1.5403,0,16,16,11,1,OORORRO,OORORRR,22.18365867,22.6797523,series_1
,,,,,,,,60ec9e86f46f8c4d12a73abb,Mężczyzna,26,2021-07-13_21h39.23.686,rantool2,2021.1.4,Win32,143.9263097,60ec9e86f46f8c4d12a73abb,60d9d14f4a8a35a482e0d9bf,60edebca371ddf148745d314,j,1.3937,0,17,17,38,1,ROORROO,ROORROR,21.79500819,21.36812781,series_0
,,,,,,,,60ec9e86f46f8c4d12a73abb,Mężczyzna,26,2021-07-13_21h39.23.686,rantool2,2021.1.4,Win32,143.9263097,60ec9e86f46f8c4d12a73abb,60d9d14f4a8a35a482e0d9bf,60edebca371ddf148745d314,j,1.3281,0,18,18,15,1,OORRRRO,OORRRRR,22.10108823,21.74922619,series_0
,,,,,,,,60ec9e86f46f8c4d12a73abb,Mężczyzna,26,2021-07-13_21h39.23.686,rantool2,2021.1.4,Win32,143.9263097,60ec9e86f46f8c4d12a73abb,60d9d14f4a8a35a482e0d9bf,60edebca371ddf148745d314,j,1.4511,0,19,19,51,1,RROORRO,RROORRR,21.89852628,22.02786418,series_1
,,,,,,,,60ec9e86f46f8c4d12a73abb,Mężczyzna,26,2021-07-13_21h39.23.686,rantool2,2021.1.4,Win32,143.9263097,60ec9e86f46f8c4d12a73abb,60d9d14f4a8a35a482e0d9bf,60edebca371ddf148745d314,f,2.1925,0,20,20,8,1,OOROOOO,OOROOOR,19.91402015,20.89823192,series_1
,,,,,,,,60ec9e86f46f8c4d12a73abb,Mężczyzna,26,2021-07-13_21h39.23.686,rantool2,2021.1.4,Win32,143.9263097,60ec9e86f46f8c4d12a73abb,60d9d14f4a8a35a482e0d9bf,60edebca371ddf148745d314,f,1.2883,0,21,21,63,1,RRRRRRO,RRRRRRR,21.35278725,19.62521613,series_0
,,,,,,,,60ec9e86f46f8c4d12a73abb,Mężczyzna,26,2021-07-13_21h39.23.686,rantool2,2021.1.4,Win32,143.9263097,60ec9e86f46f8c4d12a73abb,60d9d14f4a8a35a482e0d9bf,60edebca371ddf148745d314,j,0.8456,0,22,22,19,1,OROORRO,OROORRR,21.73568164,22.11181017,series_1
,,,,,,,,60ec9e86f46f8c4d12a73abb,Mężczyzna,26,2021-07-13_21h39.23.686,rantool2,2021.1.4,Win32,143.9263097,60ec9e86f46f8c4d12a73abb,60d9d14f4a8a35a482e0d9bf,60edebca371ddf148745d314,f,1.6473,0,23,23,3,1,OOOORRO,OOOORRR,20.90986523,21.74922619,series_1
,,,,,,,,60ec9e86f46f8c4d12a73abb,Mężczyzna,26,2021-07-13_21h39.23.686,rantool2,2021.1.4,Win32,143.9263097,60ec9e86f46f8c4d12a73abb,60d9d14f4a8a35a482e0d9bf,60edebca371ddf148745d314,j,1.4377,0,24,24,55,1,RRORRRO,RRORRRR,21.56657303,21.21223021,series_0
,,,,,,,,60ec9e86f46f8c4d12a73abb,Mężczyzna,26,2021-07-13_21h39.23.686,rantool2,2021.1.4,Win32,143.9263097,60ec9e86f46f8c4d12a73abb,60d9d14f4a8a35a482e0d9bf,60edebca371ddf148745d314,f,1.2432,0,25,25,35,1,ROOORRO,ROOORRR,21.76276513,22.16977179,series_1
,,,,,,,,60ec9e86f46f8c4d12a73abb,Mężczyzna,26,2021-07-13_21h39.23.686,rantool2,2021.1.4,Win32,143.9263097,60ec9e86f46f8c4d12a73abb,60d9d14f4a8a35a482e0d9bf,60edebca371ddf148745d314,j,0.9099,0,26,26,49,1,RROOORO,RROOORR,21.76276513,22.53364006,series_1
,,,,,,,,60ec9e86f46f8c4d12a73abb,Mężczyzna,26,2021-07-13_21h39.23.686,rantool2,2021.1.4,Win32,143.9263097,60ec9e86f46f8c4d12a73abb,60d9d14f4a8a35a482e0d9bf,60edebca371ddf148745d314,j,1.5687,0,27,27,59,1,RRRORRO,RRRORRR,21.56657303,20.89823192,series_0
,,,,,,,,60ec9e86f46f8c4d12a73abb,Mężczyzna,26,2021-07-13_21h39.23.686,rantool2,2021.1.4,Win32,143.9263097,60ec9e86f46f8c4d12a73abb,60d9d14f4a8a35a482e0d9bf,60edebca371ddf148745d314,j,1.8082,0,28,28,0,1,OOOOOOO,OOOOOOR,18.52739004,19.62521613,series_1
,,,,,,,,60ec9e86f46f8c4d12a73abb,Mężczyzna,26,2021-07-13_21h39.23.686,rantool2,2021.1.4,Win32,143.9263097,60ec9e86f46f8c4d12a73abb,60d9d14f4a8a35a482e0d9bf,60edebca371ddf148745d314,f,1.3821,0,29,29,28,1,ORRROOO,ORRROOR,22.24142883,22.53364006,series_1
,,,,,,,,60ec9e86f46f8c4d12a73abb,Mężczyzna,26,2021-07-13_21h39.23.686,rantool2,2021.1.4,Win32,143.9263097,60ec9e86f46f8c4d12a73abb,60d9d14f4a8a35a482e0d9bf,60edebca371ddf148745d314,f,1.5283,0,30,30,6,1,OOORROO,OOORROR,21.12383932,21.38562617,series_1
,,,,,,,,60ec9e86f46f8c4d12a73abb,Mężczyzna,26,2021-07-13_21h39.23.686,rantool2,2021.1.4,Win32,143.9263097,60ec9e86f46f8c4d12a73abb,60d9d14f4a8a35a482e0d9bf,60edebca371ddf148745d314,f,1.1784,0,31,31,40,1,ROROOOO,ROROOOR,20.87963819,21.37121559,series_1
,,,,,,,,60ec9e86f46f8c4d12a73abb,Mężczyzna,26,2021-07-13_21h39.23.686,rantool2,2021.1.4,Win32,143.9263097,60ec9e86f46f8c4d12a73abb,60d9d14f4a8a35a482e0d9bf,60edebca371ddf148745d314,j,1.2356,0,32,32,34,1,ROOOROO,ROOOROR,21.03750787,21.24781509,series_1
,,,,,,,,60ec9e86f46f8c4d12a73abb,Mężczyzna,26,2021-07-13_21h39.23.686,rantool2,2021.1.4,Win32,143.9263097,60ec9e86f46f8c4d12a73abb,60d9d14f4a8a35a482e0d9bf,60edebca371ddf148745d314,j,1.7927,0,33,33,58,1,RRROROO,RRROROR,22.1285618,21.37121559,series_0
,,,,,,,,60ec9e86f46f8c4d12a73abb,Mężczyzna,26,2021-07-13_21h39.23.686,rantool2,2021.1.4,Win32,143.9263097,60ec9e86f46f8c4d12a73abb,60d9d14f4a8a35a482e0d9bf,60edebca371ddf148745d314,f,1.5021,0,34,34,30,1,ORRRROO,ORRRROR,22.46748491,22.03072203,series_0
,,,,,,,,60ec9e86f46f8c4d12a73abb,Mężczyzna,26,2021-07-13_21h39.23.686,rantool2,2021.1.4,Win32,143.9263097,60ec9e86f46f8c4d12a73abb,60d9d14f4a8a35a482e0d9bf,60edebca371ddf148745d314,f,1.4921,0,35,35,44,1,RORROOO,RORROOR,21.66733484,22.02566557,series_1
,,,,,,,,60ec9e86f46f8c4d12a73abb,Mężczyzna,26,2021-07-13_21h39.23.686,rantool2,2021.1.4,Win32,143.9263097,60ec9e86f46f8c4d12a73abb,60d9d14f4a8a35a482e0d9bf,60edebca371ddf148745d314,f,0.9448,0,36,36,41,1,ROROORO,ROROORR,20.42602454,21.71443381,series_1
,,,,,,,,60ec9e86f46f8c4d12a73abb,Mężczyzna,26,2021-07-13_21h39.23.686,rantool2,2021.1.4,Win32,143.9263097,60ec9e86f46f8c4d12a73abb,60d9d14f4a8a35a482e0d9bf,60edebca371ddf148745d314,j,0.8614,0,37,37,27,1,ORRORRO,ORRORRR,21.55250791,22.2428857,series_1
,,,,,,,,60ec9e86f46f8c4d12a73abb,Mężczyzna,26,2021-07-13_21h39.23.686,rantool2,2021.1.4,Win32,143.9263097,60ec9e86f46f8c4d12a73abb,60d9d14f4a8a35a482e0d9bf,60edebca371ddf148745d314,f,1.2377,0,38,38,48,1,RROOOOO,RROOOOR,20.90986523,22.15934078,series_1
,,,,,,,,60ec9e86f46f8c4d12a73abb,Mężczyzna,26,2021-07-13_21h39.23.686,rantool2,2021.1.4,Win32,143.9263097,60ec9e86f46f8c4d12a73abb,60d9d14f4a8a35a482e0d9bf,60edebca371ddf148745d314,f,0.4519,0,39,39,54,1,RRORROO,RRORROR,21.55250791,20.9984461,series_0
,,,,,,,,60ec9e86f46f8c4d12a73abb,Mężczyzna,26,2021-07-13_21h39.23.686,rantool2,2021.1.4,Win32,143.9263097,60ec9e86f46f8c4d12a73abb,60d9d14f4a8a35a482e0d9bf,60edebca371ddf148745d314,j,1.1783,0,40,40,32,1,ROOOOOO,ROOOOOR,19.92253567,21.27974287,series_1
,,,,,,,,60ec9e86f46f8c4d12a73abb,Mężczyzna,26,2021-07-13_21h39.23.686,rantool2,2021.1.4,Win32,143.9263097,60ec9e86f46f8c4d12a73abb,60d9d14f4a8a35a482e0d9bf,60edebca371ddf148745d314,j,0.9887,0,41,41,56,1,RRROOOO,RRROOOR,21.6194508,22.31681875,series_1
,,,,,,,,60ec9e86f46f8c4d12a73abb,Mężczyzna,26,2021-07-13_21h39.23.686,rantool2,2021.1.4,Win32,143.9263097,60ec9e86f46f8c4d12a73abb,60d9d14f4a8a35a482e0d9bf,60edebca371ddf148745d314,f,0.7278,0,42,42,36,1,ROOROOO,ROOROOR,21.07991943,20.9984461,series_0
,,,,,,,,60ec9e86f46f8c4d12a73abb,Mężczyzna,26,2021-07-13_21h39.23.686,rantool2,2021.1.4,Win32,143.9263097,60ec9e86f46f8c4d12a73abb,60d9d14f4a8a35a482e0d9bf,60edebca371ddf148745d314,j,0.8628,0,43,43,42,1,ROROROO,ROROROR,20.39515459,19.8361834,series_0
,,,,,,,,60ec9e86f46f8c4d12a73abb,Mężczyzna,26,2021-07-13_21h39.23.686,rantool2,2021.1.4,Win32,143.9263097,60ec9e86f46f8c4d12a73abb,60d9d14f4a8a35a482e0d9bf,60edebca371ddf148745d314,j,1.3798,0,44,44,17,1,OROOORO,OROOORR,21.03750787,22.12173012,series_1
,,,,,,,,60ec9e86f46f8c4d12a73abb,Mężczyzna,26,2021-07-13_21h39.23.686,rantool2,2021.1.4,Win32,143.9263097,60ec9e86f46f8c4d12a73abb,60d9d14f4a8a35a482e0d9bf,60edebca371ddf148745d314,f,1.0073,0,45,45,47,1,RORRRRO,RORRRRR,21.81333602,21.02936224,series_0
,,,,,,,,60ec9e86f46f8c4d12a73abb,Mężczyzna,26,2021-07-13_21h39.23.686,rantool2,2021.1.4,Win32,143.9263097,60ec9e86f46f8c4d12a73abb,60d9d14f4a8a35a482e0d9bf,60edebca371ddf148745d314,f,1.266,0,46,46,20,1,OROROOO,OROROOR,21.31236711,21.90565814,series_1
,,,,,,,,60ec9e86f46f8c4d12a73abb,Mężczyzna,26,2021-07-13_21h39.23.686,rantool2,2021.1.4,Win32,143.9263097,60ec9e86f46f8c4d12a73abb,60d9d14f4a8a35a482e0d9bf,60edebca371ddf148745d314,j,0.9552,0,47,47,33,1,ROOOORO,ROOOORR,20.83779602,22.03072203,series_1
,,,,,,,,60ec9e86f46f8c4d12a73abb,Mężczyzna,26,2021-07-13_21h39.23.686,rantool2,2021.1.4,Win32,143.9263097,60ec9e86f46f8c4d12a73abb,60d9d14f4a8a35a482e0d9bf,60edebca371ddf148745d314,j,1.2462,0,48,48,23,1,ORORRRO,ORORRRR,22.1285618,21.9921709,series_0
,,,,,,,,60ec9e86f46f8c4d12a73abb,Mężczyzna,26,2021-07-13_21h39.23.686,rantool2,2021.1.4,Win32,143.9263097,60ec9e86f46f8c4d12a73abb,60d9d14f4a8a35a482e0d9bf,60edebca371ddf148745d314,f,1.0434,0,49,49,10,1,OOROROO,OOROROR,21.31236711,21.07490964,series_0
,,,,,,,,60ec9e86f46f8c4d12a73abb,Mężczyzna,26,2021-07-13_21h39.23.686,rantool2,2021.1.4,Win32,143.9263097,60ec9e86f46f8c4d12a73abb,60d9d14f4a8a35a482e0d9bf,60edebca371ddf148745d314,j,1.4854,0,50,50,45,1,RORRORO,RORRORR,20.78182524,21.22513037,series_1
,,,,,,,,60ec9e86f46f8c4d12a73abb,Mężczyzna,26,2021-07-13_21h39.23.686,rantool2,2021.1.4,Win32,143.9263097,60ec9e86f46f8c4d12a73abb,60d9d14f4a8a35a482e0d9bf,60edebca371ddf148745d314,f,1.1222,0,51,51,39,1,ROORRRO,ROORRRR,21.82425538,21.38562617,series_0
,,,,,,,,60ec9e86f46f8c4d12a73abb,Mężczyzna,26,2021-07-13_21h39.23.686,rantool2,2021.1.4,Win32,143.9263097,60ec9e86f46f8c4d12a73abb,60d9d14f4a8a35a482e0d9bf,60edebca371ddf148745d314,f,1.4794,0,52,52,57,1,RRROORO,RRROORR,21.82425538,22.07102821,series_1
,,,,,,,,60ec9e86f46f8c4d12a73abb,Mężczyzna,26,2021-07-13_21h39.23.686,rantool2,2021.1.4,Win32,143.9263097,60ec9e86f46f8c4d12a73abb,60d9d14f4a8a35a482e0d9bf,60edebca371ddf148745d314,j,1.0963,0,53,53,2,1,OOOOROO,OOOOROR,20.43051175,21.02936224,series_1
,,,,,,,,60ec9e86f46f8c4d12a73abb,Mężczyzna,26,2021-07-13_21h39.23.686,rantool2,2021.1.4,Win32,143.9263097,60ec9e86f46f8c4d12a73abb,60d9d14f4a8a35a482e0d9bf,60edebca371ddf148745d314,f,0.9341,0,54,54,37,1,ROORORO,ROORORR,20.42602454,21.57657071,series_1
,,,,,,,,60ec9e86f46f8c4d12a73abb,Mężczyzna,26,2021-07-13_21h39.23.686,rantool2,2021.1.4,Win32,143.9263097,60ec9e86f46f8c4d12a73abb,60d9d14f4a8a35a482e0d9bf,60edebca371ddf148745d314,f,1.0702,0,55,55,12,1,OORROOO,OORROOR,21.30250474,22.02786418,series_1
,,,,,,,,60ec9e86f46f8c4d12a73abb,Mężczyzna,26,2021-07-13_21h39.23.686,rantool2,2021.1.4,Win32,143.9263097,60ec9e86f46f8c4d12a73abb,60d9d14f4a8a35a482e0d9bf,60edebca371ddf148745d314,f,1.1403,0,56,56,9,1,OOROORO,OOROORR,21.07991943,22.2428857,series_1
,,,,,,,,60ec9e86f46f8c4d12a73abb,Mężczyzna,26,2021-07-13_21h39.23.686,rantool2,2021.1.4,Win32,143.9263097,60ec9e86f46f8c4d12a73abb,60d9d14f4a8a35a482e0d9bf,60edebca371ddf148745d314,f,1.3753,0,57,57,18,1,OROOROO,OROOROR,20.84860893,21.22513037,series_1
,,,,,,,,60ec9e86f46f8c4d12a73abb,Mężczyzna,26,2021-07-13_21h39.23.686,rantool2,2021.1.4,Win32,143.9263097,60ec9e86f46f8c4d12a73abb,60d9d14f4a8a35a482e0d9bf,60edebca371ddf148745d314,j,1.0935,0,58,58,62,1,RRRRROO,RRRRROR,22.16413392,21.27974287,series_0
,,,,,,,,60ec9e86f46f8c4d12a73abb,Mężczyzna,26,2021-07-13_21h39.23.686,rantool2,2021.1.4,Win32,143.9263097,60ec9e86f46f8c4d12a73abb,60d9d14f4a8a35a482e0d9bf,60edebca371ddf148745d314,f,0.7957,0,59,59,16,1,OROOOOO,OROOOOR,20.43051175,21.17347734,series_1
,,,,,,,,60ec9e86f46f8c4d12a73abb,Mężczyzna,26,2021-07-13_21h39.23.686,rantool2,2021.1.4,Win32,143.9263097,60ec9e86f46f8c4d12a73abb,60d9d14f4a8a35a482e0d9bf,60edebca371ddf148745d314,f,0.9523,0,60,60,22,1,ORORROO,ORORROR,22.02732763,21.57657071,series_0
,,,,,,,,60ec9e86f46f8c4d12a73abb,Mężczyzna,26,2021-07-13_21h39.23.686,rantool2,2021.1.4,Win32,143.9263097,60ec9e86f46f8c4d12a73abb,60d9d14f4a8a35a482e0d9bf,60edebca371ddf148745d314,f,1.1305,0,61,61,31,1,ORRRRRO,ORRRRRR,22.16413392,20.74050628,series_0
,,,,,,,,60ec9e86f46f8c4d12a73abb,Mężczyzna,26,2021-07-13_21h39.23.686,rantool2,2021.1.4,Win32,143.9263097,60ec9e86f46f8c4d12a73abb,60d9d14f4a8a35a482e0d9bf,60edebca371ddf148745d314,j,1.2009,0,62,62,7,1,OOORRRO,OOORRRR,21.6194508,21.899017,series_1
,,,,,,,,60ec9e86f46f8c4d12a73abb,Mężczyzna,26,2021-07-13_21h39.23.686,rantool2,2021.1.4,Win32,143.9263097,60ec9e86f46f8c4d12a73abb,60d9d14f4a8a35a482e0d9bf,60edebca371ddf148745d314,f,1.9308,0,63,63,26,1,ORROROO,ORROROR,22.02732763,21.71443381,series_0
