key_resp_5.keys,key_resp_5.corr,key_resp_5.rt,trials.thisRepN,trials.thisTrialN,trials.thisN,trials.thisIndex,trials.ran,id*,Płeć*,Wiek*,date,expName,psychopyVersion,OS,frameRate,id,STUDY_ID,SESSION_ID,key_resp_7.keys,key_resp_7.rt,trials_2.thisRepN,trials_2.thisTrialN,trials_2.thisN,trials_2.thisIndex,trials_2.ran,series_0,series_1,acss_0,acss_1,comparison
"[""comma"",""period""]",0,"[0.8088999999761626,1.6825000000000045]",0,0,0,0,1,5d03903f49c5dd00195ebc71,Mężczyzna,21,2021-07-13_21h02.59.243,rantool2,2021.1.4,Win32,60.00960154,5d03903f49c5dd00195ebc71,60d9d14f4a8a35a482e0d9bf,60ede34daba779027751d565,,,,,,,,,,,,
"[""period"",""period"",""period"",""period"",""period""]",0,"[0.6699999999999875,0.97380000001192,1.3829999999999956,1.6694000000059503,1.8260999999940282]",1,0,1,0,1,5d03903f49c5dd00195ebc71,Mężczyzna,21,2021-07-13_21h02.59.243,rantool2,2021.1.4,Win32,60.00960154,5d03903f49c5dd00195ebc71,60d9d14f4a8a35a482e0d9bf,60ede34daba779027751d565,,,,,,,,,,,,
"[""period"",""period"",""period"",""comma"",""comma"",""period"",""comma"",""period"",""period"",""comma"",""comma"",""period""]",0,"[0.0005000000000023874,0.13809999999404,0.38400000000000034,0.5179000000059659,0.7232999999821317,0.8495000000000061,1.0025999999940467,1.1826999999880883,1.3826999999880911,1.5660000000000025,1.7326999999880854,1.8864000000059633]",2,0,2,0,1,5d03903f49c5dd00195ebc71,Mężczyzna,21,2021-07-13_21h02.59.243,rantool2,2021.1.4,Win32,60.00960154,5d03903f49c5dd00195ebc71,60d9d14f4a8a35a482e0d9bf,60ede34daba779027751d565,,,,,,,,,,,,
"[""period"",""period"",""period"",""period"",""period"",""period"",""comma"",""period"",""comma"",""comma"",""comma"",""comma"",""comma""]",0,"[0.11620000001788355,0.20720000001787753,0.4233000000119205,0.5711000000238329,0.7268000000119201,0.8793000000119235,0.9997000000178815,1.1509999999999962,1.2761000000238454,1.449100000023833,1.5914999999999964,1.732300000011918,1.8594000000059623]",3,0,3,0,1,5d03903f49c5dd00195ebc71,Mężczyzna,21,2021-07-13_21h02.59.243,rantool2,2021.1.4,Win32,60.00960154,5d03903f49c5dd00195ebc71,60d9d14f4a8a35a482e0d9bf,60ede34daba779027751d565,,,,,,,,,,,,
"[""comma"",""comma"",""comma"",""period"",""comma"",""period"",""comma"",""period"",""comma"",""period"",""comma"",""period"",""comma"",""period"",""comma"",""period"",""comma"",""comma"",""comma"",""comma""]",0,"[0.017000000000010118,0.14989999997615655,0.29300000000000637,0.457599999994045,0.5998999999761594,0.7093999999761564,0.8092999999821302,0.9022999999821195,0.9691999999880778,1.0665000000000049,1.1330999999940445,1.1899999999999977,1.2658999999761562,1.3531999999880782,1.4325000000000045,1.5330999999940502,1.5665999999940396,1.7165000000000106,1.8406999999880895,1.9827999999821202]",4,0,4,0,1,5d03903f49c5dd00195ebc71,Mężczyzna,21,2021-07-13_21h02.59.243,rantool2,2021.1.4,Win32,60.00960154,5d03903f49c5dd00195ebc71,60d9d14f4a8a35a482e0d9bf,60ede34daba779027751d565,,,,,,,,,,,,
"[""comma"",""comma"",""comma"",""comma"",""comma"",""comma"",""period"",""comma""]",0,"[0.10499999999998977,0.26619999998807486,0.401099999994031,0.5685000000000002,0.7325999999940365,0.8991999999880704,1.7770999999940358,1.9653999999761567]",5,0,5,0,1,5d03903f49c5dd00195ebc71,Mężczyzna,21,2021-07-13_21h02.59.243,rantool2,2021.1.4,Win32,60.00960154,5d03903f49c5dd00195ebc71,60d9d14f4a8a35a482e0d9bf,60ede34daba779027751d565,,,,,,,,,,,,
"[""period"",""comma"",""period"",""comma"",""period""]",0,"[0.1415999999940425,0.2894000000059691,0.5175000000000125,0.6826999999880883,0.8654000000059625]",6,0,6,0,1,5d03903f49c5dd00195ebc71,Mężczyzna,21,2021-07-13_21h02.59.243,rantool2,2021.1.4,Win32,60.00960154,5d03903f49c5dd00195ebc71,60d9d14f4a8a35a482e0d9bf,60ede34daba779027751d565,,,,,,,,,,,,
"[""comma""]",0,[0.3503999999761618],7,0,7,0,1,5d03903f49c5dd00195ebc71,Mężczyzna,21,2021-07-13_21h02.59.243,rantool2,2021.1.4,Win32,60.00960154,5d03903f49c5dd00195ebc71,60d9d14f4a8a35a482e0d9bf,60ede34daba779027751d565,,,,,,,,,,,,
"[""period""]",0,[0.3668000000119207],8,0,8,0,1,5d03903f49c5dd00195ebc71,Mężczyzna,21,2021-07-13_21h02.59.243,rantool2,2021.1.4,Win32,60.00960154,5d03903f49c5dd00195ebc71,60d9d14f4a8a35a482e0d9bf,60ede34daba779027751d565,,,,,,,,,,,,
"[""comma""]",0,[0.352599999994041],9,0,9,0,1,5d03903f49c5dd00195ebc71,Mężczyzna,21,2021-07-13_21h02.59.243,rantool2,2021.1.4,Win32,60.00960154,5d03903f49c5dd00195ebc71,60d9d14f4a8a35a482e0d9bf,60ede34daba779027751d565,,,,,,,,,,,,
"[""comma""]",0,[0.27019999998807975],10,0,10,0,1,5d03903f49c5dd00195ebc71,Mężczyzna,21,2021-07-13_21h02.59.243,rantool2,2021.1.4,Win32,60.00960154,5d03903f49c5dd00195ebc71,60d9d14f4a8a35a482e0d9bf,60ede34daba779027751d565,,,,,,,,,,,,
"[""comma""]",0,[0.3502000000178924],11,0,11,0,1,5d03903f49c5dd00195ebc71,Mężczyzna,21,2021-07-13_21h02.59.243,rantool2,2021.1.4,Win32,60.00960154,5d03903f49c5dd00195ebc71,60d9d14f4a8a35a482e0d9bf,60ede34daba779027751d565,,,,,,,,,,,,
"[""comma""]",0,[0.5668000000119093],12,0,12,0,1,5d03903f49c5dd00195ebc71,Mężczyzna,21,2021-07-13_21h02.59.243,rantool2,2021.1.4,Win32,60.00960154,5d03903f49c5dd00195ebc71,60d9d14f4a8a35a482e0d9bf,60ede34daba779027751d565,,,,,,,,,,,,
"[""comma""]",0,[0.350299999982127],13,0,13,0,1,5d03903f49c5dd00195ebc71,Mężczyzna,21,2021-07-13_21h02.59.243,rantool2,2021.1.4,Win32,60.00960154,5d03903f49c5dd00195ebc71,60d9d14f4a8a35a482e0d9bf,60ede34daba779027751d565,,,,,,,,,,,,
"[""comma""]",0,[0.30930000001193036],14,0,14,0,1,5d03903f49c5dd00195ebc71,Mężczyzna,21,2021-07-13_21h02.59.243,rantool2,2021.1.4,Win32,60.00960154,5d03903f49c5dd00195ebc71,60d9d14f4a8a35a482e0d9bf,60ede34daba779027751d565,,,,,,,,,,,,
"[""period""]",0,[0.27489999997615655],15,0,15,0,1,5d03903f49c5dd00195ebc71,Mężczyzna,21,2021-07-13_21h02.59.243,rantool2,2021.1.4,Win32,60.00960154,5d03903f49c5dd00195ebc71,60d9d14f4a8a35a482e0d9bf,60ede34daba779027751d565,,,,,,,,,,,,
"[""period""]",0,[0.2668000000119264],16,0,16,0,1,5d03903f49c5dd00195ebc71,Mężczyzna,21,2021-07-13_21h02.59.243,rantool2,2021.1.4,Win32,60.00960154,5d03903f49c5dd00195ebc71,60d9d14f4a8a35a482e0d9bf,60ede34daba779027751d565,,,,,,,,,,,,
"[""period""]",0,[0.28279999998211736],17,0,17,0,1,5d03903f49c5dd00195ebc71,Mężczyzna,21,2021-07-13_21h02.59.243,rantool2,2021.1.4,Win32,60.00960154,5d03903f49c5dd00195ebc71,60d9d14f4a8a35a482e0d9bf,60ede34daba779027751d565,,,,,,,,,,,,
"[""comma""]",0,[0.21639999997614723],18,0,18,0,1,5d03903f49c5dd00195ebc71,Mężczyzna,21,2021-07-13_21h02.59.243,rantool2,2021.1.4,Win32,60.00960154,5d03903f49c5dd00195ebc71,60d9d14f4a8a35a482e0d9bf,60ede34daba779027751d565,,,,,,,,,,,,
"[""period""]",0,[0.22590000000595012],19,0,19,0,1,5d03903f49c5dd00195ebc71,Mężczyzna,21,2021-07-13_21h02.59.243,rantool2,2021.1.4,Win32,60.00960154,5d03903f49c5dd00195ebc71,60d9d14f4a8a35a482e0d9bf,60ede34daba779027751d565,,,,,,,,,,,,
"[""comma""]",0,[0.24250000000000682],20,0,20,0,1,5d03903f49c5dd00195ebc71,Mężczyzna,21,2021-07-13_21h02.59.243,rantool2,2021.1.4,Win32,60.00960154,5d03903f49c5dd00195ebc71,60d9d14f4a8a35a482e0d9bf,60ede34daba779027751d565,,,,,,,,,,,,
"[""comma""]",0,[0.25009999999403476],21,0,21,0,1,5d03903f49c5dd00195ebc71,Mężczyzna,21,2021-07-13_21h02.59.243,rantool2,2021.1.4,Win32,60.00960154,5d03903f49c5dd00195ebc71,60d9d14f4a8a35a482e0d9bf,60ede34daba779027751d565,,,,,,,,,,,,
"[""comma""]",0,[0.19329999998211633],22,0,22,0,1,5d03903f49c5dd00195ebc71,Mężczyzna,21,2021-07-13_21h02.59.243,rantool2,2021.1.4,Win32,60.00960154,5d03903f49c5dd00195ebc71,60d9d14f4a8a35a482e0d9bf,60ede34daba779027751d565,,,,,,,,,,,,
"[""comma""]",0,[0.21300000000000807],23,0,23,0,1,5d03903f49c5dd00195ebc71,Mężczyzna,21,2021-07-13_21h02.59.243,rantool2,2021.1.4,Win32,60.00960154,5d03903f49c5dd00195ebc71,60d9d14f4a8a35a482e0d9bf,60ede34daba779027751d565,,,,,,,,,,,,
"[""period""]",0,[0.3782999999821186],24,0,24,0,1,5d03903f49c5dd00195ebc71,Mężczyzna,21,2021-07-13_21h02.59.243,rantool2,2021.1.4,Win32,60.00960154,5d03903f49c5dd00195ebc71,60d9d14f4a8a35a482e0d9bf,60ede34daba779027751d565,,,,,,,,,,,,
"[""period""]",0,[0.2909999999999968],25,0,25,0,1,5d03903f49c5dd00195ebc71,Mężczyzna,21,2021-07-13_21h02.59.243,rantool2,2021.1.4,Win32,60.00960154,5d03903f49c5dd00195ebc71,60d9d14f4a8a35a482e0d9bf,60ede34daba779027751d565,,,,,,,,,,,,
"[""comma""]",0,[0.240200000017893],26,0,26,0,1,5d03903f49c5dd00195ebc71,Mężczyzna,21,2021-07-13_21h02.59.243,rantool2,2021.1.4,Win32,60.00960154,5d03903f49c5dd00195ebc71,60d9d14f4a8a35a482e0d9bf,60ede34daba779027751d565,,,,,,,,,,,,
"[""comma""]",0,[0.30030000001193],27,0,27,0,1,5d03903f49c5dd00195ebc71,Mężczyzna,21,2021-07-13_21h02.59.243,rantool2,2021.1.4,Win32,60.00960154,5d03903f49c5dd00195ebc71,60d9d14f4a8a35a482e0d9bf,60ede34daba779027751d565,,,,,,,,,,,,
"[""period""]",0,[0.24580000001191138],28,0,28,0,1,5d03903f49c5dd00195ebc71,Mężczyzna,21,2021-07-13_21h02.59.243,rantool2,2021.1.4,Win32,60.00960154,5d03903f49c5dd00195ebc71,60d9d14f4a8a35a482e0d9bf,60ede34daba779027751d565,,,,,,,,,,,,
"[""comma""]",0,[0.2189999999999941],29,0,29,0,1,5d03903f49c5dd00195ebc71,Mężczyzna,21,2021-07-13_21h02.59.243,rantool2,2021.1.4,Win32,60.00960154,5d03903f49c5dd00195ebc71,60d9d14f4a8a35a482e0d9bf,60ede34daba779027751d565,,,,,,,,,,,,
"[""period""]",0,[0.2371000000238439],30,0,30,0,1,5d03903f49c5dd00195ebc71,Mężczyzna,21,2021-07-13_21h02.59.243,rantool2,2021.1.4,Win32,60.00960154,5d03903f49c5dd00195ebc71,60d9d14f4a8a35a482e0d9bf,60ede34daba779027751d565,,,,,,,,,,,,
"[""period""]",0,[0.2383000000119182],31,0,31,0,1,5d03903f49c5dd00195ebc71,Mężczyzna,21,2021-07-13_21h02.59.243,rantool2,2021.1.4,Win32,60.00960154,5d03903f49c5dd00195ebc71,60d9d14f4a8a35a482e0d9bf,60ede34daba779027751d565,,,,,,,,,,,,
"[""comma""]",0,[0.23349999999999227],32,0,32,0,1,5d03903f49c5dd00195ebc71,Mężczyzna,21,2021-07-13_21h02.59.243,rantool2,2021.1.4,Win32,60.00960154,5d03903f49c5dd00195ebc71,60d9d14f4a8a35a482e0d9bf,60ede34daba779027751d565,,,,,,,,,,,,
"[""period"",""period""]",0,"[0.23890000000596956,1.966200000017892]",33,0,33,0,1,5d03903f49c5dd00195ebc71,Mężczyzna,21,2021-07-13_21h02.59.243,rantool2,2021.1.4,Win32,60.00960154,5d03903f49c5dd00195ebc71,60d9d14f4a8a35a482e0d9bf,60ede34daba779027751d565,,,,,,,,,,,,
0,0,,34,0,34,0,1,5d03903f49c5dd00195ebc71,Mężczyzna,21,2021-07-13_21h02.59.243,rantool2,2021.1.4,Win32,60.00960154,5d03903f49c5dd00195ebc71,60d9d14f4a8a35a482e0d9bf,60ede34daba779027751d565,,,,,,,,,,,,
"[""period""]",0,[0.2262999999821318],35,0,35,0,1,5d03903f49c5dd00195ebc71,Mężczyzna,21,2021-07-13_21h02.59.243,rantool2,2021.1.4,Win32,60.00960154,5d03903f49c5dd00195ebc71,60d9d14f4a8a35a482e0d9bf,60ede34daba779027751d565,,,,,,,,,,,,
"[""period""]",0,[0.31709999999404204],36,0,36,0,1,5d03903f49c5dd00195ebc71,Mężczyzna,21,2021-07-13_21h02.59.243,rantool2,2021.1.4,Win32,60.00960154,5d03903f49c5dd00195ebc71,60d9d14f4a8a35a482e0d9bf,60ede34daba779027751d565,,,,,,,,,,,,
"[""comma""]",0,[0.23829999998210383],37,0,37,0,1,5d03903f49c5dd00195ebc71,Mężczyzna,21,2021-07-13_21h02.59.243,rantool2,2021.1.4,Win32,60.00960154,5d03903f49c5dd00195ebc71,60d9d14f4a8a35a482e0d9bf,60ede34daba779027751d565,,,,,,,,,,,,
"[""comma""]",0,[0.15540000000595455],38,0,38,0,1,5d03903f49c5dd00195ebc71,Mężczyzna,21,2021-07-13_21h02.59.243,rantool2,2021.1.4,Win32,60.00960154,5d03903f49c5dd00195ebc71,60d9d14f4a8a35a482e0d9bf,60ede34daba779027751d565,,,,,,,,,,,,
"[""period""]",0,[0.22580000001190115],39,0,39,0,1,5d03903f49c5dd00195ebc71,Mężczyzna,21,2021-07-13_21h02.59.243,rantool2,2021.1.4,Win32,60.00960154,5d03903f49c5dd00195ebc71,60d9d14f4a8a35a482e0d9bf,60ede34daba779027751d565,,,,,,,,,,,,
"[""comma""]",0,[0.23349999999999227],40,0,40,0,1,5d03903f49c5dd00195ebc71,Mężczyzna,21,2021-07-13_21h02.59.243,rantool2,2021.1.4,Win32,60.00960154,5d03903f49c5dd00195ebc71,60d9d14f4a8a35a482e0d9bf,60ede34daba779027751d565,,,,,,,,,,,,
"[""comma""]",0,[0.18929999998212566],41,0,41,0,1,5d03903f49c5dd00195ebc71,Mężczyzna,21,2021-07-13_21h02.59.243,rantool2,2021.1.4,Win32,60.00960154,5d03903f49c5dd00195ebc71,60d9d14f4a8a35a482e0d9bf,60ede34daba779027751d565,,,,,,,,,,,,
"[""period""]",0,[0.23330000001189433],42,0,42,0,1,5d03903f49c5dd00195ebc71,Mężczyzna,21,2021-07-13_21h02.59.243,rantool2,2021.1.4,Win32,60.00960154,5d03903f49c5dd00195ebc71,60d9d14f4a8a35a482e0d9bf,60ede34daba779027751d565,,,,,,,,,,,,
"[""period""]",0,[0.25569999998808157],43,0,43,0,1,5d03903f49c5dd00195ebc71,Mężczyzna,21,2021-07-13_21h02.59.243,rantool2,2021.1.4,Win32,60.00960154,5d03903f49c5dd00195ebc71,60d9d14f4a8a35a482e0d9bf,60ede34daba779027751d565,,,,,,,,,,,,
"[""comma""]",0,[0.34590000000594046],44,0,44,0,1,5d03903f49c5dd00195ebc71,Mężczyzna,21,2021-07-13_21h02.59.243,rantool2,2021.1.4,Win32,60.00960154,5d03903f49c5dd00195ebc71,60d9d14f4a8a35a482e0d9bf,60ede34daba779027751d565,,,,,,,,,,,,
"[""comma""]",0,[0.47309999999404795],45,0,45,0,1,5d03903f49c5dd00195ebc71,Mężczyzna,21,2021-07-13_21h02.59.243,rantool2,2021.1.4,Win32,60.00960154,5d03903f49c5dd00195ebc71,60d9d14f4a8a35a482e0d9bf,60ede34daba779027751d565,,,,,,,,,,,,
"[""period""]",0,[0.3227000000179032],46,0,46,0,1,5d03903f49c5dd00195ebc71,Mężczyzna,21,2021-07-13_21h02.59.243,rantool2,2021.1.4,Win32,60.00960154,5d03903f49c5dd00195ebc71,60d9d14f4a8a35a482e0d9bf,60ede34daba779027751d565,,,,,,,,,,,,
"[""period""]",0,[0.23349999999999227],47,0,47,0,1,5d03903f49c5dd00195ebc71,Mężczyzna,21,2021-07-13_21h02.59.243,rantool2,2021.1.4,Win32,60.00960154,5d03903f49c5dd00195ebc71,60d9d14f4a8a35a482e0d9bf,60ede34daba779027751d565,,,,,,,,,,,,
"[""comma""]",0,[0.26059999999404226],48,0,48,0,1,5d03903f49c5dd00195ebc71,Mężczyzna,21,2021-07-13_21h02.59.243,rantool2,2021.1.4,Win32,60.00960154,5d03903f49c5dd00195ebc71,60d9d14f4a8a35a482e0d9bf,60ede34daba779027751d565,,,,,,,,,,,,
"[""comma""]",0,[0.47329999998211747],49,0,49,0,1,5d03903f49c5dd00195ebc71,Mężczyzna,21,2021-07-13_21h02.59.243,rantool2,2021.1.4,Win32,60.00960154,5d03903f49c5dd00195ebc71,60d9d14f4a8a35a482e0d9bf,60ede34daba779027751d565,,,,,,,,,,,,
"[""comma""]",0,[0.24980000001193048],50,0,50,0,1,5d03903f49c5dd00195ebc71,Mężczyzna,21,2021-07-13_21h02.59.243,rantool2,2021.1.4,Win32,60.00960154,5d03903f49c5dd00195ebc71,60d9d14f4a8a35a482e0d9bf,60ede34daba779027751d565,,,,,,,,,,,,
"[""comma""]",0,[0.2110999999940475],51,0,51,0,1,5d03903f49c5dd00195ebc71,Mężczyzna,21,2021-07-13_21h02.59.243,rantool2,2021.1.4,Win32,60.00960154,5d03903f49c5dd00195ebc71,60d9d14f4a8a35a482e0d9bf,60ede34daba779027751d565,,,,,,,,,,,,
"[""comma""]",0,[0.2560000000000002],52,0,52,0,1,5d03903f49c5dd00195ebc71,Mężczyzna,21,2021-07-13_21h02.59.243,rantool2,2021.1.4,Win32,60.00960154,5d03903f49c5dd00195ebc71,60d9d14f4a8a35a482e0d9bf,60ede34daba779027751d565,,,,,,,,,,,,
"[""period""]",0,[0.2614000000059491],53,0,53,0,1,5d03903f49c5dd00195ebc71,Mężczyzna,21,2021-07-13_21h02.59.243,rantool2,2021.1.4,Win32,60.00960154,5d03903f49c5dd00195ebc71,60d9d14f4a8a35a482e0d9bf,60ede34daba779027751d565,,,,,,,,,,,,
"[""period""]",0,[0.26679999998214043],54,0,54,0,1,5d03903f49c5dd00195ebc71,Mężczyzna,21,2021-07-13_21h02.59.243,rantool2,2021.1.4,Win32,60.00960154,5d03903f49c5dd00195ebc71,60d9d14f4a8a35a482e0d9bf,60ede34daba779027751d565,,,,,,,,,,,,
"[""period""]",0,[0.3024999999999807],55,0,55,0,1,5d03903f49c5dd00195ebc71,Mężczyzna,21,2021-07-13_21h02.59.243,rantool2,2021.1.4,Win32,60.00960154,5d03903f49c5dd00195ebc71,60d9d14f4a8a35a482e0d9bf,60ede34daba779027751d565,,,,,,,,,,,,
"[""comma""]",0,[0.25529999998209973],56,0,56,0,1,5d03903f49c5dd00195ebc71,Mężczyzna,21,2021-07-13_21h02.59.243,rantool2,2021.1.4,Win32,60.00960154,5d03903f49c5dd00195ebc71,60d9d14f4a8a35a482e0d9bf,60ede34daba779027751d565,,,,,,,,,,,,
"[""period""]",0,[0.2872000000178616],57,0,57,0,1,5d03903f49c5dd00195ebc71,Mężczyzna,21,2021-07-13_21h02.59.243,rantool2,2021.1.4,Win32,60.00960154,5d03903f49c5dd00195ebc71,60d9d14f4a8a35a482e0d9bf,60ede34daba779027751d565,,,,,,,,,,,,
"[""period""]",0,[0.008800000011916609],58,0,58,0,1,5d03903f49c5dd00195ebc71,Mężczyzna,21,2021-07-13_21h02.59.243,rantool2,2021.1.4,Win32,60.00960154,5d03903f49c5dd00195ebc71,60d9d14f4a8a35a482e0d9bf,60ede34daba779027751d565,,,,,,,,,,,,
"[""comma""]",0,[-0.02209999999402612],59,0,59,0,1,5d03903f49c5dd00195ebc71,Mężczyzna,21,2021-07-13_21h02.59.243,rantool2,2021.1.4,Win32,60.00960154,5d03903f49c5dd00195ebc71,60d9d14f4a8a35a482e0d9bf,60ede34daba779027751d565,,,,,,,,,,,,
"[""comma""]",0,[0.23080000001192502],60,0,60,0,1,5d03903f49c5dd00195ebc71,Mężczyzna,21,2021-07-13_21h02.59.243,rantool2,2021.1.4,Win32,60.00960154,5d03903f49c5dd00195ebc71,60d9d14f4a8a35a482e0d9bf,60ede34daba779027751d565,,,,,,,,,,,,
"[""period""]",0,[0.26739999997616337],61,0,61,0,1,5d03903f49c5dd00195ebc71,Mężczyzna,21,2021-07-13_21h02.59.243,rantool2,2021.1.4,Win32,60.00960154,5d03903f49c5dd00195ebc71,60d9d14f4a8a35a482e0d9bf,60ede34daba779027751d565,,,,,,,,,,,,
"[""period""]",0,[0.5091000000238353],62,0,62,0,1,5d03903f49c5dd00195ebc71,Mężczyzna,21,2021-07-13_21h02.59.243,rantool2,2021.1.4,Win32,60.00960154,5d03903f49c5dd00195ebc71,60d9d14f4a8a35a482e0d9bf,60ede34daba779027751d565,,,,,,,,,,,,
"[""period""]",0,[0.3838000000119166],63,0,63,0,1,5d03903f49c5dd00195ebc71,Mężczyzna,21,2021-07-13_21h02.59.243,rantool2,2021.1.4,Win32,60.00960154,5d03903f49c5dd00195ebc71,60d9d14f4a8a35a482e0d9bf,60ede34daba779027751d565,,,,,,,,,,,,
"[""period""]",0,[0.24309999999402976],64,0,64,0,1,5d03903f49c5dd00195ebc71,Mężczyzna,21,2021-07-13_21h02.59.243,rantool2,2021.1.4,Win32,60.00960154,5d03903f49c5dd00195ebc71,60d9d14f4a8a35a482e0d9bf,60ede34daba779027751d565,,,,,,,,,,,,
"[""period""]",0,[0.27170000001785866],65,0,65,0,1,5d03903f49c5dd00195ebc71,Mężczyzna,21,2021-07-13_21h02.59.243,rantool2,2021.1.4,Win32,60.00960154,5d03903f49c5dd00195ebc71,60d9d14f4a8a35a482e0d9bf,60ede34daba779027751d565,,,,,,,,,,,,
"[""period""]",0,[0.23649999999997817],66,0,66,0,1,5d03903f49c5dd00195ebc71,Mężczyzna,21,2021-07-13_21h02.59.243,rantool2,2021.1.4,Win32,60.00960154,5d03903f49c5dd00195ebc71,60d9d14f4a8a35a482e0d9bf,60ede34daba779027751d565,,,,,,,,,,,,
"[""period""]",0,[0.27769999998807293],67,0,67,0,1,5d03903f49c5dd00195ebc71,Mężczyzna,21,2021-07-13_21h02.59.243,rantool2,2021.1.4,Win32,60.00960154,5d03903f49c5dd00195ebc71,60d9d14f4a8a35a482e0d9bf,60ede34daba779027751d565,,,,,,,,,,,,
"[""period""]",0,[0.29909999999404135],68,0,68,0,1,5d03903f49c5dd00195ebc71,Mężczyzna,21,2021-07-13_21h02.59.243,rantool2,2021.1.4,Win32,60.00960154,5d03903f49c5dd00195ebc71,60d9d14f4a8a35a482e0d9bf,60ede34daba779027751d565,,,,,,,,,,,,
"[""period""]",0,[0.32779999998211906],69,0,69,0,1,5d03903f49c5dd00195ebc71,Mężczyzna,21,2021-07-13_21h02.59.243,rantool2,2021.1.4,Win32,60.00960154,5d03903f49c5dd00195ebc71,60d9d14f4a8a35a482e0d9bf,60ede34daba779027751d565,,,,,,,,,,,,
"[""comma""]",0,[0.3499999999999943],70,0,70,0,1,5d03903f49c5dd00195ebc71,Mężczyzna,21,2021-07-13_21h02.59.243,rantool2,2021.1.4,Win32,60.00960154,5d03903f49c5dd00195ebc71,60d9d14f4a8a35a482e0d9bf,60ede34daba779027751d565,,,,,,,,,,,,
"[""period""]",0,[0.36719999998808817],71,0,71,0,1,5d03903f49c5dd00195ebc71,Mężczyzna,21,2021-07-13_21h02.59.243,rantool2,2021.1.4,Win32,60.00960154,5d03903f49c5dd00195ebc71,60d9d14f4a8a35a482e0d9bf,60ede34daba779027751d565,,,,,,,,,,,,
"[""comma""]",0,[0.5804000000059659],72,0,72,0,1,5d03903f49c5dd00195ebc71,Mężczyzna,21,2021-07-13_21h02.59.243,rantool2,2021.1.4,Win32,60.00960154,5d03903f49c5dd00195ebc71,60d9d14f4a8a35a482e0d9bf,60ede34daba779027751d565,,,,,,,,,,,,
"[""comma""]",0,[0.32680000001190024],73,0,73,0,1,5d03903f49c5dd00195ebc71,Mężczyzna,21,2021-07-13_21h02.59.243,rantool2,2021.1.4,Win32,60.00960154,5d03903f49c5dd00195ebc71,60d9d14f4a8a35a482e0d9bf,60ede34daba779027751d565,,,,,,,,,,,,
"[""comma""]",0,[0.3801999999880934],74,0,74,0,1,5d03903f49c5dd00195ebc71,Mężczyzna,21,2021-07-13_21h02.59.243,rantool2,2021.1.4,Win32,60.00960154,5d03903f49c5dd00195ebc71,60d9d14f4a8a35a482e0d9bf,60ede34daba779027751d565,,,,,,,,,,,,
"[""period""]",0,[0.2997999999821275],75,0,75,0,1,5d03903f49c5dd00195ebc71,Mężczyzna,21,2021-07-13_21h02.59.243,rantool2,2021.1.4,Win32,60.00960154,5d03903f49c5dd00195ebc71,60d9d14f4a8a35a482e0d9bf,60ede34daba779027751d565,,,,,,,,,,,,
"[""period""]",0,[0.33340000000598025],76,0,76,0,1,5d03903f49c5dd00195ebc71,Mężczyzna,21,2021-07-13_21h02.59.243,rantool2,2021.1.4,Win32,60.00960154,5d03903f49c5dd00195ebc71,60d9d14f4a8a35a482e0d9bf,60ede34daba779027751d565,,,,,,,,,,,,
"[""comma""]",0,[0.25799999999998136],77,0,77,0,1,5d03903f49c5dd00195ebc71,Mężczyzna,21,2021-07-13_21h02.59.243,rantool2,2021.1.4,Win32,60.00960154,5d03903f49c5dd00195ebc71,60d9d14f4a8a35a482e0d9bf,60ede34daba779027751d565,,,,,,,,,,,,
"[""period""]",0,[0.7115999999940641],78,0,78,0,1,5d03903f49c5dd00195ebc71,Mężczyzna,21,2021-07-13_21h02.59.243,rantool2,2021.1.4,Win32,60.00960154,5d03903f49c5dd00195ebc71,60d9d14f4a8a35a482e0d9bf,60ede34daba779027751d565,,,,,,,,,,,,
"[""period""]",0,[1.0879999999999939],79,0,79,0,1,5d03903f49c5dd00195ebc71,Mężczyzna,21,2021-07-13_21h02.59.243,rantool2,2021.1.4,Win32,60.00960154,5d03903f49c5dd00195ebc71,60d9d14f4a8a35a482e0d9bf,60ede34daba779027751d565,,,,,,,,,,,,
"[""period""]",0,[1.0612999999821113],80,0,80,0,1,5d03903f49c5dd00195ebc71,Mężczyzna,21,2021-07-13_21h02.59.243,rantool2,2021.1.4,Win32,60.00960154,5d03903f49c5dd00195ebc71,60d9d14f4a8a35a482e0d9bf,60ede34daba779027751d565,,,,,,,,,,,,
0,0,,81,0,81,0,1,5d03903f49c5dd00195ebc71,Mężczyzna,21,2021-07-13_21h02.59.243,rantool2,2021.1.4,Win32,60.00960154,5d03903f49c5dd00195ebc71,60d9d14f4a8a35a482e0d9bf,60ede34daba779027751d565,,,,,,,,,,,,
"[""period""]",0,[0.2784000000059734],82,0,82,0,1,5d03903f49c5dd00195ebc71,Mężczyzna,21,2021-07-13_21h02.59.243,rantool2,2021.1.4,Win32,60.00960154,5d03903f49c5dd00195ebc71,60d9d14f4a8a35a482e0d9bf,60ede34daba779027751d565,,,,,,,,,,,,
"[""period""]",0,[0.2977000000178691],83,0,83,0,1,5d03903f49c5dd00195ebc71,Mężczyzna,21,2021-07-13_21h02.59.243,rantool2,2021.1.4,Win32,60.00960154,5d03903f49c5dd00195ebc71,60d9d14f4a8a35a482e0d9bf,60ede34daba779027751d565,,,,,,,,,,,,
"[""comma"",""period""]",0,"[0.2670999999940591,1.8664000000059673]",84,0,84,0,1,5d03903f49c5dd00195ebc71,Mężczyzna,21,2021-07-13_21h02.59.243,rantool2,2021.1.4,Win32,60.00960154,5d03903f49c5dd00195ebc71,60d9d14f4a8a35a482e0d9bf,60ede34daba779027751d565,,,,,,,,,,,,
0,0,,85,0,85,0,1,5d03903f49c5dd00195ebc71,Mężczyzna,21,2021-07-13_21h02.59.243,rantool2,2021.1.4,Win32,60.00960154,5d03903f49c5dd00195ebc71,60d9d14f4a8a35a482e0d9bf,60ede34daba779027751d565,,,,,,,,,,,,
"[""comma""]",0,[1.332600000023831],86,0,86,0,1,5d03903f49c5dd00195ebc71,Mężczyzna,21,2021-07-13_21h02.59.243,rantool2,2021.1.4,Win32,60.00960154,5d03903f49c5dd00195ebc71,60d9d14f4a8a35a482e0d9bf,60ede34daba779027751d565,,,,,,,,,,,,
"[""period""]",0,[0.45859999999404977],87,0,87,0,1,5d03903f49c5dd00195ebc71,Mężczyzna,21,2021-07-13_21h02.59.243,rantool2,2021.1.4,Win32,60.00960154,5d03903f49c5dd00195ebc71,60d9d14f4a8a35a482e0d9bf,60ede34daba779027751d565,,,,,,,,,,,,
"[""period""]",0,[0.21709999999404772],88,0,88,0,1,5d03903f49c5dd00195ebc71,Mężczyzna,21,2021-07-13_21h02.59.243,rantool2,2021.1.4,Win32,60.00960154,5d03903f49c5dd00195ebc71,60d9d14f4a8a35a482e0d9bf,60ede34daba779027751d565,,,,,,,,,,,,
"[""comma""]",0,[0.24099999999998545],89,0,89,0,1,5d03903f49c5dd00195ebc71,Mężczyzna,21,2021-07-13_21h02.59.243,rantool2,2021.1.4,Win32,60.00960154,5d03903f49c5dd00195ebc71,60d9d14f4a8a35a482e0d9bf,60ede34daba779027751d565,,,,,,,,,,,,
"[""period""]",0,[0.3033999999761363],90,0,90,0,1,5d03903f49c5dd00195ebc71,Mężczyzna,21,2021-07-13_21h02.59.243,rantool2,2021.1.4,Win32,60.00960154,5d03903f49c5dd00195ebc71,60d9d14f4a8a35a482e0d9bf,60ede34daba779027751d565,,,,,,,,,,,,
"[""period""]",0,[0.2463999999761768],91,0,91,0,1,5d03903f49c5dd00195ebc71,Mężczyzna,21,2021-07-13_21h02.59.243,rantool2,2021.1.4,Win32,60.00960154,5d03903f49c5dd00195ebc71,60d9d14f4a8a35a482e0d9bf,60ede34daba779027751d565,,,,,,,,,,,,
"[""comma""]",0,[0.3372000000179014],92,0,92,0,1,5d03903f49c5dd00195ebc71,Mężczyzna,21,2021-07-13_21h02.59.243,rantool2,2021.1.4,Win32,60.00960154,5d03903f49c5dd00195ebc71,60d9d14f4a8a35a482e0d9bf,60ede34daba779027751d565,,,,,,,,,,,,
"[""period""]",0,[0.32600000000002183],93,0,93,0,1,5d03903f49c5dd00195ebc71,Mężczyzna,21,2021-07-13_21h02.59.243,rantool2,2021.1.4,Win32,60.00960154,5d03903f49c5dd00195ebc71,60d9d14f4a8a35a482e0d9bf,60ede34daba779027751d565,,,,,,,,,,,,
"[""comma""]",0,[0.3208000000119],94,0,94,0,1,5d03903f49c5dd00195ebc71,Mężczyzna,21,2021-07-13_21h02.59.243,rantool2,2021.1.4,Win32,60.00960154,5d03903f49c5dd00195ebc71,60d9d14f4a8a35a482e0d9bf,60ede34daba779027751d565,,,,,,,,,,,,
"[""period""]",0,[0.2261999999880686],95,0,95,0,1,5d03903f49c5dd00195ebc71,Mężczyzna,21,2021-07-13_21h02.59.243,rantool2,2021.1.4,Win32,60.00960154,5d03903f49c5dd00195ebc71,60d9d14f4a8a35a482e0d9bf,60ede34daba779027751d565,,,,,,,,,,,,
"[""period""]",0,[0.3005999999940059],96,0,96,0,1,5d03903f49c5dd00195ebc71,Mężczyzna,21,2021-07-13_21h02.59.243,rantool2,2021.1.4,Win32,60.00960154,5d03903f49c5dd00195ebc71,60d9d14f4a8a35a482e0d9bf,60ede34daba779027751d565,,,,,,,,,,,,
"[""comma""]",0,[0.35030000001188455],97,0,97,0,1,5d03903f49c5dd00195ebc71,Mężczyzna,21,2021-07-13_21h02.59.243,rantool2,2021.1.4,Win32,60.00960154,5d03903f49c5dd00195ebc71,60d9d14f4a8a35a482e0d9bf,60ede34daba779027751d565,,,,,,,,,,,,
"[""comma""]",0,[0.25390000000601276],98,0,98,0,1,5d03903f49c5dd00195ebc71,Mężczyzna,21,2021-07-13_21h02.59.243,rantool2,2021.1.4,Win32,60.00960154,5d03903f49c5dd00195ebc71,60d9d14f4a8a35a482e0d9bf,60ede34daba779027751d565,,,,,,,,,,,,
"[""comma""]",0,[0.2528000000119164],99,0,99,0,1,5d03903f49c5dd00195ebc71,Mężczyzna,21,2021-07-13_21h02.59.243,rantool2,2021.1.4,Win32,60.00960154,5d03903f49c5dd00195ebc71,60d9d14f4a8a35a482e0d9bf,60ede34daba779027751d565,,,,,,,,,,,,
"[""period""]",0,[0.24690000000595091],100,0,100,0,1,5d03903f49c5dd00195ebc71,Mężczyzna,21,2021-07-13_21h02.59.243,rantool2,2021.1.4,Win32,60.00960154,5d03903f49c5dd00195ebc71,60d9d14f4a8a35a482e0d9bf,60ede34daba779027751d565,,,,,,,,,,,,
"[""period""]",0,[0.2710999999940782],101,0,101,0,1,5d03903f49c5dd00195ebc71,Mężczyzna,21,2021-07-13_21h02.59.243,rantool2,2021.1.4,Win32,60.00960154,5d03903f49c5dd00195ebc71,60d9d14f4a8a35a482e0d9bf,60ede34daba779027751d565,,,,,,,,,,,,
"[""period""]",0,[0.22869999998806634],102,0,102,0,1,5d03903f49c5dd00195ebc71,Mężczyzna,21,2021-07-13_21h02.59.243,rantool2,2021.1.4,Win32,60.00960154,5d03903f49c5dd00195ebc71,60d9d14f4a8a35a482e0d9bf,60ede34daba779027751d565,,,,,,,,,,,,
"[""period""]",0,[0.2336999999880618],103,0,103,0,1,5d03903f49c5dd00195ebc71,Mężczyzna,21,2021-07-13_21h02.59.243,rantool2,2021.1.4,Win32,60.00960154,5d03903f49c5dd00195ebc71,60d9d14f4a8a35a482e0d9bf,60ede34daba779027751d565,,,,,,,,,,,,
"[""period""]",0,[0.29440000000596456],104,0,104,0,1,5d03903f49c5dd00195ebc71,Mężczyzna,21,2021-07-13_21h02.59.243,rantool2,2021.1.4,Win32,60.00960154,5d03903f49c5dd00195ebc71,60d9d14f4a8a35a482e0d9bf,60ede34daba779027751d565,,,,,,,,,,,,
"[""period""]",0,[0.32740000000598],105,0,105,0,1,5d03903f49c5dd00195ebc71,Mężczyzna,21,2021-07-13_21h02.59.243,rantool2,2021.1.4,Win32,60.00960154,5d03903f49c5dd00195ebc71,60d9d14f4a8a35a482e0d9bf,60ede34daba779027751d565,,,,,,,,,,,,
"[""comma""]",0,[0.46649999999999636],106,0,106,0,1,5d03903f49c5dd00195ebc71,Mężczyzna,21,2021-07-13_21h02.59.243,rantool2,2021.1.4,Win32,60.00960154,5d03903f49c5dd00195ebc71,60d9d14f4a8a35a482e0d9bf,60ede34daba779027751d565,,,,,,,,,,,,
"[""period""]",0,[0.3617000000178905],107,0,107,0,1,5d03903f49c5dd00195ebc71,Mężczyzna,21,2021-07-13_21h02.59.243,rantool2,2021.1.4,Win32,60.00960154,5d03903f49c5dd00195ebc71,60d9d14f4a8a35a482e0d9bf,60ede34daba779027751d565,,,,,,,,,,,,
"[""period""]",0,[0.23720000001787866],108,0,108,0,1,5d03903f49c5dd00195ebc71,Mężczyzna,21,2021-07-13_21h02.59.243,rantool2,2021.1.4,Win32,60.00960154,5d03903f49c5dd00195ebc71,60d9d14f4a8a35a482e0d9bf,60ede34daba779027751d565,,,,,,,,,,,,
"[""period""]",0,[0.2941999999881091],109,0,109,0,1,5d03903f49c5dd00195ebc71,Mężczyzna,21,2021-07-13_21h02.59.243,rantool2,2021.1.4,Win32,60.00960154,5d03903f49c5dd00195ebc71,60d9d14f4a8a35a482e0d9bf,60ede34daba779027751d565,,,,,,,,,,,,
"[""comma""]",0,[0.2625000000000455],110,0,110,0,1,5d03903f49c5dd00195ebc71,Mężczyzna,21,2021-07-13_21h02.59.243,rantool2,2021.1.4,Win32,60.00960154,5d03903f49c5dd00195ebc71,60d9d14f4a8a35a482e0d9bf,60ede34daba779027751d565,,,,,,,,,,,,
"[""comma""]",0,[0.2999000000059482],111,0,111,0,1,5d03903f49c5dd00195ebc71,Mężczyzna,21,2021-07-13_21h02.59.243,rantool2,2021.1.4,Win32,60.00960154,5d03903f49c5dd00195ebc71,60d9d14f4a8a35a482e0d9bf,60ede34daba779027751d565,,,,,,,,,,,,
"[""period""]",0,[0.2936000000238437],112,0,112,0,1,5d03903f49c5dd00195ebc71,Mężczyzna,21,2021-07-13_21h02.59.243,rantool2,2021.1.4,Win32,60.00960154,5d03903f49c5dd00195ebc71,60d9d14f4a8a35a482e0d9bf,60ede34daba779027751d565,,,,,,,,,,,,
"[""comma""]",0,[0.33830000001194094],113,0,113,0,1,5d03903f49c5dd00195ebc71,Mężczyzna,21,2021-07-13_21h02.59.243,rantool2,2021.1.4,Win32,60.00960154,5d03903f49c5dd00195ebc71,60d9d14f4a8a35a482e0d9bf,60ede34daba779027751d565,,,,,,,,,,,,
"[""comma""]",0,[0.26309999999404],114,0,114,0,1,5d03903f49c5dd00195ebc71,Mężczyzna,21,2021-07-13_21h02.59.243,rantool2,2021.1.4,Win32,60.00960154,5d03903f49c5dd00195ebc71,60d9d14f4a8a35a482e0d9bf,60ede34daba779027751d565,,,,,,,,,,,,
"[""comma""]",0,[0.21679999998212907],115,0,115,0,1,5d03903f49c5dd00195ebc71,Mężczyzna,21,2021-07-13_21h02.59.243,rantool2,2021.1.4,Win32,60.00960154,5d03903f49c5dd00195ebc71,60d9d14f4a8a35a482e0d9bf,60ede34daba779027751d565,,,,,,,,,,,,
"[""period""]",0,[0.23340000000598593],116,0,116,0,1,5d03903f49c5dd00195ebc71,Mężczyzna,21,2021-07-13_21h02.59.243,rantool2,2021.1.4,Win32,60.00960154,5d03903f49c5dd00195ebc71,60d9d14f4a8a35a482e0d9bf,60ede34daba779027751d565,,,,,,,,,,,,
"[""period""]",0,[0.51309999999404],117,0,117,0,1,5d03903f49c5dd00195ebc71,Mężczyzna,21,2021-07-13_21h02.59.243,rantool2,2021.1.4,Win32,60.00960154,5d03903f49c5dd00195ebc71,60d9d14f4a8a35a482e0d9bf,60ede34daba779027751d565,,,,,,,,,,,,
"[""comma""]",0,[0.2907999999820845],118,0,118,0,1,5d03903f49c5dd00195ebc71,Mężczyzna,21,2021-07-13_21h02.59.243,rantool2,2021.1.4,Win32,60.00960154,5d03903f49c5dd00195ebc71,60d9d14f4a8a35a482e0d9bf,60ede34daba779027751d565,,,,,,,,,,,,
"[""comma""]",0,[0.29530000001187773],119,0,119,0,1,5d03903f49c5dd00195ebc71,Mężczyzna,21,2021-07-13_21h02.59.243,rantool2,2021.1.4,Win32,60.00960154,5d03903f49c5dd00195ebc71,60d9d14f4a8a35a482e0d9bf,60ede34daba779027751d565,,,,,,,,,,,,
,,,,,,,,5d03903f49c5dd00195ebc71,Mężczyzna,21,2021-07-13_21h02.59.243,rantool2,2021.1.4,Win32,60.00960154,5d03903f49c5dd00195ebc71,60d9d14f4a8a35a482e0d9bf,60ede34daba779027751d565,f,2.3335,0,0,0,2,1,OOOOROO,OOOOROR,20.43051175,21.02936224,series_1
,,,,,,,,5d03903f49c5dd00195ebc71,Mężczyzna,21,2021-07-13_21h02.59.243,rantool2,2021.1.4,Win32,60.00960154,5d03903f49c5dd00195ebc71,60d9d14f4a8a35a482e0d9bf,60ede34daba779027751d565,f,3.0828,0,1,1,27,1,ORRORRO,ORRORRR,21.55250791,22.2428857,series_1
,,,,,,,,5d03903f49c5dd00195ebc71,Mężczyzna,21,2021-07-13_21h02.59.243,rantool2,2021.1.4,Win32,60.00960154,5d03903f49c5dd00195ebc71,60d9d14f4a8a35a482e0d9bf,60ede34daba779027751d565,j,2.4761,0,2,2,26,1,ORROROO,ORROROR,22.02732763,21.71443381,series_0
,,,,,,,,5d03903f49c5dd00195ebc71,Mężczyzna,21,2021-07-13_21h02.59.243,rantool2,2021.1.4,Win32,60.00960154,5d03903f49c5dd00195ebc71,60d9d14f4a8a35a482e0d9bf,60ede34daba779027751d565,f,2.9221,0,3,3,18,1,OROOROO,OROOROR,20.84860893,21.22513037,series_1
,,,,,,,,5d03903f49c5dd00195ebc71,Mężczyzna,21,2021-07-13_21h02.59.243,rantool2,2021.1.4,Win32,60.00960154,5d03903f49c5dd00195ebc71,60d9d14f4a8a35a482e0d9bf,60ede34daba779027751d565,f,2.2504,0,4,4,36,1,ROOROOO,ROOROOR,21.07991943,20.9984461,series_0
,,,,,,,,5d03903f49c5dd00195ebc71,Mężczyzna,21,2021-07-13_21h02.59.243,rantool2,2021.1.4,Win32,60.00960154,5d03903f49c5dd00195ebc71,60d9d14f4a8a35a482e0d9bf,60ede34daba779027751d565,j,4.0641,0,5,5,25,1,ORROORO,ORROORR,21.79500819,22.61624387,series_1
,,,,,,,,5d03903f49c5dd00195ebc71,Mężczyzna,21,2021-07-13_21h02.59.243,rantool2,2021.1.4,Win32,60.00960154,5d03903f49c5dd00195ebc71,60d9d14f4a8a35a482e0d9bf,60ede34daba779027751d565,f,2.2343,0,6,6,47,1,RORRRRO,RORRRRR,21.81333602,21.02936224,series_0
,,,,,,,,5d03903f49c5dd00195ebc71,Mężczyzna,21,2021-07-13_21h02.59.243,rantool2,2021.1.4,Win32,60.00960154,5d03903f49c5dd00195ebc71,60d9d14f4a8a35a482e0d9bf,60ede34daba779027751d565,f,3.0142,0,7,7,34,1,ROOOROO,ROOOROR,21.03750787,21.24781509,series_1
,,,,,,,,5d03903f49c5dd00195ebc71,Mężczyzna,21,2021-07-13_21h02.59.243,rantool2,2021.1.4,Win32,60.00960154,5d03903f49c5dd00195ebc71,60d9d14f4a8a35a482e0d9bf,60ede34daba779027751d565,j,3.1497,0,8,8,6,1,OOORROO,OOORROR,21.12383932,21.38562617,series_1
,,,,,,,,5d03903f49c5dd00195ebc71,Mężczyzna,21,2021-07-13_21h02.59.243,rantool2,2021.1.4,Win32,60.00960154,5d03903f49c5dd00195ebc71,60d9d14f4a8a35a482e0d9bf,60ede34daba779027751d565,j,2.8318,0,9,9,9,1,OOROORO,OOROORR,21.07991943,22.2428857,series_1
,,,,,,,,5d03903f49c5dd00195ebc71,Mężczyzna,21,2021-07-13_21h02.59.243,rantool2,2021.1.4,Win32,60.00960154,5d03903f49c5dd00195ebc71,60d9d14f4a8a35a482e0d9bf,60ede34daba779027751d565,j,2.8725,0,10,10,54,1,RRORROO,RRORROR,21.55250791,20.9984461,series_0
,,,,,,,,5d03903f49c5dd00195ebc71,Mężczyzna,21,2021-07-13_21h02.59.243,rantool2,2021.1.4,Win32,60.00960154,5d03903f49c5dd00195ebc71,60d9d14f4a8a35a482e0d9bf,60ede34daba779027751d565,j,2.3107,0,11,11,58,1,RRROROO,RRROROR,22.1285618,21.37121559,series_0
,,,,,,,,5d03903f49c5dd00195ebc71,Mężczyzna,21,2021-07-13_21h02.59.243,rantool2,2021.1.4,Win32,60.00960154,5d03903f49c5dd00195ebc71,60d9d14f4a8a35a482e0d9bf,60ede34daba779027751d565,f,2.0939,0,12,12,41,1,ROROORO,ROROORR,20.42602454,21.71443381,series_1
,,,,,,,,5d03903f49c5dd00195ebc71,Mężczyzna,21,2021-07-13_21h02.59.243,rantool2,2021.1.4,Win32,60.00960154,5d03903f49c5dd00195ebc71,60d9d14f4a8a35a482e0d9bf,60ede34daba779027751d565,j,1.9359,0,13,13,42,1,ROROROO,ROROROR,20.39515459,19.8361834,series_0
,,,,,,,,5d03903f49c5dd00195ebc71,Mężczyzna,21,2021-07-13_21h02.59.243,rantool2,2021.1.4,Win32,60.00960154,5d03903f49c5dd00195ebc71,60d9d14f4a8a35a482e0d9bf,60ede34daba779027751d565,f,3.5868,0,14,14,24,1,ORROOOO,ORROOOR,21.12383932,22.07102821,series_1
,,,,,,,,5d03903f49c5dd00195ebc71,Mężczyzna,21,2021-07-13_21h02.59.243,rantool2,2021.1.4,Win32,60.00960154,5d03903f49c5dd00195ebc71,60d9d14f4a8a35a482e0d9bf,60ede34daba779027751d565,f,3.3757,0,15,15,10,1,OOROROO,OOROROR,21.31236711,21.07490964,series_0
,,,,,,,,5d03903f49c5dd00195ebc71,Mężczyzna,21,2021-07-13_21h02.59.243,rantool2,2021.1.4,Win32,60.00960154,5d03903f49c5dd00195ebc71,60d9d14f4a8a35a482e0d9bf,60ede34daba779027751d565,j,2.4652,0,16,16,13,1,OORRORO,OORRORR,21.66733484,22.11181017,series_1
,,,,,,,,5d03903f49c5dd00195ebc71,Mężczyzna,21,2021-07-13_21h02.59.243,rantool2,2021.1.4,Win32,60.00960154,5d03903f49c5dd00195ebc71,60d9d14f4a8a35a482e0d9bf,60ede34daba779027751d565,j,2.6228,0,17,17,22,1,ORORROO,ORORROR,22.02732763,21.57657071,series_0
,,,,,,,,5d03903f49c5dd00195ebc71,Mężczyzna,21,2021-07-13_21h02.59.243,rantool2,2021.1.4,Win32,60.00960154,5d03903f49c5dd00195ebc71,60d9d14f4a8a35a482e0d9bf,60ede34daba779027751d565,f,2.4816,0,18,18,56,1,RRROOOO,RRROOOR,21.6194508,22.31681875,series_1
,,,,,,,,5d03903f49c5dd00195ebc71,Mężczyzna,21,2021-07-13_21h02.59.243,rantool2,2021.1.4,Win32,60.00960154,5d03903f49c5dd00195ebc71,60d9d14f4a8a35a482e0d9bf,60ede34daba779027751d565,j,2.7931,0,19,19,61,1,RRRRORO,RRRRORR,21.81333602,21.17347734,series_0
,,,,,,,,5d03903f49c5dd00195ebc71,Mężczyzna,21,2021-07-13_21h02.59.243,rantool2,2021.1.4,Win32,60.00960154,5d03903f49c5dd00195ebc71,60d9d14f4a8a35a482e0d9bf,60ede34daba779027751d565,f,3.7816,0,20,20,17,1,OROOORO,OROOORR,21.03750787,22.12173012,series_1
,,,,,,,,5d03903f49c5dd00195ebc71,Mężczyzna,21,2021-07-13_21h02.59.243,rantool2,2021.1.4,Win32,60.00960154,5d03903f49c5dd00195ebc71,60d9d14f4a8a35a482e0d9bf,60ede34daba779027751d565,j,2.1481,0,21,21,44,1,RORROOO,RORROOR,21.66733484,22.02566557,series_1
,,,,,,,,5d03903f49c5dd00195ebc71,Mężczyzna,21,2021-07-13_21h02.59.243,rantool2,2021.1.4,Win32,60.00960154,5d03903f49c5dd00195ebc71,60d9d14f4a8a35a482e0d9bf,60ede34daba779027751d565,j,2.9305,0,22,22,49,1,RROOORO,RROOORR,21.76276513,22.53364006,series_1
,,,,,,,,5d03903f49c5dd00195ebc71,Mężczyzna,21,2021-07-13_21h02.59.243,rantool2,2021.1.4,Win32,60.00960154,5d03903f49c5dd00195ebc71,60d9d14f4a8a35a482e0d9bf,60ede34daba779027751d565,j,2.5683,0,23,23,19,1,OROORRO,OROORRR,21.73568164,22.11181017,series_1
,,,,,,,,5d03903f49c5dd00195ebc71,Mężczyzna,21,2021-07-13_21h02.59.243,rantool2,2021.1.4,Win32,60.00960154,5d03903f49c5dd00195ebc71,60d9d14f4a8a35a482e0d9bf,60ede34daba779027751d565,j,1.9873,0,24,24,60,1,RRRROOO,RRRROOR,22.10108823,22.15934078,series_1
,,,,,,,,5d03903f49c5dd00195ebc71,Mężczyzna,21,2021-07-13_21h02.59.243,rantool2,2021.1.4,Win32,60.00960154,5d03903f49c5dd00195ebc71,60d9d14f4a8a35a482e0d9bf,60ede34daba779027751d565,j,1.74,0,25,25,63,1,RRRRRRO,RRRRRRR,21.35278725,19.62521613,series_0
,,,,,,,,5d03903f49c5dd00195ebc71,Mężczyzna,21,2021-07-13_21h02.59.243,rantool2,2021.1.4,Win32,60.00960154,5d03903f49c5dd00195ebc71,60d9d14f4a8a35a482e0d9bf,60ede34daba779027751d565,j,2.2915,0,26,26,0,1,OOOOOOO,OOOOOOR,18.52739004,19.62521613,series_1
,,,,,,,,5d03903f49c5dd00195ebc71,Mężczyzna,21,2021-07-13_21h02.59.243,rantool2,2021.1.4,Win32,60.00960154,5d03903f49c5dd00195ebc71,60d9d14f4a8a35a482e0d9bf,60ede34daba779027751d565,j,3.468,0,27,27,30,1,ORRRROO,ORRRROR,22.46748491,22.03072203,series_0
,,,,,,,,5d03903f49c5dd00195ebc71,Mężczyzna,21,2021-07-13_21h02.59.243,rantool2,2021.1.4,Win32,60.00960154,5d03903f49c5dd00195ebc71,60d9d14f4a8a35a482e0d9bf,60ede34daba779027751d565,f,2.3814,0,28,28,33,1,ROOOORO,ROOOORR,20.83779602,22.03072203,series_1
,,,,,,,,5d03903f49c5dd00195ebc71,Mężczyzna,21,2021-07-13_21h02.59.243,rantool2,2021.1.4,Win32,60.00960154,5d03903f49c5dd00195ebc71,60d9d14f4a8a35a482e0d9bf,60ede34daba779027751d565,f,2.1066,0,29,29,46,1,RORRROO,RORRROR,22.00300695,21.24781509,series_0
,,,,,,,,5d03903f49c5dd00195ebc71,Mężczyzna,21,2021-07-13_21h02.59.243,rantool2,2021.1.4,Win32,60.00960154,5d03903f49c5dd00195ebc71,60d9d14f4a8a35a482e0d9bf,60ede34daba779027751d565,f,1.8503,0,30,30,38,1,ROORROO,ROORROR,21.79500819,21.36812781,series_0
,,,,,,,,5d03903f49c5dd00195ebc71,Mężczyzna,21,2021-07-13_21h02.59.243,rantool2,2021.1.4,Win32,60.00960154,5d03903f49c5dd00195ebc71,60d9d14f4a8a35a482e0d9bf,60ede34daba779027751d565,j,3.9731,0,31,31,20,1,OROROOO,OROROOR,21.31236711,21.90565814,series_1
,,,,,,,,5d03903f49c5dd00195ebc71,Mężczyzna,21,2021-07-13_21h02.59.243,rantool2,2021.1.4,Win32,60.00960154,5d03903f49c5dd00195ebc71,60d9d14f4a8a35a482e0d9bf,60ede34daba779027751d565,f,2.3563,0,32,32,31,1,ORRRRRO,ORRRRRR,22.16413392,20.74050628,series_0
,,,,,,,,5d03903f49c5dd00195ebc71,Mężczyzna,21,2021-07-13_21h02.59.243,rantool2,2021.1.4,Win32,60.00960154,5d03903f49c5dd00195ebc71,60d9d14f4a8a35a482e0d9bf,60ede34daba779027751d565,j,3.1973,0,33,33,43,1,RORORRO,RORORRR,20.71309134,21.07490964,series_1
,,,,,,,,5d03903f49c5dd00195ebc71,Mężczyzna,21,2021-07-13_21h02.59.243,rantool2,2021.1.4,Win32,60.00960154,5d03903f49c5dd00195ebc71,60d9d14f4a8a35a482e0d9bf,60ede34daba779027751d565,f,3.9067,0,34,34,37,1,ROORORO,ROORORR,20.42602454,21.57657071,series_1
,,,,,,,,5d03903f49c5dd00195ebc71,Mężczyzna,21,2021-07-13_21h02.59.243,rantool2,2021.1.4,Win32,60.00960154,5d03903f49c5dd00195ebc71,60d9d14f4a8a35a482e0d9bf,60ede34daba779027751d565,f,3.8516,0,35,35,7,1,OOORRRO,OOORRRR,21.6194508,21.899017,series_1
,,,,,,,,5d03903f49c5dd00195ebc71,Mężczyzna,21,2021-07-13_21h02.59.243,rantool2,2021.1.4,Win32,60.00960154,5d03903f49c5dd00195ebc71,60d9d14f4a8a35a482e0d9bf,60ede34daba779027751d565,f,3.8146,0,36,36,45,1,RORRORO,RORRORR,20.78182524,21.22513037,series_1
,,,,,,,,5d03903f49c5dd00195ebc71,Mężczyzna,21,2021-07-13_21h02.59.243,rantool2,2021.1.4,Win32,60.00960154,5d03903f49c5dd00195ebc71,60d9d14f4a8a35a482e0d9bf,60ede34daba779027751d565,j,2.3336,0,37,37,52,1,RROROOO,RROROOR,22.18365867,22.11097995,series_0
,,,,,,,,5d03903f49c5dd00195ebc71,Mężczyzna,21,2021-07-13_21h02.59.243,rantool2,2021.1.4,Win32,60.00960154,5d03903f49c5dd00195ebc71,60d9d14f4a8a35a482e0d9bf,60ede34daba779027751d565,j,2.6484,0,38,38,35,1,ROOORRO,ROOORRR,21.76276513,22.16977179,series_1
,,,,,,,,5d03903f49c5dd00195ebc71,Mężczyzna,21,2021-07-13_21h02.59.243,rantool2,2021.1.4,Win32,60.00960154,5d03903f49c5dd00195ebc71,60d9d14f4a8a35a482e0d9bf,60ede34daba779027751d565,,,0,39,39,32,1,ROOOOOO,ROOOOOR,19.92253567,21.27974287,series_1
,,,,,,,,5d03903f49c5dd00195ebc71,Mężczyzna,21,2021-07-13_21h02.59.243,rantool2,2021.1.4,Win32,60.00960154,5d03903f49c5dd00195ebc71,60d9d14f4a8a35a482e0d9bf,60ede34daba779027751d565,j,0.6902,0,40,40,8,1,OOROOOO,OOROOOR,19.91402015,20.89823192,series_1
,,,,,,,,5d03903f49c5dd00195ebc71,Mężczyzna,21,2021-07-13_21h02.59.243,rantool2,2021.1.4,Win32,60.00960154,5d03903f49c5dd00195ebc71,60d9d14f4a8a35a482e0d9bf,60ede34daba779027751d565,j,2.7984,0,41,41,16,1,OROOOOO,OROOOOR,20.43051175,21.17347734,series_1
,,,,,,,,5d03903f49c5dd00195ebc71,Mężczyzna,21,2021-07-13_21h02.59.243,rantool2,2021.1.4,Win32,60.00960154,5d03903f49c5dd00195ebc71,60d9d14f4a8a35a482e0d9bf,60ede34daba779027751d565,f,1.9161,0,42,42,48,1,RROOOOO,RROOOOR,20.90986523,22.15934078,series_1
,,,,,,,,5d03903f49c5dd00195ebc71,Mężczyzna,21,2021-07-13_21h02.59.243,rantool2,2021.1.4,Win32,60.00960154,5d03903f49c5dd00195ebc71,60d9d14f4a8a35a482e0d9bf,60ede34daba779027751d565,j,2.5978,0,43,43,14,1,OORRROO,OORRROR,22.24142883,22.16977179,series_0
,,,,,,,,5d03903f49c5dd00195ebc71,Mężczyzna,21,2021-07-13_21h02.59.243,rantool2,2021.1.4,Win32,60.00960154,5d03903f49c5dd00195ebc71,60d9d14f4a8a35a482e0d9bf,60ede34daba779027751d565,f,2.74,0,44,44,57,1,RRROORO,RRROORR,21.82425538,22.07102821,series_1
,,,,,,,,5d03903f49c5dd00195ebc71,Mężczyzna,21,2021-07-13_21h02.59.243,rantool2,2021.1.4,Win32,60.00960154,5d03903f49c5dd00195ebc71,60d9d14f4a8a35a482e0d9bf,60ede34daba779027751d565,j,1.2912,0,45,45,40,1,ROROOOO,ROROOOR,20.87963819,21.37121559,series_1
,,,,,,,,5d03903f49c5dd00195ebc71,Mężczyzna,21,2021-07-13_21h02.59.243,rantool2,2021.1.4,Win32,60.00960154,5d03903f49c5dd00195ebc71,60d9d14f4a8a35a482e0d9bf,60ede34daba779027751d565,f,1.9237,0,46,46,21,1,ORORORO,ORORORR,20.39515459,22.06781359,series_1
,,,,,,,,5d03903f49c5dd00195ebc71,Mężczyzna,21,2021-07-13_21h02.59.243,rantool2,2021.1.4,Win32,60.00960154,5d03903f49c5dd00195ebc71,60d9d14f4a8a35a482e0d9bf,60ede34daba779027751d565,j,3.1838,0,47,47,12,1,OORROOO,OORROOR,21.30250474,22.02786418,series_1
,,,,,,,,5d03903f49c5dd00195ebc71,Mężczyzna,21,2021-07-13_21h02.59.243,rantool2,2021.1.4,Win32,60.00960154,5d03903f49c5dd00195ebc71,60d9d14f4a8a35a482e0d9bf,60ede34daba779027751d565,j,4.1146,0,48,48,39,1,ROORRRO,ROORRRR,21.82425538,21.38562617,series_0
,,,,,,,,5d03903f49c5dd00195ebc71,Mężczyzna,21,2021-07-13_21h02.59.243,rantool2,2021.1.4,Win32,60.00960154,5d03903f49c5dd00195ebc71,60d9d14f4a8a35a482e0d9bf,60ede34daba779027751d565,j,1.7007,0,49,49,4,1,OOOROOO,OOOROOR,19.91402015,21.21223021,series_1
,,,,,,,,5d03903f49c5dd00195ebc71,Mężczyzna,21,2021-07-13_21h02.59.243,rantool2,2021.1.4,Win32,60.00960154,5d03903f49c5dd00195ebc71,60d9d14f4a8a35a482e0d9bf,60ede34daba779027751d565,f,2.4929,0,50,50,51,1,RROORRO,RROORRR,21.89852628,22.02786418,series_1
,,,,,,,,5d03903f49c5dd00195ebc71,Mężczyzna,21,2021-07-13_21h02.59.243,rantool2,2021.1.4,Win32,60.00960154,5d03903f49c5dd00195ebc71,60d9d14f4a8a35a482e0d9bf,60ede34daba779027751d565,f,1.732,0,51,51,1,1,OOOOORO,OOOOORR,19.92253567,20.74050628,series_1
,,,,,,,,5d03903f49c5dd00195ebc71,Mężczyzna,21,2021-07-13_21h02.59.243,rantool2,2021.1.4,Win32,60.00960154,5d03903f49c5dd00195ebc71,60d9d14f4a8a35a482e0d9bf,60ede34daba779027751d565,f,2.4852,0,52,52,15,1,OORRRRO,OORRRRR,22.10108823,21.74922619,series_0
,,,,,,,,5d03903f49c5dd00195ebc71,Mężczyzna,21,2021-07-13_21h02.59.243,rantool2,2021.1.4,Win32,60.00960154,5d03903f49c5dd00195ebc71,60d9d14f4a8a35a482e0d9bf,60ede34daba779027751d565,j,3.9025,0,53,53,11,1,OORORRO,OORORRR,22.18365867,22.6797523,series_1
,,,,,,,,5d03903f49c5dd00195ebc71,Mężczyzna,21,2021-07-13_21h02.59.243,rantool2,2021.1.4,Win32,60.00960154,5d03903f49c5dd00195ebc71,60d9d14f4a8a35a482e0d9bf,60ede34daba779027751d565,f,1.7547,0,54,54,23,1,ORORRRO,ORORRRR,22.1285618,21.9921709,series_0
,,,,,,,,5d03903f49c5dd00195ebc71,Mężczyzna,21,2021-07-13_21h02.59.243,rantool2,2021.1.4,Win32,60.00960154,5d03903f49c5dd00195ebc71,60d9d14f4a8a35a482e0d9bf,60ede34daba779027751d565,j,1.5981,0,55,55,5,1,OOORORO,OOORORR,20.87963819,21.9921709,series_1
,,,,,,,,5d03903f49c5dd00195ebc71,Mężczyzna,21,2021-07-13_21h02.59.243,rantool2,2021.1.4,Win32,60.00960154,5d03903f49c5dd00195ebc71,60d9d14f4a8a35a482e0d9bf,60ede34daba779027751d565,f,2.1817,0,56,56,53,1,RRORORO,RRORORR,20.71309134,21.90565814,series_1
,,,,,,,,5d03903f49c5dd00195ebc71,Mężczyzna,21,2021-07-13_21h02.59.243,rantool2,2021.1.4,Win32,60.00960154,5d03903f49c5dd00195ebc71,60d9d14f4a8a35a482e0d9bf,60ede34daba779027751d565,j,1.4434,0,57,57,59,1,RRRORRO,RRRORRR,21.56657303,20.89823192,series_0
,,,,,,,,5d03903f49c5dd00195ebc71,Mężczyzna,21,2021-07-13_21h02.59.243,rantool2,2021.1.4,Win32,60.00960154,5d03903f49c5dd00195ebc71,60d9d14f4a8a35a482e0d9bf,60ede34daba779027751d565,j,1.8213,0,58,58,29,1,ORRRORO,ORRRORR,22.00300695,22.12173012,series_1
,,,,,,,,5d03903f49c5dd00195ebc71,Mężczyzna,21,2021-07-13_21h02.59.243,rantool2,2021.1.4,Win32,60.00960154,5d03903f49c5dd00195ebc71,60d9d14f4a8a35a482e0d9bf,60ede34daba779027751d565,j,2.116,0,59,59,28,1,ORRROOO,ORRROOR,22.24142883,22.53364006,series_1
,,,,,,,,5d03903f49c5dd00195ebc71,Mężczyzna,21,2021-07-13_21h02.59.243,rantool2,2021.1.4,Win32,60.00960154,5d03903f49c5dd00195ebc71,60d9d14f4a8a35a482e0d9bf,60ede34daba779027751d565,j,3.936,0,60,60,62,1,RRRRROO,RRRRROR,22.16413392,21.27974287,series_0
,,,,,,,,5d03903f49c5dd00195ebc71,Mężczyzna,21,2021-07-13_21h02.59.243,rantool2,2021.1.4,Win32,60.00960154,5d03903f49c5dd00195ebc71,60d9d14f4a8a35a482e0d9bf,60ede34daba779027751d565,j,3.8807,0,61,61,55,1,RRORRRO,RRORRRR,21.56657303,21.21223021,series_0
,,,,,,,,5d03903f49c5dd00195ebc71,Mężczyzna,21,2021-07-13_21h02.59.243,rantool2,2021.1.4,Win32,60.00960154,5d03903f49c5dd00195ebc71,60d9d14f4a8a35a482e0d9bf,60ede34daba779027751d565,f,1.9019,0,62,62,50,1,RROOROO,RROOROR,21.73568164,22.02566557,series_1
,,,,,,,,5d03903f49c5dd00195ebc71,Mężczyzna,21,2021-07-13_21h02.59.243,rantool2,2021.1.4,Win32,60.00960154,5d03903f49c5dd00195ebc71,60d9d14f4a8a35a482e0d9bf,60ede34daba779027751d565,f,1.0016,0,63,63,3,1,OOOORRO,OOOORRR,20.90986523,21.74922619,series_1
