key_resp_5.keys,key_resp_5.corr,key_resp_5.rt,trials.thisRepN,trials.thisTrialN,trials.thisN,trials.thisIndex,trials.ran,id*,Płeć*,Wiek*,date,expName,psychopyVersion,OS,frameRate,id,STUDY_ID,SESSION_ID,key_resp_7.keys,key_resp_7.rt,trials_2.thisRepN,trials_2.thisTrialN,trials_2.thisN,trials_2.thisIndex,trials_2.ran,series_0,series_1,acss_0,acss_1,comparison
0,,,0,0,0,0,1,5e8f75cd1baf78261f752cf4,Mężczyzna,53,2021-07-13_22h11.50.632,rantool2,2021.1.4,Win32,30.00120005,5e8f75cd1baf78261f752cf4,60d9d14f4a8a35a482e0d9bf,60edf0e48efe0014b3d7715b,,,,,,,,,,,,
"[""comma""]",0,[1.722999999999999],1,0,1,0,1,5e8f75cd1baf78261f752cf4,Mężczyzna,53,2021-07-13_22h11.50.632,rantool2,2021.1.4,Win32,30.00120005,5e8f75cd1baf78261f752cf4,60d9d14f4a8a35a482e0d9bf,60edf0e48efe0014b3d7715b,,,,,,,,,,,,
0,0,,2,0,2,0,1,5e8f75cd1baf78261f752cf4,Mężczyzna,53,2021-07-13_22h11.50.632,rantool2,2021.1.4,Win32,30.00120005,5e8f75cd1baf78261f752cf4,60d9d14f4a8a35a482e0d9bf,60edf0e48efe0014b3d7715b,,,,,,,,,,,,
0,0,,3,0,3,0,1,5e8f75cd1baf78261f752cf4,Mężczyzna,53,2021-07-13_22h11.50.632,rantool2,2021.1.4,Win32,30.00120005,5e8f75cd1baf78261f752cf4,60d9d14f4a8a35a482e0d9bf,60edf0e48efe0014b3d7715b,,,,,,,,,,,,
0,0,,4,0,4,0,1,5e8f75cd1baf78261f752cf4,Mężczyzna,53,2021-07-13_22h11.50.632,rantool2,2021.1.4,Win32,30.00120005,5e8f75cd1baf78261f752cf4,60d9d14f4a8a35a482e0d9bf,60edf0e48efe0014b3d7715b,,,,,,,,,,,,
"[""comma""]",0,[0.35999999999999943],5,0,5,0,1,5e8f75cd1baf78261f752cf4,Mężczyzna,53,2021-07-13_22h11.50.632,rantool2,2021.1.4,Win32,30.00120005,5e8f75cd1baf78261f752cf4,60d9d14f4a8a35a482e0d9bf,60edf0e48efe0014b3d7715b,,,,,,,,,,,,
"[""period""]",0,[0.2950000000000017],6,0,6,0,1,5e8f75cd1baf78261f752cf4,Mężczyzna,53,2021-07-13_22h11.50.632,rantool2,2021.1.4,Win32,30.00120005,5e8f75cd1baf78261f752cf4,60d9d14f4a8a35a482e0d9bf,60edf0e48efe0014b3d7715b,,,,,,,,,,,,
"[""comma""]",0,[0.4060000000000059],7,0,7,0,1,5e8f75cd1baf78261f752cf4,Mężczyzna,53,2021-07-13_22h11.50.632,rantool2,2021.1.4,Win32,30.00120005,5e8f75cd1baf78261f752cf4,60d9d14f4a8a35a482e0d9bf,60edf0e48efe0014b3d7715b,,,,,,,,,,,,
"[""comma""]",0,[0.2289999999999992],8,0,8,0,1,5e8f75cd1baf78261f752cf4,Mężczyzna,53,2021-07-13_22h11.50.632,rantool2,2021.1.4,Win32,30.00120005,5e8f75cd1baf78261f752cf4,60d9d14f4a8a35a482e0d9bf,60edf0e48efe0014b3d7715b,,,,,,,,,,,,
"[""comma""]",0,[0.3689999999999998],9,0,9,0,1,5e8f75cd1baf78261f752cf4,Mężczyzna,53,2021-07-13_22h11.50.632,rantool2,2021.1.4,Win32,30.00120005,5e8f75cd1baf78261f752cf4,60d9d14f4a8a35a482e0d9bf,60edf0e48efe0014b3d7715b,,,,,,,,,,,,
"[""period""]",0,[0.40099999999999625],10,0,10,0,1,5e8f75cd1baf78261f752cf4,Mężczyzna,53,2021-07-13_22h11.50.632,rantool2,2021.1.4,Win32,30.00120005,5e8f75cd1baf78261f752cf4,60d9d14f4a8a35a482e0d9bf,60edf0e48efe0014b3d7715b,,,,,,,,,,,,
"[""comma""]",0,[0.5879999999999939],11,0,11,0,1,5e8f75cd1baf78261f752cf4,Mężczyzna,53,2021-07-13_22h11.50.632,rantool2,2021.1.4,Win32,30.00120005,5e8f75cd1baf78261f752cf4,60d9d14f4a8a35a482e0d9bf,60edf0e48efe0014b3d7715b,,,,,,,,,,,,
"[""comma""]",0,[1.6219999999999999],12,0,12,0,1,5e8f75cd1baf78261f752cf4,Mężczyzna,53,2021-07-13_22h11.50.632,rantool2,2021.1.4,Win32,30.00120005,5e8f75cd1baf78261f752cf4,60d9d14f4a8a35a482e0d9bf,60edf0e48efe0014b3d7715b,,,,,,,,,,,,
"[""comma""]",0,[1.730000000000004],13,0,13,0,1,5e8f75cd1baf78261f752cf4,Mężczyzna,53,2021-07-13_22h11.50.632,rantool2,2021.1.4,Win32,30.00120005,5e8f75cd1baf78261f752cf4,60d9d14f4a8a35a482e0d9bf,60edf0e48efe0014b3d7715b,,,,,,,,,,,,
"[""period""]",0,[1.7349999999999994],14,0,14,0,1,5e8f75cd1baf78261f752cf4,Mężczyzna,53,2021-07-13_22h11.50.632,rantool2,2021.1.4,Win32,30.00120005,5e8f75cd1baf78261f752cf4,60d9d14f4a8a35a482e0d9bf,60edf0e48efe0014b3d7715b,,,,,,,,,,,,
"[""comma""]",0,[1.7179999999999893],15,0,15,0,1,5e8f75cd1baf78261f752cf4,Mężczyzna,53,2021-07-13_22h11.50.632,rantool2,2021.1.4,Win32,30.00120005,5e8f75cd1baf78261f752cf4,60d9d14f4a8a35a482e0d9bf,60edf0e48efe0014b3d7715b,,,,,,,,,,,,
"[""period""]",0,[1.8529999999999944],16,0,16,0,1,5e8f75cd1baf78261f752cf4,Mężczyzna,53,2021-07-13_22h11.50.632,rantool2,2021.1.4,Win32,30.00120005,5e8f75cd1baf78261f752cf4,60d9d14f4a8a35a482e0d9bf,60edf0e48efe0014b3d7715b,,,,,,,,,,,,
"[""comma""]",0,[1.8659999999999997],17,0,17,0,1,5e8f75cd1baf78261f752cf4,Mężczyzna,53,2021-07-13_22h11.50.632,rantool2,2021.1.4,Win32,30.00120005,5e8f75cd1baf78261f752cf4,60d9d14f4a8a35a482e0d9bf,60edf0e48efe0014b3d7715b,,,,,,,,,,,,
0,0,,18,0,18,0,1,5e8f75cd1baf78261f752cf4,Mężczyzna,53,2021-07-13_22h11.50.632,rantool2,2021.1.4,Win32,30.00120005,5e8f75cd1baf78261f752cf4,60d9d14f4a8a35a482e0d9bf,60edf0e48efe0014b3d7715b,,,,,,,,,,,,
"[""comma""]",0,[0.3300000000000125],19,0,19,0,1,5e8f75cd1baf78261f752cf4,Mężczyzna,53,2021-07-13_22h11.50.632,rantool2,2021.1.4,Win32,30.00120005,5e8f75cd1baf78261f752cf4,60d9d14f4a8a35a482e0d9bf,60edf0e48efe0014b3d7715b,,,,,,,,,,,,
"[""period""]",0,[0.4829999999999899],20,0,20,0,1,5e8f75cd1baf78261f752cf4,Mężczyzna,53,2021-07-13_22h11.50.632,rantool2,2021.1.4,Win32,30.00120005,5e8f75cd1baf78261f752cf4,60d9d14f4a8a35a482e0d9bf,60edf0e48efe0014b3d7715b,,,,,,,,,,,,
"[""comma""]",0,[0.49500000000000455],21,0,21,0,1,5e8f75cd1baf78261f752cf4,Mężczyzna,53,2021-07-13_22h11.50.632,rantool2,2021.1.4,Win32,30.00120005,5e8f75cd1baf78261f752cf4,60d9d14f4a8a35a482e0d9bf,60edf0e48efe0014b3d7715b,,,,,,,,,,,,
"[""period""]",0,[0.9959999999999951],22,0,22,0,1,5e8f75cd1baf78261f752cf4,Mężczyzna,53,2021-07-13_22h11.50.632,rantool2,2021.1.4,Win32,30.00120005,5e8f75cd1baf78261f752cf4,60d9d14f4a8a35a482e0d9bf,60edf0e48efe0014b3d7715b,,,,,,,,,,,,
"[""period""]",0,[1.7710000000000008],23,0,23,0,1,5e8f75cd1baf78261f752cf4,Mężczyzna,53,2021-07-13_22h11.50.632,rantool2,2021.1.4,Win32,30.00120005,5e8f75cd1baf78261f752cf4,60d9d14f4a8a35a482e0d9bf,60edf0e48efe0014b3d7715b,,,,,,,,,,,,
0,0,,24,0,24,0,1,5e8f75cd1baf78261f752cf4,Mężczyzna,53,2021-07-13_22h11.50.632,rantool2,2021.1.4,Win32,30.00120005,5e8f75cd1baf78261f752cf4,60d9d14f4a8a35a482e0d9bf,60edf0e48efe0014b3d7715b,,,,,,,,,,,,
"[""comma"",""comma""]",0,"[0.02400000000000091,1.954999999999984]",25,0,25,0,1,5e8f75cd1baf78261f752cf4,Mężczyzna,53,2021-07-13_22h11.50.632,rantool2,2021.1.4,Win32,30.00120005,5e8f75cd1baf78261f752cf4,60d9d14f4a8a35a482e0d9bf,60edf0e48efe0014b3d7715b,,,,,,,,,,,,
0,0,,26,0,26,0,1,5e8f75cd1baf78261f752cf4,Mężczyzna,53,2021-07-13_22h11.50.632,rantool2,2021.1.4,Win32,30.00120005,5e8f75cd1baf78261f752cf4,60d9d14f4a8a35a482e0d9bf,60edf0e48efe0014b3d7715b,,,,,,,,,,,,
"[""comma""]",0,[0.20700000000002206],27,0,27,0,1,5e8f75cd1baf78261f752cf4,Mężczyzna,53,2021-07-13_22h11.50.632,rantool2,2021.1.4,Win32,30.00120005,5e8f75cd1baf78261f752cf4,60d9d14f4a8a35a482e0d9bf,60edf0e48efe0014b3d7715b,,,,,,,,,,,,
"[""comma""]",0,[0.6080000000000041],28,0,28,0,1,5e8f75cd1baf78261f752cf4,Mężczyzna,53,2021-07-13_22h11.50.632,rantool2,2021.1.4,Win32,30.00120005,5e8f75cd1baf78261f752cf4,60d9d14f4a8a35a482e0d9bf,60edf0e48efe0014b3d7715b,,,,,,,,,,,,
"[""comma""]",0,[0.6210000000000093],29,0,29,0,1,5e8f75cd1baf78261f752cf4,Mężczyzna,53,2021-07-13_22h11.50.632,rantool2,2021.1.4,Win32,30.00120005,5e8f75cd1baf78261f752cf4,60d9d14f4a8a35a482e0d9bf,60edf0e48efe0014b3d7715b,,,,,,,,,,,,
"[""period""]",0,[0.42099999999999227],30,0,30,0,1,5e8f75cd1baf78261f752cf4,Mężczyzna,53,2021-07-13_22h11.50.632,rantool2,2021.1.4,Win32,30.00120005,5e8f75cd1baf78261f752cf4,60d9d14f4a8a35a482e0d9bf,60edf0e48efe0014b3d7715b,,,,,,,,,,,,
"[""comma""]",0,[0.5609999999999786],31,0,31,0,1,5e8f75cd1baf78261f752cf4,Mężczyzna,53,2021-07-13_22h11.50.632,rantool2,2021.1.4,Win32,30.00120005,5e8f75cd1baf78261f752cf4,60d9d14f4a8a35a482e0d9bf,60edf0e48efe0014b3d7715b,,,,,,,,,,,,
"[""period"",""comma""]",0,"[0.09100000000000819,1.8619999999999948]",32,0,32,0,1,5e8f75cd1baf78261f752cf4,Mężczyzna,53,2021-07-13_22h11.50.632,rantool2,2021.1.4,Win32,30.00120005,5e8f75cd1baf78261f752cf4,60d9d14f4a8a35a482e0d9bf,60edf0e48efe0014b3d7715b,,,,,,,,,,,,
"[""period""]",0,[1.6499999999999773],33,0,33,0,1,5e8f75cd1baf78261f752cf4,Mężczyzna,53,2021-07-13_22h11.50.632,rantool2,2021.1.4,Win32,30.00120005,5e8f75cd1baf78261f752cf4,60d9d14f4a8a35a482e0d9bf,60edf0e48efe0014b3d7715b,,,,,,,,,,,,
0,0,,34,0,34,0,1,5e8f75cd1baf78261f752cf4,Mężczyzna,53,2021-07-13_22h11.50.632,rantool2,2021.1.4,Win32,30.00120005,5e8f75cd1baf78261f752cf4,60d9d14f4a8a35a482e0d9bf,60edf0e48efe0014b3d7715b,,,,,,,,,,,,
"[""comma""]",0,[0.3640000000000043],35,0,35,0,1,5e8f75cd1baf78261f752cf4,Mężczyzna,53,2021-07-13_22h11.50.632,rantool2,2021.1.4,Win32,30.00120005,5e8f75cd1baf78261f752cf4,60d9d14f4a8a35a482e0d9bf,60edf0e48efe0014b3d7715b,,,,,,,,,,,,
"[""period"",""comma""]",0,"[0.12999999999999545,1.9449999999999932]",36,0,36,0,1,5e8f75cd1baf78261f752cf4,Mężczyzna,53,2021-07-13_22h11.50.632,rantool2,2021.1.4,Win32,30.00120005,5e8f75cd1baf78261f752cf4,60d9d14f4a8a35a482e0d9bf,60edf0e48efe0014b3d7715b,,,,,,,,,,,,
0,0,,37,0,37,0,1,5e8f75cd1baf78261f752cf4,Mężczyzna,53,2021-07-13_22h11.50.632,rantool2,2021.1.4,Win32,30.00120005,5e8f75cd1baf78261f752cf4,60d9d14f4a8a35a482e0d9bf,60edf0e48efe0014b3d7715b,,,,,,,,,,,,
"[""period""]",0,[0.025999999999982037],38,0,38,0,1,5e8f75cd1baf78261f752cf4,Mężczyzna,53,2021-07-13_22h11.50.632,rantool2,2021.1.4,Win32,30.00120005,5e8f75cd1baf78261f752cf4,60d9d14f4a8a35a482e0d9bf,60edf0e48efe0014b3d7715b,,,,,,,,,,,,
0,0,,39,0,39,0,1,5e8f75cd1baf78261f752cf4,Mężczyzna,53,2021-07-13_22h11.50.632,rantool2,2021.1.4,Win32,30.00120005,5e8f75cd1baf78261f752cf4,60d9d14f4a8a35a482e0d9bf,60edf0e48efe0014b3d7715b,,,,,,,,,,,,
"[""period""]",0,[0.5849999999999795],40,0,40,0,1,5e8f75cd1baf78261f752cf4,Mężczyzna,53,2021-07-13_22h11.50.632,rantool2,2021.1.4,Win32,30.00120005,5e8f75cd1baf78261f752cf4,60d9d14f4a8a35a482e0d9bf,60edf0e48efe0014b3d7715b,,,,,,,,,,,,
"[""comma""]",0,[0.828000000000003],41,0,41,0,1,5e8f75cd1baf78261f752cf4,Mężczyzna,53,2021-07-13_22h11.50.632,rantool2,2021.1.4,Win32,30.00120005,5e8f75cd1baf78261f752cf4,60d9d14f4a8a35a482e0d9bf,60edf0e48efe0014b3d7715b,,,,,,,,,,,,
"[""period""]",0,[1.9699999999999989],42,0,42,0,1,5e8f75cd1baf78261f752cf4,Mężczyzna,53,2021-07-13_22h11.50.632,rantool2,2021.1.4,Win32,30.00120005,5e8f75cd1baf78261f752cf4,60d9d14f4a8a35a482e0d9bf,60edf0e48efe0014b3d7715b,,,,,,,,,,,,
0,0,,43,0,43,0,1,5e8f75cd1baf78261f752cf4,Mężczyzna,53,2021-07-13_22h11.50.632,rantool2,2021.1.4,Win32,30.00120005,5e8f75cd1baf78261f752cf4,60d9d14f4a8a35a482e0d9bf,60edf0e48efe0014b3d7715b,,,,,,,,,,,,
"[""period""]",0,[0.3789999999999907],44,0,44,0,1,5e8f75cd1baf78261f752cf4,Mężczyzna,53,2021-07-13_22h11.50.632,rantool2,2021.1.4,Win32,30.00120005,5e8f75cd1baf78261f752cf4,60d9d14f4a8a35a482e0d9bf,60edf0e48efe0014b3d7715b,,,,,,,,,,,,
"[""comma""]",0,[0.5860000000000127],45,0,45,0,1,5e8f75cd1baf78261f752cf4,Mężczyzna,53,2021-07-13_22h11.50.632,rantool2,2021.1.4,Win32,30.00120005,5e8f75cd1baf78261f752cf4,60d9d14f4a8a35a482e0d9bf,60edf0e48efe0014b3d7715b,,,,,,,,,,,,
"[""comma""]",0,[0.5149999999999864],46,0,46,0,1,5e8f75cd1baf78261f752cf4,Mężczyzna,53,2021-07-13_22h11.50.632,rantool2,2021.1.4,Win32,30.00120005,5e8f75cd1baf78261f752cf4,60d9d14f4a8a35a482e0d9bf,60edf0e48efe0014b3d7715b,,,,,,,,,,,,
"[""period""]",0,[0.4819999999999993],47,0,47,0,1,5e8f75cd1baf78261f752cf4,Mężczyzna,53,2021-07-13_22h11.50.632,rantool2,2021.1.4,Win32,30.00120005,5e8f75cd1baf78261f752cf4,60d9d14f4a8a35a482e0d9bf,60edf0e48efe0014b3d7715b,,,,,,,,,,,,
"[""period""]",0,[0.8429999999999893],48,0,48,0,1,5e8f75cd1baf78261f752cf4,Mężczyzna,53,2021-07-13_22h11.50.632,rantool2,2021.1.4,Win32,30.00120005,5e8f75cd1baf78261f752cf4,60d9d14f4a8a35a482e0d9bf,60edf0e48efe0014b3d7715b,,,,,,,,,,,,
"[""comma""]",0,[0.938999999999993],49,0,49,0,1,5e8f75cd1baf78261f752cf4,Mężczyzna,53,2021-07-13_22h11.50.632,rantool2,2021.1.4,Win32,30.00120005,5e8f75cd1baf78261f752cf4,60d9d14f4a8a35a482e0d9bf,60edf0e48efe0014b3d7715b,,,,,,,,,,,,
"[""period""]",0,[1.2520000000000095],50,0,50,0,1,5e8f75cd1baf78261f752cf4,Mężczyzna,53,2021-07-13_22h11.50.632,rantool2,2021.1.4,Win32,30.00120005,5e8f75cd1baf78261f752cf4,60d9d14f4a8a35a482e0d9bf,60edf0e48efe0014b3d7715b,,,,,,,,,,,,
0,0,,51,0,51,0,1,5e8f75cd1baf78261f752cf4,Mężczyzna,53,2021-07-13_22h11.50.632,rantool2,2021.1.4,Win32,30.00120005,5e8f75cd1baf78261f752cf4,60d9d14f4a8a35a482e0d9bf,60edf0e48efe0014b3d7715b,,,,,,,,,,,,
"[""period""]",0,[1.4729999999999848],52,0,52,0,1,5e8f75cd1baf78261f752cf4,Mężczyzna,53,2021-07-13_22h11.50.632,rantool2,2021.1.4,Win32,30.00120005,5e8f75cd1baf78261f752cf4,60d9d14f4a8a35a482e0d9bf,60edf0e48efe0014b3d7715b,,,,,,,,,,,,
"[""comma""]",0,[1.093999999999994],53,0,53,0,1,5e8f75cd1baf78261f752cf4,Mężczyzna,53,2021-07-13_22h11.50.632,rantool2,2021.1.4,Win32,30.00120005,5e8f75cd1baf78261f752cf4,60d9d14f4a8a35a482e0d9bf,60edf0e48efe0014b3d7715b,,,,,,,,,,,,
"[""period"",""comma""]",0,"[0.3690000000000282,1.825000000000017]",54,0,54,0,1,5e8f75cd1baf78261f752cf4,Mężczyzna,53,2021-07-13_22h11.50.632,rantool2,2021.1.4,Win32,30.00120005,5e8f75cd1baf78261f752cf4,60d9d14f4a8a35a482e0d9bf,60edf0e48efe0014b3d7715b,,,,,,,,,,,,
"[""comma""]",0,[1.961999999999989],55,0,55,0,1,5e8f75cd1baf78261f752cf4,Mężczyzna,53,2021-07-13_22h11.50.632,rantool2,2021.1.4,Win32,30.00120005,5e8f75cd1baf78261f752cf4,60d9d14f4a8a35a482e0d9bf,60edf0e48efe0014b3d7715b,,,,,,,,,,,,
0,0,,56,0,56,0,1,5e8f75cd1baf78261f752cf4,Mężczyzna,53,2021-07-13_22h11.50.632,rantool2,2021.1.4,Win32,30.00120005,5e8f75cd1baf78261f752cf4,60d9d14f4a8a35a482e0d9bf,60edf0e48efe0014b3d7715b,,,,,,,,,,,,
"[""period"",""period""]",0,"[0.03499999999999659,1.518999999999977]",57,0,57,0,1,5e8f75cd1baf78261f752cf4,Mężczyzna,53,2021-07-13_22h11.50.632,rantool2,2021.1.4,Win32,30.00120005,5e8f75cd1baf78261f752cf4,60d9d14f4a8a35a482e0d9bf,60edf0e48efe0014b3d7715b,,,,,,,,,,,,
"[""period""]",0,[1.2520000000000095],58,0,58,0,1,5e8f75cd1baf78261f752cf4,Mężczyzna,53,2021-07-13_22h11.50.632,rantool2,2021.1.4,Win32,30.00120005,5e8f75cd1baf78261f752cf4,60d9d14f4a8a35a482e0d9bf,60edf0e48efe0014b3d7715b,,,,,,,,,,,,
"[""comma""]",0,[0.51400000000001],59,0,59,0,1,5e8f75cd1baf78261f752cf4,Mężczyzna,53,2021-07-13_22h11.50.632,rantool2,2021.1.4,Win32,30.00120005,5e8f75cd1baf78261f752cf4,60d9d14f4a8a35a482e0d9bf,60edf0e48efe0014b3d7715b,,,,,,,,,,,,
"[""comma"",""period""]",0,"[0.6089999999999804,1.1869999999999834]",60,0,60,0,1,5e8f75cd1baf78261f752cf4,Mężczyzna,53,2021-07-13_22h11.50.632,rantool2,2021.1.4,Win32,30.00120005,5e8f75cd1baf78261f752cf4,60d9d14f4a8a35a482e0d9bf,60edf0e48efe0014b3d7715b,,,,,,,,,,,,
"[""comma"",""period""]",0,"[0.7280000000000086,1.6370000000000005]",61,0,61,0,1,5e8f75cd1baf78261f752cf4,Mężczyzna,53,2021-07-13_22h11.50.632,rantool2,2021.1.4,Win32,30.00120005,5e8f75cd1baf78261f752cf4,60d9d14f4a8a35a482e0d9bf,60edf0e48efe0014b3d7715b,,,,,,,,,,,,
"[""period""]",0,[1.7450000000000045],62,0,62,0,1,5e8f75cd1baf78261f752cf4,Mężczyzna,53,2021-07-13_22h11.50.632,rantool2,2021.1.4,Win32,30.00120005,5e8f75cd1baf78261f752cf4,60d9d14f4a8a35a482e0d9bf,60edf0e48efe0014b3d7715b,,,,,,,,,,,,
"[""period""]",0,[1.7090000000000032],63,0,63,0,1,5e8f75cd1baf78261f752cf4,Mężczyzna,53,2021-07-13_22h11.50.632,rantool2,2021.1.4,Win32,30.00120005,5e8f75cd1baf78261f752cf4,60d9d14f4a8a35a482e0d9bf,60edf0e48efe0014b3d7715b,,,,,,,,,,,,
"[""comma""]",0,[1.5829999999999984],64,0,64,0,1,5e8f75cd1baf78261f752cf4,Mężczyzna,53,2021-07-13_22h11.50.632,rantool2,2021.1.4,Win32,30.00120005,5e8f75cd1baf78261f752cf4,60d9d14f4a8a35a482e0d9bf,60edf0e48efe0014b3d7715b,,,,,,,,,,,,
"[""period""]",0,[1.1709999999999923],65,0,65,0,1,5e8f75cd1baf78261f752cf4,Mężczyzna,53,2021-07-13_22h11.50.632,rantool2,2021.1.4,Win32,30.00120005,5e8f75cd1baf78261f752cf4,60d9d14f4a8a35a482e0d9bf,60edf0e48efe0014b3d7715b,,,,,,,,,,,,
"[""comma""]",0,[1.4639999999999986],66,0,66,0,1,5e8f75cd1baf78261f752cf4,Mężczyzna,53,2021-07-13_22h11.50.632,rantool2,2021.1.4,Win32,30.00120005,5e8f75cd1baf78261f752cf4,60d9d14f4a8a35a482e0d9bf,60edf0e48efe0014b3d7715b,,,,,,,,,,,,
"[""period""]",0,[1.3240000000000123],67,0,67,0,1,5e8f75cd1baf78261f752cf4,Mężczyzna,53,2021-07-13_22h11.50.632,rantool2,2021.1.4,Win32,30.00120005,5e8f75cd1baf78261f752cf4,60d9d14f4a8a35a482e0d9bf,60edf0e48efe0014b3d7715b,,,,,,,,,,,,
"[""comma""]",0,[0.943000000000012],68,0,68,0,1,5e8f75cd1baf78261f752cf4,Mężczyzna,53,2021-07-13_22h11.50.632,rantool2,2021.1.4,Win32,30.00120005,5e8f75cd1baf78261f752cf4,60d9d14f4a8a35a482e0d9bf,60edf0e48efe0014b3d7715b,,,,,,,,,,,,
"[""period""]",0,[0.796999999999997],69,0,69,0,1,5e8f75cd1baf78261f752cf4,Mężczyzna,53,2021-07-13_22h11.50.632,rantool2,2021.1.4,Win32,30.00120005,5e8f75cd1baf78261f752cf4,60d9d14f4a8a35a482e0d9bf,60edf0e48efe0014b3d7715b,,,,,,,,,,,,
"[""comma""]",0,[0.6829999999999927],70,0,70,0,1,5e8f75cd1baf78261f752cf4,Mężczyzna,53,2021-07-13_22h11.50.632,rantool2,2021.1.4,Win32,30.00120005,5e8f75cd1baf78261f752cf4,60d9d14f4a8a35a482e0d9bf,60edf0e48efe0014b3d7715b,,,,,,,,,,,,
"[""comma""]",0,[1.4989999999999952],71,0,71,0,1,5e8f75cd1baf78261f752cf4,Mężczyzna,53,2021-07-13_22h11.50.632,rantool2,2021.1.4,Win32,30.00120005,5e8f75cd1baf78261f752cf4,60d9d14f4a8a35a482e0d9bf,60edf0e48efe0014b3d7715b,,,,,,,,,,,,
"[""period""]",0,[1.1239999999999952],72,0,72,0,1,5e8f75cd1baf78261f752cf4,Mężczyzna,53,2021-07-13_22h11.50.632,rantool2,2021.1.4,Win32,30.00120005,5e8f75cd1baf78261f752cf4,60d9d14f4a8a35a482e0d9bf,60edf0e48efe0014b3d7715b,,,,,,,,,,,,
"[""comma""]",0,[0.9170000000000016],73,0,73,0,1,5e8f75cd1baf78261f752cf4,Mężczyzna,53,2021-07-13_22h11.50.632,rantool2,2021.1.4,Win32,30.00120005,5e8f75cd1baf78261f752cf4,60d9d14f4a8a35a482e0d9bf,60edf0e48efe0014b3d7715b,,,,,,,,,,,,
"[""comma""]",0,[0.5829999999999984],74,0,74,0,1,5e8f75cd1baf78261f752cf4,Mężczyzna,53,2021-07-13_22h11.50.632,rantool2,2021.1.4,Win32,30.00120005,5e8f75cd1baf78261f752cf4,60d9d14f4a8a35a482e0d9bf,60edf0e48efe0014b3d7715b,,,,,,,,,,,,
"[""period"",""period""]",0,"[0.26700000000002433,1.6950000000000216]",75,0,75,0,1,5e8f75cd1baf78261f752cf4,Mężczyzna,53,2021-07-13_22h11.50.632,rantool2,2021.1.4,Win32,30.00120005,5e8f75cd1baf78261f752cf4,60d9d14f4a8a35a482e0d9bf,60edf0e48efe0014b3d7715b,,,,,,,,,,,,
"[""comma""]",0,[1.9499999999999886],76,0,76,0,1,5e8f75cd1baf78261f752cf4,Mężczyzna,53,2021-07-13_22h11.50.632,rantool2,2021.1.4,Win32,30.00120005,5e8f75cd1baf78261f752cf4,60d9d14f4a8a35a482e0d9bf,60edf0e48efe0014b3d7715b,,,,,,,,,,,,
0,0,,77,0,77,0,1,5e8f75cd1baf78261f752cf4,Mężczyzna,53,2021-07-13_22h11.50.632,rantool2,2021.1.4,Win32,30.00120005,5e8f75cd1baf78261f752cf4,60d9d14f4a8a35a482e0d9bf,60edf0e48efe0014b3d7715b,,,,,,,,,,,,
"[""comma"",""period""]",0,"[0.5470000000000255,1.5790000000000077]",78,0,78,0,1,5e8f75cd1baf78261f752cf4,Mężczyzna,53,2021-07-13_22h11.50.632,rantool2,2021.1.4,Win32,30.00120005,5e8f75cd1baf78261f752cf4,60d9d14f4a8a35a482e0d9bf,60edf0e48efe0014b3d7715b,,,,,,,,,,,,
"[""period""]",0,[0.7549999999999955],79,0,79,0,1,5e8f75cd1baf78261f752cf4,Mężczyzna,53,2021-07-13_22h11.50.632,rantool2,2021.1.4,Win32,30.00120005,5e8f75cd1baf78261f752cf4,60d9d14f4a8a35a482e0d9bf,60edf0e48efe0014b3d7715b,,,,,,,,,,,,
"[""comma""]",0,[0.5450000000000159],80,0,80,0,1,5e8f75cd1baf78261f752cf4,Mężczyzna,53,2021-07-13_22h11.50.632,rantool2,2021.1.4,Win32,30.00120005,5e8f75cd1baf78261f752cf4,60d9d14f4a8a35a482e0d9bf,60edf0e48efe0014b3d7715b,,,,,,,,,,,,
"[""period"",""period""]",0,"[0.44199999999997885,1.6399999999999864]",81,0,81,0,1,5e8f75cd1baf78261f752cf4,Mężczyzna,53,2021-07-13_22h11.50.632,rantool2,2021.1.4,Win32,30.00120005,5e8f75cd1baf78261f752cf4,60d9d14f4a8a35a482e0d9bf,60edf0e48efe0014b3d7715b,,,,,,,,,,,,
"[""comma""]",0,[0.6129999999999995],82,0,82,0,1,5e8f75cd1baf78261f752cf4,Mężczyzna,53,2021-07-13_22h11.50.632,rantool2,2021.1.4,Win32,30.00120005,5e8f75cd1baf78261f752cf4,60d9d14f4a8a35a482e0d9bf,60edf0e48efe0014b3d7715b,,,,,,,,,,,,
"[""comma"",""period""]",0,"[0.1980000000000075,1.468999999999994]",83,0,83,0,1,5e8f75cd1baf78261f752cf4,Mężczyzna,53,2021-07-13_22h11.50.632,rantool2,2021.1.4,Win32,30.00120005,5e8f75cd1baf78261f752cf4,60d9d14f4a8a35a482e0d9bf,60edf0e48efe0014b3d7715b,,,,,,,,,,,,
0,0,,84,0,84,0,1,5e8f75cd1baf78261f752cf4,Mężczyzna,53,2021-07-13_22h11.50.632,rantool2,2021.1.4,Win32,30.00120005,5e8f75cd1baf78261f752cf4,60d9d14f4a8a35a482e0d9bf,60edf0e48efe0014b3d7715b,,,,,,,,,,,,
"[""comma"",""period""]",0,"[0.1570000000000107,1.4499999999999886]",85,0,85,0,1,5e8f75cd1baf78261f752cf4,Mężczyzna,53,2021-07-13_22h11.50.632,rantool2,2021.1.4,Win32,30.00120005,5e8f75cd1baf78261f752cf4,60d9d14f4a8a35a482e0d9bf,60edf0e48efe0014b3d7715b,,,,,,,,,,,,
"[""period""]",0,[0.9689999999999941],86,0,86,0,1,5e8f75cd1baf78261f752cf4,Mężczyzna,53,2021-07-13_22h11.50.632,rantool2,2021.1.4,Win32,30.00120005,5e8f75cd1baf78261f752cf4,60d9d14f4a8a35a482e0d9bf,60edf0e48efe0014b3d7715b,,,,,,,,,,,,
0,0,,87,0,87,0,1,5e8f75cd1baf78261f752cf4,Mężczyzna,53,2021-07-13_22h11.50.632,rantool2,2021.1.4,Win32,30.00120005,5e8f75cd1baf78261f752cf4,60d9d14f4a8a35a482e0d9bf,60edf0e48efe0014b3d7715b,,,,,,,,,,,,
"[""comma""]",0,[0.6599999999999966],88,0,88,0,1,5e8f75cd1baf78261f752cf4,Mężczyzna,53,2021-07-13_22h11.50.632,rantool2,2021.1.4,Win32,30.00120005,5e8f75cd1baf78261f752cf4,60d9d14f4a8a35a482e0d9bf,60edf0e48efe0014b3d7715b,,,,,,,,,,,,
"[""period""]",0,[0.8220000000000027],89,0,89,0,1,5e8f75cd1baf78261f752cf4,Mężczyzna,53,2021-07-13_22h11.50.632,rantool2,2021.1.4,Win32,30.00120005,5e8f75cd1baf78261f752cf4,60d9d14f4a8a35a482e0d9bf,60edf0e48efe0014b3d7715b,,,,,,,,,,,,
"[""comma""]",0,[1.525000000000034],90,0,90,0,1,5e8f75cd1baf78261f752cf4,Mężczyzna,53,2021-07-13_22h11.50.632,rantool2,2021.1.4,Win32,30.00120005,5e8f75cd1baf78261f752cf4,60d9d14f4a8a35a482e0d9bf,60edf0e48efe0014b3d7715b,,,,,,,,,,,,
"[""comma""]",0,[1.0579999999999927],91,0,91,0,1,5e8f75cd1baf78261f752cf4,Mężczyzna,53,2021-07-13_22h11.50.632,rantool2,2021.1.4,Win32,30.00120005,5e8f75cd1baf78261f752cf4,60d9d14f4a8a35a482e0d9bf,60edf0e48efe0014b3d7715b,,,,,,,,,,,,
"[""period""]",0,[0.8100000000000023],92,0,92,0,1,5e8f75cd1baf78261f752cf4,Mężczyzna,53,2021-07-13_22h11.50.632,rantool2,2021.1.4,Win32,30.00120005,5e8f75cd1baf78261f752cf4,60d9d14f4a8a35a482e0d9bf,60edf0e48efe0014b3d7715b,,,,,,,,,,,,
"[""period""]",0,[1.093999999999994],93,0,93,0,1,5e8f75cd1baf78261f752cf4,Mężczyzna,53,2021-07-13_22h11.50.632,rantool2,2021.1.4,Win32,30.00120005,5e8f75cd1baf78261f752cf4,60d9d14f4a8a35a482e0d9bf,60edf0e48efe0014b3d7715b,,,,,,,,,,,,
"[""comma""]",0,[1.5190000000000055],94,0,94,0,1,5e8f75cd1baf78261f752cf4,Mężczyzna,53,2021-07-13_22h11.50.632,rantool2,2021.1.4,Win32,30.00120005,5e8f75cd1baf78261f752cf4,60d9d14f4a8a35a482e0d9bf,60edf0e48efe0014b3d7715b,,,,,,,,,,,,
"[""period""]",0,[1.0120000000000005],95,0,95,0,1,5e8f75cd1baf78261f752cf4,Mężczyzna,53,2021-07-13_22h11.50.632,rantool2,2021.1.4,Win32,30.00120005,5e8f75cd1baf78261f752cf4,60d9d14f4a8a35a482e0d9bf,60edf0e48efe0014b3d7715b,,,,,,,,,,,,
"[""comma""]",0,[1.7060000000000173],96,0,96,0,1,5e8f75cd1baf78261f752cf4,Mężczyzna,53,2021-07-13_22h11.50.632,rantool2,2021.1.4,Win32,30.00120005,5e8f75cd1baf78261f752cf4,60d9d14f4a8a35a482e0d9bf,60edf0e48efe0014b3d7715b,,,,,,,,,,,,
"[""period""]",0,[1.6359999999999673],97,0,97,0,1,5e8f75cd1baf78261f752cf4,Mężczyzna,53,2021-07-13_22h11.50.632,rantool2,2021.1.4,Win32,30.00120005,5e8f75cd1baf78261f752cf4,60d9d14f4a8a35a482e0d9bf,60edf0e48efe0014b3d7715b,,,,,,,,,,,,
0,0,,98,0,98,0,1,5e8f75cd1baf78261f752cf4,Mężczyzna,53,2021-07-13_22h11.50.632,rantool2,2021.1.4,Win32,30.00120005,5e8f75cd1baf78261f752cf4,60d9d14f4a8a35a482e0d9bf,60edf0e48efe0014b3d7715b,,,,,,,,,,,,
"[""comma""]",0,[1.0049999999999955],99,0,99,0,1,5e8f75cd1baf78261f752cf4,Mężczyzna,53,2021-07-13_22h11.50.632,rantool2,2021.1.4,Win32,30.00120005,5e8f75cd1baf78261f752cf4,60d9d14f4a8a35a482e0d9bf,60edf0e48efe0014b3d7715b,,,,,,,,,,,,
0,0,,100,0,100,0,1,5e8f75cd1baf78261f752cf4,Mężczyzna,53,2021-07-13_22h11.50.632,rantool2,2021.1.4,Win32,30.00120005,5e8f75cd1baf78261f752cf4,60d9d14f4a8a35a482e0d9bf,60edf0e48efe0014b3d7715b,,,,,,,,,,,,
"[""comma""]",0,[1.532000000000039],101,0,101,0,1,5e8f75cd1baf78261f752cf4,Mężczyzna,53,2021-07-13_22h11.50.632,rantool2,2021.1.4,Win32,30.00120005,5e8f75cd1baf78261f752cf4,60d9d14f4a8a35a482e0d9bf,60edf0e48efe0014b3d7715b,,,,,,,,,,,,
"[""comma""]",0,[1.2320000000000277],102,0,102,0,1,5e8f75cd1baf78261f752cf4,Mężczyzna,53,2021-07-13_22h11.50.632,rantool2,2021.1.4,Win32,30.00120005,5e8f75cd1baf78261f752cf4,60d9d14f4a8a35a482e0d9bf,60edf0e48efe0014b3d7715b,,,,,,,,,,,,
"[""comma""]",0,[0.9449999999999932],103,0,103,0,1,5e8f75cd1baf78261f752cf4,Mężczyzna,53,2021-07-13_22h11.50.632,rantool2,2021.1.4,Win32,30.00120005,5e8f75cd1baf78261f752cf4,60d9d14f4a8a35a482e0d9bf,60edf0e48efe0014b3d7715b,,,,,,,,,,,,
"[""period""]",0,[1.0819999999999936],104,0,104,0,1,5e8f75cd1baf78261f752cf4,Mężczyzna,53,2021-07-13_22h11.50.632,rantool2,2021.1.4,Win32,30.00120005,5e8f75cd1baf78261f752cf4,60d9d14f4a8a35a482e0d9bf,60edf0e48efe0014b3d7715b,,,,,,,,,,,,
"[""period""]",0,[1.1330000000000382],105,0,105,0,1,5e8f75cd1baf78261f752cf4,Mężczyzna,53,2021-07-13_22h11.50.632,rantool2,2021.1.4,Win32,30.00120005,5e8f75cd1baf78261f752cf4,60d9d14f4a8a35a482e0d9bf,60edf0e48efe0014b3d7715b,,,,,,,,,,,,
"[""comma""]",0,[0.6569999999999823],106,0,106,0,1,5e8f75cd1baf78261f752cf4,Mężczyzna,53,2021-07-13_22h11.50.632,rantool2,2021.1.4,Win32,30.00120005,5e8f75cd1baf78261f752cf4,60d9d14f4a8a35a482e0d9bf,60edf0e48efe0014b3d7715b,,,,,,,,,,,,
"[""comma""]",0,[0.6640000000000441],107,0,107,0,1,5e8f75cd1baf78261f752cf4,Mężczyzna,53,2021-07-13_22h11.50.632,rantool2,2021.1.4,Win32,30.00120005,5e8f75cd1baf78261f752cf4,60d9d14f4a8a35a482e0d9bf,60edf0e48efe0014b3d7715b,,,,,,,,,,,,
"[""comma""]",0,[0.7909999999999968],108,0,108,0,1,5e8f75cd1baf78261f752cf4,Mężczyzna,53,2021-07-13_22h11.50.632,rantool2,2021.1.4,Win32,30.00120005,5e8f75cd1baf78261f752cf4,60d9d14f4a8a35a482e0d9bf,60edf0e48efe0014b3d7715b,,,,,,,,,,,,
"[""period""]",0,[0.6139999999999759],109,0,109,0,1,5e8f75cd1baf78261f752cf4,Mężczyzna,53,2021-07-13_22h11.50.632,rantool2,2021.1.4,Win32,30.00120005,5e8f75cd1baf78261f752cf4,60d9d14f4a8a35a482e0d9bf,60edf0e48efe0014b3d7715b,,,,,,,,,,,,
"[""period""]",0,[0.4370000000000118],110,0,110,0,1,5e8f75cd1baf78261f752cf4,Mężczyzna,53,2021-07-13_22h11.50.632,rantool2,2021.1.4,Win32,30.00120005,5e8f75cd1baf78261f752cf4,60d9d14f4a8a35a482e0d9bf,60edf0e48efe0014b3d7715b,,,,,,,,,,,,
"[""period""]",0,[0.34799999999995634],111,0,111,0,1,5e8f75cd1baf78261f752cf4,Mężczyzna,53,2021-07-13_22h11.50.632,rantool2,2021.1.4,Win32,30.00120005,5e8f75cd1baf78261f752cf4,60d9d14f4a8a35a482e0d9bf,60edf0e48efe0014b3d7715b,,,,,,,,,,,,
"[""period""]",0,[0.5300000000000296],112,0,112,0,1,5e8f75cd1baf78261f752cf4,Mężczyzna,53,2021-07-13_22h11.50.632,rantool2,2021.1.4,Win32,30.00120005,5e8f75cd1baf78261f752cf4,60d9d14f4a8a35a482e0d9bf,60edf0e48efe0014b3d7715b,,,,,,,,,,,,
0,0,,113,0,113,0,1,5e8f75cd1baf78261f752cf4,Mężczyzna,53,2021-07-13_22h11.50.632,rantool2,2021.1.4,Win32,30.00120005,5e8f75cd1baf78261f752cf4,60d9d14f4a8a35a482e0d9bf,60edf0e48efe0014b3d7715b,,,,,,,,,,,,
"[""comma""]",0,[0.5400000000000205],114,0,114,0,1,5e8f75cd1baf78261f752cf4,Mężczyzna,53,2021-07-13_22h11.50.632,rantool2,2021.1.4,Win32,30.00120005,5e8f75cd1baf78261f752cf4,60d9d14f4a8a35a482e0d9bf,60edf0e48efe0014b3d7715b,,,,,,,,,,,,
0,0,,115,0,115,0,1,5e8f75cd1baf78261f752cf4,Mężczyzna,53,2021-07-13_22h11.50.632,rantool2,2021.1.4,Win32,30.00120005,5e8f75cd1baf78261f752cf4,60d9d14f4a8a35a482e0d9bf,60edf0e48efe0014b3d7715b,,,,,,,,,,,,
"[""period""]",0,[0.8149999999999977],116,0,116,0,1,5e8f75cd1baf78261f752cf4,Mężczyzna,53,2021-07-13_22h11.50.632,rantool2,2021.1.4,Win32,30.00120005,5e8f75cd1baf78261f752cf4,60d9d14f4a8a35a482e0d9bf,60edf0e48efe0014b3d7715b,,,,,,,,,,,,
"[""comma""]",0,[0.5529999999999973],117,0,117,0,1,5e8f75cd1baf78261f752cf4,Mężczyzna,53,2021-07-13_22h11.50.632,rantool2,2021.1.4,Win32,30.00120005,5e8f75cd1baf78261f752cf4,60d9d14f4a8a35a482e0d9bf,60edf0e48efe0014b3d7715b,,,,,,,,,,,,
"[""comma""]",0,[0.44299999999998363],118,0,118,0,1,5e8f75cd1baf78261f752cf4,Mężczyzna,53,2021-07-13_22h11.50.632,rantool2,2021.1.4,Win32,30.00120005,5e8f75cd1baf78261f752cf4,60d9d14f4a8a35a482e0d9bf,60edf0e48efe0014b3d7715b,,,,,,,,,,,,
"[""period""]",0,[0.5640000000000214],119,0,119,0,1,5e8f75cd1baf78261f752cf4,Mężczyzna,53,2021-07-13_22h11.50.632,rantool2,2021.1.4,Win32,30.00120005,5e8f75cd1baf78261f752cf4,60d9d14f4a8a35a482e0d9bf,60edf0e48efe0014b3d7715b,,,,,,,,,,,,
,,,,,,,,5e8f75cd1baf78261f752cf4,Mężczyzna,53,2021-07-13_22h11.50.632,rantool2,2021.1.4,Win32,30.00120005,5e8f75cd1baf78261f752cf4,60d9d14f4a8a35a482e0d9bf,60edf0e48efe0014b3d7715b,j,3.59,0,0,0,3,1,OOOORRO,OOOORRR,20.90986523,21.74922619,series_1
,,,,,,,,5e8f75cd1baf78261f752cf4,Mężczyzna,53,2021-07-13_22h11.50.632,rantool2,2021.1.4,Win32,30.00120005,5e8f75cd1baf78261f752cf4,60d9d14f4a8a35a482e0d9bf,60edf0e48efe0014b3d7715b,,,0,1,1,37,1,ROORORO,ROORORR,20.42602454,21.57657071,series_1
,,,,,,,,5e8f75cd1baf78261f752cf4,Mężczyzna,53,2021-07-13_22h11.50.632,rantool2,2021.1.4,Win32,30.00120005,5e8f75cd1baf78261f752cf4,60d9d14f4a8a35a482e0d9bf,60edf0e48efe0014b3d7715b,j,4.878,0,2,2,38,1,ROORROO,ROORROR,21.79500819,21.36812781,series_0
,,,,,,,,5e8f75cd1baf78261f752cf4,Mężczyzna,53,2021-07-13_22h11.50.632,rantool2,2021.1.4,Win32,30.00120005,5e8f75cd1baf78261f752cf4,60d9d14f4a8a35a482e0d9bf,60edf0e48efe0014b3d7715b,f,2.982,0,3,3,35,1,ROOORRO,ROOORRR,21.76276513,22.16977179,series_1
,,,,,,,,5e8f75cd1baf78261f752cf4,Mężczyzna,53,2021-07-13_22h11.50.632,rantool2,2021.1.4,Win32,30.00120005,5e8f75cd1baf78261f752cf4,60d9d14f4a8a35a482e0d9bf,60edf0e48efe0014b3d7715b,j,2.601,0,4,4,40,1,ROROOOO,ROROOOR,20.87963819,21.37121559,series_1
,,,,,,,,5e8f75cd1baf78261f752cf4,Mężczyzna,53,2021-07-13_22h11.50.632,rantool2,2021.1.4,Win32,30.00120005,5e8f75cd1baf78261f752cf4,60d9d14f4a8a35a482e0d9bf,60edf0e48efe0014b3d7715b,f,3.461,0,5,5,28,1,ORRROOO,ORRROOR,22.24142883,22.53364006,series_1
,,,,,,,,5e8f75cd1baf78261f752cf4,Mężczyzna,53,2021-07-13_22h11.50.632,rantool2,2021.1.4,Win32,30.00120005,5e8f75cd1baf78261f752cf4,60d9d14f4a8a35a482e0d9bf,60edf0e48efe0014b3d7715b,f,4.587,0,6,6,62,1,RRRRROO,RRRRROR,22.16413392,21.27974287,series_0
,,,,,,,,5e8f75cd1baf78261f752cf4,Mężczyzna,53,2021-07-13_22h11.50.632,rantool2,2021.1.4,Win32,30.00120005,5e8f75cd1baf78261f752cf4,60d9d14f4a8a35a482e0d9bf,60edf0e48efe0014b3d7715b,f,4.18,0,7,7,39,1,ROORRRO,ROORRRR,21.82425538,21.38562617,series_0
,,,,,,,,5e8f75cd1baf78261f752cf4,Mężczyzna,53,2021-07-13_22h11.50.632,rantool2,2021.1.4,Win32,30.00120005,5e8f75cd1baf78261f752cf4,60d9d14f4a8a35a482e0d9bf,60edf0e48efe0014b3d7715b,j,4.156,0,8,8,49,1,RROOORO,RROOORR,21.76276513,22.53364006,series_1
,,,,,,,,5e8f75cd1baf78261f752cf4,Mężczyzna,53,2021-07-13_22h11.50.632,rantool2,2021.1.4,Win32,30.00120005,5e8f75cd1baf78261f752cf4,60d9d14f4a8a35a482e0d9bf,60edf0e48efe0014b3d7715b,,,0,9,9,55,1,RRORRRO,RRORRRR,21.56657303,21.21223021,series_0
,,,,,,,,5e8f75cd1baf78261f752cf4,Mężczyzna,53,2021-07-13_22h11.50.632,rantool2,2021.1.4,Win32,30.00120005,5e8f75cd1baf78261f752cf4,60d9d14f4a8a35a482e0d9bf,60edf0e48efe0014b3d7715b,f,0.46,0,10,10,53,1,RRORORO,RRORORR,20.71309134,21.90565814,series_1
,,,,,,,,5e8f75cd1baf78261f752cf4,Mężczyzna,53,2021-07-13_22h11.50.632,rantool2,2021.1.4,Win32,30.00120005,5e8f75cd1baf78261f752cf4,60d9d14f4a8a35a482e0d9bf,60edf0e48efe0014b3d7715b,,,0,11,11,29,1,ORRRORO,ORRRORR,22.00300695,22.12173012,series_1
,,,,,,,,5e8f75cd1baf78261f752cf4,Mężczyzna,53,2021-07-13_22h11.50.632,rantool2,2021.1.4,Win32,30.00120005,5e8f75cd1baf78261f752cf4,60d9d14f4a8a35a482e0d9bf,60edf0e48efe0014b3d7715b,j,4.812,0,12,12,50,1,RROOROO,RROOROR,21.73568164,22.02566557,series_1
,,,,,,,,5e8f75cd1baf78261f752cf4,Mężczyzna,53,2021-07-13_22h11.50.632,rantool2,2021.1.4,Win32,30.00120005,5e8f75cd1baf78261f752cf4,60d9d14f4a8a35a482e0d9bf,60edf0e48efe0014b3d7715b,f,3.145,0,13,13,63,1,RRRRRRO,RRRRRRR,21.35278725,19.62521613,series_0
,,,,,,,,5e8f75cd1baf78261f752cf4,Mężczyzna,53,2021-07-13_22h11.50.632,rantool2,2021.1.4,Win32,30.00120005,5e8f75cd1baf78261f752cf4,60d9d14f4a8a35a482e0d9bf,60edf0e48efe0014b3d7715b,f,3.406,0,14,14,32,1,ROOOOOO,ROOOOOR,19.92253567,21.27974287,series_1
,,,,,,,,5e8f75cd1baf78261f752cf4,Mężczyzna,53,2021-07-13_22h11.50.632,rantool2,2021.1.4,Win32,30.00120005,5e8f75cd1baf78261f752cf4,60d9d14f4a8a35a482e0d9bf,60edf0e48efe0014b3d7715b,f,3.984,0,15,15,36,1,ROOROOO,ROOROOR,21.07991943,20.9984461,series_0
,,,,,,,,5e8f75cd1baf78261f752cf4,Mężczyzna,53,2021-07-13_22h11.50.632,rantool2,2021.1.4,Win32,30.00120005,5e8f75cd1baf78261f752cf4,60d9d14f4a8a35a482e0d9bf,60edf0e48efe0014b3d7715b,j,2.75,0,16,16,23,1,ORORRRO,ORORRRR,22.1285618,21.9921709,series_0
,,,,,,,,5e8f75cd1baf78261f752cf4,Mężczyzna,53,2021-07-13_22h11.50.632,rantool2,2021.1.4,Win32,30.00120005,5e8f75cd1baf78261f752cf4,60d9d14f4a8a35a482e0d9bf,60edf0e48efe0014b3d7715b,j,4.428,0,17,17,22,1,ORORROO,ORORROR,22.02732763,21.57657071,series_0
,,,,,,,,5e8f75cd1baf78261f752cf4,Mężczyzna,53,2021-07-13_22h11.50.632,rantool2,2021.1.4,Win32,30.00120005,5e8f75cd1baf78261f752cf4,60d9d14f4a8a35a482e0d9bf,60edf0e48efe0014b3d7715b,j,4.132,0,18,18,52,1,RROROOO,RROROOR,22.18365867,22.11097995,series_0
,,,,,,,,5e8f75cd1baf78261f752cf4,Mężczyzna,53,2021-07-13_22h11.50.632,rantool2,2021.1.4,Win32,30.00120005,5e8f75cd1baf78261f752cf4,60d9d14f4a8a35a482e0d9bf,60edf0e48efe0014b3d7715b,f,4.445,0,19,19,14,1,OORRROO,OORRROR,22.24142883,22.16977179,series_0
,,,,,,,,5e8f75cd1baf78261f752cf4,Mężczyzna,53,2021-07-13_22h11.50.632,rantool2,2021.1.4,Win32,30.00120005,5e8f75cd1baf78261f752cf4,60d9d14f4a8a35a482e0d9bf,60edf0e48efe0014b3d7715b,f,3.228,0,20,20,11,1,OORORRO,OORORRR,22.18365867,22.6797523,series_1
,,,,,,,,5e8f75cd1baf78261f752cf4,Mężczyzna,53,2021-07-13_22h11.50.632,rantool2,2021.1.4,Win32,30.00120005,5e8f75cd1baf78261f752cf4,60d9d14f4a8a35a482e0d9bf,60edf0e48efe0014b3d7715b,f,0.082,0,21,21,43,1,RORORRO,RORORRR,20.71309134,21.07490964,series_1
,,,,,,,,5e8f75cd1baf78261f752cf4,Mężczyzna,53,2021-07-13_22h11.50.632,rantool2,2021.1.4,Win32,30.00120005,5e8f75cd1baf78261f752cf4,60d9d14f4a8a35a482e0d9bf,60edf0e48efe0014b3d7715b,j,3.921,0,22,22,18,1,OROOROO,OROOROR,20.84860893,21.22513037,series_1
,,,,,,,,5e8f75cd1baf78261f752cf4,Mężczyzna,53,2021-07-13_22h11.50.632,rantool2,2021.1.4,Win32,30.00120005,5e8f75cd1baf78261f752cf4,60d9d14f4a8a35a482e0d9bf,60edf0e48efe0014b3d7715b,f,4.117,0,23,23,25,1,ORROORO,ORROORR,21.79500819,22.61624387,series_1
,,,,,,,,5e8f75cd1baf78261f752cf4,Mężczyzna,53,2021-07-13_22h11.50.632,rantool2,2021.1.4,Win32,30.00120005,5e8f75cd1baf78261f752cf4,60d9d14f4a8a35a482e0d9bf,60edf0e48efe0014b3d7715b,f,4.047,0,24,24,41,1,ROROORO,ROROORR,20.42602454,21.71443381,series_1
,,,,,,,,5e8f75cd1baf78261f752cf4,Mężczyzna,53,2021-07-13_22h11.50.632,rantool2,2021.1.4,Win32,30.00120005,5e8f75cd1baf78261f752cf4,60d9d14f4a8a35a482e0d9bf,60edf0e48efe0014b3d7715b,f,4.211,0,25,25,51,1,RROORRO,RROORRR,21.89852628,22.02786418,series_1
,,,,,,,,5e8f75cd1baf78261f752cf4,Mężczyzna,53,2021-07-13_22h11.50.632,rantool2,2021.1.4,Win32,30.00120005,5e8f75cd1baf78261f752cf4,60d9d14f4a8a35a482e0d9bf,60edf0e48efe0014b3d7715b,j,2.88,0,26,26,24,1,ORROOOO,ORROOOR,21.12383932,22.07102821,series_1
,,,,,,,,5e8f75cd1baf78261f752cf4,Mężczyzna,53,2021-07-13_22h11.50.632,rantool2,2021.1.4,Win32,30.00120005,5e8f75cd1baf78261f752cf4,60d9d14f4a8a35a482e0d9bf,60edf0e48efe0014b3d7715b,f,2.414,0,27,27,8,1,OOROOOO,OOROOOR,19.91402015,20.89823192,series_1
,,,,,,,,5e8f75cd1baf78261f752cf4,Mężczyzna,53,2021-07-13_22h11.50.632,rantool2,2021.1.4,Win32,30.00120005,5e8f75cd1baf78261f752cf4,60d9d14f4a8a35a482e0d9bf,60edf0e48efe0014b3d7715b,j,3.706,0,28,28,20,1,OROROOO,OROROOR,21.31236711,21.90565814,series_1
,,,,,,,,5e8f75cd1baf78261f752cf4,Mężczyzna,53,2021-07-13_22h11.50.632,rantool2,2021.1.4,Win32,30.00120005,5e8f75cd1baf78261f752cf4,60d9d14f4a8a35a482e0d9bf,60edf0e48efe0014b3d7715b,f,3.609,0,29,29,60,1,RRRROOO,RRRROOR,22.10108823,22.15934078,series_1
,,,,,,,,5e8f75cd1baf78261f752cf4,Mężczyzna,53,2021-07-13_22h11.50.632,rantool2,2021.1.4,Win32,30.00120005,5e8f75cd1baf78261f752cf4,60d9d14f4a8a35a482e0d9bf,60edf0e48efe0014b3d7715b,j,2.674,0,30,30,47,1,RORRRRO,RORRRRR,21.81333602,21.02936224,series_0
,,,,,,,,5e8f75cd1baf78261f752cf4,Mężczyzna,53,2021-07-13_22h11.50.632,rantool2,2021.1.4,Win32,30.00120005,5e8f75cd1baf78261f752cf4,60d9d14f4a8a35a482e0d9bf,60edf0e48efe0014b3d7715b,j,3.444,0,31,31,19,1,OROORRO,OROORRR,21.73568164,22.11181017,series_1
,,,,,,,,5e8f75cd1baf78261f752cf4,Mężczyzna,53,2021-07-13_22h11.50.632,rantool2,2021.1.4,Win32,30.00120005,5e8f75cd1baf78261f752cf4,60d9d14f4a8a35a482e0d9bf,60edf0e48efe0014b3d7715b,f,4.022,0,32,32,42,1,ROROROO,ROROROR,20.39515459,19.8361834,series_0
,,,,,,,,5e8f75cd1baf78261f752cf4,Mężczyzna,53,2021-07-13_22h11.50.632,rantool2,2021.1.4,Win32,30.00120005,5e8f75cd1baf78261f752cf4,60d9d14f4a8a35a482e0d9bf,60edf0e48efe0014b3d7715b,j,3.67,0,33,33,34,1,ROOOROO,ROOOROR,21.03750787,21.24781509,series_1
,,,,,,,,5e8f75cd1baf78261f752cf4,Mężczyzna,53,2021-07-13_22h11.50.632,rantool2,2021.1.4,Win32,30.00120005,5e8f75cd1baf78261f752cf4,60d9d14f4a8a35a482e0d9bf,60edf0e48efe0014b3d7715b,f,4.825,0,34,34,54,1,RRORROO,RRORROR,21.55250791,20.9984461,series_0
,,,,,,,,5e8f75cd1baf78261f752cf4,Mężczyzna,53,2021-07-13_22h11.50.632,rantool2,2021.1.4,Win32,30.00120005,5e8f75cd1baf78261f752cf4,60d9d14f4a8a35a482e0d9bf,60edf0e48efe0014b3d7715b,f,3.183,0,35,35,4,1,OOOROOO,OOOROOR,19.91402015,21.21223021,series_1
,,,,,,,,5e8f75cd1baf78261f752cf4,Mężczyzna,53,2021-07-13_22h11.50.632,rantool2,2021.1.4,Win32,30.00120005,5e8f75cd1baf78261f752cf4,60d9d14f4a8a35a482e0d9bf,60edf0e48efe0014b3d7715b,j,3.431,0,36,36,33,1,ROOOORO,ROOOORR,20.83779602,22.03072203,series_1
,,,,,,,,5e8f75cd1baf78261f752cf4,Mężczyzna,53,2021-07-13_22h11.50.632,rantool2,2021.1.4,Win32,30.00120005,5e8f75cd1baf78261f752cf4,60d9d14f4a8a35a482e0d9bf,60edf0e48efe0014b3d7715b,f,4.669,0,37,37,59,1,RRRORRO,RRRORRR,21.56657303,20.89823192,series_0
,,,,,,,,5e8f75cd1baf78261f752cf4,Mężczyzna,53,2021-07-13_22h11.50.632,rantool2,2021.1.4,Win32,30.00120005,5e8f75cd1baf78261f752cf4,60d9d14f4a8a35a482e0d9bf,60edf0e48efe0014b3d7715b,,,0,38,38,6,1,OOORROO,OOORROR,21.12383932,21.38562617,series_1
,,,,,,,,5e8f75cd1baf78261f752cf4,Mężczyzna,53,2021-07-13_22h11.50.632,rantool2,2021.1.4,Win32,30.00120005,5e8f75cd1baf78261f752cf4,60d9d14f4a8a35a482e0d9bf,60edf0e48efe0014b3d7715b,f,4.662,0,39,39,44,1,RORROOO,RORROOR,21.66733484,22.02566557,series_1
,,,,,,,,5e8f75cd1baf78261f752cf4,Mężczyzna,53,2021-07-13_22h11.50.632,rantool2,2021.1.4,Win32,30.00120005,5e8f75cd1baf78261f752cf4,60d9d14f4a8a35a482e0d9bf,60edf0e48efe0014b3d7715b,f,4.504,0,40,40,26,1,ORROROO,ORROROR,22.02732763,21.71443381,series_0
,,,,,,,,5e8f75cd1baf78261f752cf4,Mężczyzna,53,2021-07-13_22h11.50.632,rantool2,2021.1.4,Win32,30.00120005,5e8f75cd1baf78261f752cf4,60d9d14f4a8a35a482e0d9bf,60edf0e48efe0014b3d7715b,j,0.12,0,41,41,15,1,OORRRRO,OORRRRR,22.10108823,21.74922619,series_0
,,,,,,,,5e8f75cd1baf78261f752cf4,Mężczyzna,53,2021-07-13_22h11.50.632,rantool2,2021.1.4,Win32,30.00120005,5e8f75cd1baf78261f752cf4,60d9d14f4a8a35a482e0d9bf,60edf0e48efe0014b3d7715b,f,3.744,0,42,42,0,1,OOOOOOO,OOOOOOR,18.52739004,19.62521613,series_1
,,,,,,,,5e8f75cd1baf78261f752cf4,Mężczyzna,53,2021-07-13_22h11.50.632,rantool2,2021.1.4,Win32,30.00120005,5e8f75cd1baf78261f752cf4,60d9d14f4a8a35a482e0d9bf,60edf0e48efe0014b3d7715b,,,0,43,43,10,1,OOROROO,OOROROR,21.31236711,21.07490964,series_0
,,,,,,,,5e8f75cd1baf78261f752cf4,Mężczyzna,53,2021-07-13_22h11.50.632,rantool2,2021.1.4,Win32,30.00120005,5e8f75cd1baf78261f752cf4,60d9d14f4a8a35a482e0d9bf,60edf0e48efe0014b3d7715b,f,4.501,0,44,44,5,1,OOORORO,OOORORR,20.87963819,21.9921709,series_1
,,,,,,,,5e8f75cd1baf78261f752cf4,Mężczyzna,53,2021-07-13_22h11.50.632,rantool2,2021.1.4,Win32,30.00120005,5e8f75cd1baf78261f752cf4,60d9d14f4a8a35a482e0d9bf,60edf0e48efe0014b3d7715b,f,3.308,0,45,45,12,1,OORROOO,OORROOR,21.30250474,22.02786418,series_1
,,,,,,,,5e8f75cd1baf78261f752cf4,Mężczyzna,53,2021-07-13_22h11.50.632,rantool2,2021.1.4,Win32,30.00120005,5e8f75cd1baf78261f752cf4,60d9d14f4a8a35a482e0d9bf,60edf0e48efe0014b3d7715b,j,3.566,0,46,46,56,1,RRROOOO,RRROOOR,21.6194508,22.31681875,series_1
,,,,,,,,5e8f75cd1baf78261f752cf4,Mężczyzna,53,2021-07-13_22h11.50.632,rantool2,2021.1.4,Win32,30.00120005,5e8f75cd1baf78261f752cf4,60d9d14f4a8a35a482e0d9bf,60edf0e48efe0014b3d7715b,j,3.821,0,47,47,46,1,RORRROO,RORRROR,22.00300695,21.24781509,series_0
,,,,,,,,5e8f75cd1baf78261f752cf4,Mężczyzna,53,2021-07-13_22h11.50.632,rantool2,2021.1.4,Win32,30.00120005,5e8f75cd1baf78261f752cf4,60d9d14f4a8a35a482e0d9bf,60edf0e48efe0014b3d7715b,f,3.37,0,48,48,13,1,OORRORO,OORRORR,21.66733484,22.11181017,series_1
,,,,,,,,5e8f75cd1baf78261f752cf4,Mężczyzna,53,2021-07-13_22h11.50.632,rantool2,2021.1.4,Win32,30.00120005,5e8f75cd1baf78261f752cf4,60d9d14f4a8a35a482e0d9bf,60edf0e48efe0014b3d7715b,j,4.931,0,49,49,27,1,ORRORRO,ORRORRR,21.55250791,22.2428857,series_1
,,,,,,,,5e8f75cd1baf78261f752cf4,Mężczyzna,53,2021-07-13_22h11.50.632,rantool2,2021.1.4,Win32,30.00120005,5e8f75cd1baf78261f752cf4,60d9d14f4a8a35a482e0d9bf,60edf0e48efe0014b3d7715b,f,4.28,0,50,50,31,1,ORRRRRO,ORRRRRR,22.16413392,20.74050628,series_0
,,,,,,,,5e8f75cd1baf78261f752cf4,Mężczyzna,53,2021-07-13_22h11.50.632,rantool2,2021.1.4,Win32,30.00120005,5e8f75cd1baf78261f752cf4,60d9d14f4a8a35a482e0d9bf,60edf0e48efe0014b3d7715b,j,4.903,0,51,51,1,1,OOOOORO,OOOOORR,19.92253567,20.74050628,series_1
,,,,,,,,5e8f75cd1baf78261f752cf4,Mężczyzna,53,2021-07-13_22h11.50.632,rantool2,2021.1.4,Win32,30.00120005,5e8f75cd1baf78261f752cf4,60d9d14f4a8a35a482e0d9bf,60edf0e48efe0014b3d7715b,,,0,52,52,30,1,ORRRROO,ORRRROR,22.46748491,22.03072203,series_0
,,,,,,,,5e8f75cd1baf78261f752cf4,Mężczyzna,53,2021-07-13_22h11.50.632,rantool2,2021.1.4,Win32,30.00120005,5e8f75cd1baf78261f752cf4,60d9d14f4a8a35a482e0d9bf,60edf0e48efe0014b3d7715b,,,0,53,53,57,1,RRROORO,RRROORR,21.82425538,22.07102821,series_1
,,,,,,,,5e8f75cd1baf78261f752cf4,Mężczyzna,53,2021-07-13_22h11.50.632,rantool2,2021.1.4,Win32,30.00120005,5e8f75cd1baf78261f752cf4,60d9d14f4a8a35a482e0d9bf,60edf0e48efe0014b3d7715b,j,4.771,0,54,54,58,1,RRROROO,RRROROR,22.1285618,21.37121559,series_0
,,,,,,,,5e8f75cd1baf78261f752cf4,Mężczyzna,53,2021-07-13_22h11.50.632,rantool2,2021.1.4,Win32,30.00120005,5e8f75cd1baf78261f752cf4,60d9d14f4a8a35a482e0d9bf,60edf0e48efe0014b3d7715b,j,2.551,0,55,55,48,1,RROOOOO,RROOOOR,20.90986523,22.15934078,series_1
,,,,,,,,5e8f75cd1baf78261f752cf4,Mężczyzna,53,2021-07-13_22h11.50.632,rantool2,2021.1.4,Win32,30.00120005,5e8f75cd1baf78261f752cf4,60d9d14f4a8a35a482e0d9bf,60edf0e48efe0014b3d7715b,f,4.548,0,56,56,17,1,OROOORO,OROOORR,21.03750787,22.12173012,series_1
,,,,,,,,5e8f75cd1baf78261f752cf4,Mężczyzna,53,2021-07-13_22h11.50.632,rantool2,2021.1.4,Win32,30.00120005,5e8f75cd1baf78261f752cf4,60d9d14f4a8a35a482e0d9bf,60edf0e48efe0014b3d7715b,,,0,57,57,45,1,RORRORO,RORRORR,20.78182524,21.22513037,series_1
,,,,,,,,5e8f75cd1baf78261f752cf4,Mężczyzna,53,2021-07-13_22h11.50.632,rantool2,2021.1.4,Win32,30.00120005,5e8f75cd1baf78261f752cf4,60d9d14f4a8a35a482e0d9bf,60edf0e48efe0014b3d7715b,f,0.03,0,58,58,7,1,OOORRRO,OOORRRR,21.6194508,21.899017,series_1
,,,,,,,,5e8f75cd1baf78261f752cf4,Mężczyzna,53,2021-07-13_22h11.50.632,rantool2,2021.1.4,Win32,30.00120005,5e8f75cd1baf78261f752cf4,60d9d14f4a8a35a482e0d9bf,60edf0e48efe0014b3d7715b,j,3.184,0,59,59,9,1,OOROORO,OOROORR,21.07991943,22.2428857,series_1
,,,,,,,,5e8f75cd1baf78261f752cf4,Mężczyzna,53,2021-07-13_22h11.50.632,rantool2,2021.1.4,Win32,30.00120005,5e8f75cd1baf78261f752cf4,60d9d14f4a8a35a482e0d9bf,60edf0e48efe0014b3d7715b,j,4.119,0,60,60,21,1,ORORORO,ORORORR,20.39515459,22.06781359,series_1
,,,,,,,,5e8f75cd1baf78261f752cf4,Mężczyzna,53,2021-07-13_22h11.50.632,rantool2,2021.1.4,Win32,30.00120005,5e8f75cd1baf78261f752cf4,60d9d14f4a8a35a482e0d9bf,60edf0e48efe0014b3d7715b,f,3.723,0,61,61,61,1,RRRRORO,RRRRORR,21.81333602,21.17347734,series_0
,,,,,,,,5e8f75cd1baf78261f752cf4,Mężczyzna,53,2021-07-13_22h11.50.632,rantool2,2021.1.4,Win32,30.00120005,5e8f75cd1baf78261f752cf4,60d9d14f4a8a35a482e0d9bf,60edf0e48efe0014b3d7715b,,,0,62,62,16,1,OROOOOO,OROOOOR,20.43051175,21.17347734,series_1
,,,,,,,,5e8f75cd1baf78261f752cf4,Mężczyzna,53,2021-07-13_22h11.50.632,rantool2,2021.1.4,Win32,30.00120005,5e8f75cd1baf78261f752cf4,60d9d14f4a8a35a482e0d9bf,60edf0e48efe0014b3d7715b,f,3.754,0,63,63,2,1,OOOOROO,OOOOROR,20.43051175,21.02936224,series_1
