key_resp_7.keys,key_resp_7.rt,trials_2.thisRepN,trials_2.thisTrialN,trials_2.thisN,trials_2.thisIndex,trials_2.ran,id,series_0,series_1,acss_0,acss_1,comparison,id*,Płeć*,Wiek*,date,expName,psychopyVersion,OS,frameRate,STUDY_ID,SESSION_ID,key_resp_5.keys,key_resp_5.corr,key_resp_5.rt,trials.thisRepN,trials.thisTrialN,trials.thisN,trials.thisIndex,trials.ran
f,1.7778,0,0,0,28,1,6131532c91b1750f51a9cb0a,ORRROOO,ORRROOR,22.24142883,22.53364006,series_1,6131532c91b1750f51a9cb0a,Mężczyzna,19,2021-09-06_19h24.41.615,rantool2,2021.1.4,Win32,59.97720866,6135e006383e6ea6c3d06a28,61364cd405d6a61e6afda5a5,,,,,,,,
j,1.767,0,1,1,5,1,6131532c91b1750f51a9cb0a,OOORORO,OOORORR,20.87963819,21.9921709,series_1,6131532c91b1750f51a9cb0a,Mężczyzna,19,2021-09-06_19h24.41.615,rantool2,2021.1.4,Win32,59.97720866,6135e006383e6ea6c3d06a28,61364cd405d6a61e6afda5a5,,,,,,,,
f,0.7008,0,2,2,40,1,6131532c91b1750f51a9cb0a,ROROOOO,ROROOOR,20.87963819,21.37121559,series_1,6131532c91b1750f51a9cb0a,Mężczyzna,19,2021-09-06_19h24.41.615,rantool2,2021.1.4,Win32,59.97720866,6135e006383e6ea6c3d06a28,61364cd405d6a61e6afda5a5,,,,,,,,
j,0.5944,0,3,3,61,1,6131532c91b1750f51a9cb0a,RRRRORO,RRRRORR,21.81333602,21.17347734,series_0,6131532c91b1750f51a9cb0a,Mężczyzna,19,2021-09-06_19h24.41.615,rantool2,2021.1.4,Win32,59.97720866,6135e006383e6ea6c3d06a28,61364cd405d6a61e6afda5a5,,,,,,,,
f,0.4838,0,4,4,1,1,6131532c91b1750f51a9cb0a,OOOOORO,OOOOORR,19.92253567,20.74050628,series_1,6131532c91b1750f51a9cb0a,Mężczyzna,19,2021-09-06_19h24.41.615,rantool2,2021.1.4,Win32,59.97720866,6135e006383e6ea6c3d06a28,61364cd405d6a61e6afda5a5,,,,,,,,
j,1.4339,0,5,5,35,1,6131532c91b1750f51a9cb0a,ROOORRO,ROOORRR,21.76276513,22.16977179,series_1,6131532c91b1750f51a9cb0a,Mężczyzna,19,2021-09-06_19h24.41.615,rantool2,2021.1.4,Win32,59.97720866,6135e006383e6ea6c3d06a28,61364cd405d6a61e6afda5a5,,,,,,,,
j,1.7339,0,6,6,42,1,6131532c91b1750f51a9cb0a,ROROROO,ROROROR,20.39515459,19.8361834,series_0,6131532c91b1750f51a9cb0a,Mężczyzna,19,2021-09-06_19h24.41.615,rantool2,2021.1.4,Win32,59.97720866,6135e006383e6ea6c3d06a28,61364cd405d6a61e6afda5a5,,,,,,,,
j,1.7531,0,7,7,62,1,6131532c91b1750f51a9cb0a,RRRRROO,RRRRROR,22.16413392,21.27974287,series_0,6131532c91b1750f51a9cb0a,Mężczyzna,19,2021-09-06_19h24.41.615,rantool2,2021.1.4,Win32,59.97720866,6135e006383e6ea6c3d06a28,61364cd405d6a61e6afda5a5,,,,,,,,
j,1.9505,0,8,8,32,1,6131532c91b1750f51a9cb0a,ROOOOOO,ROOOOOR,19.92253567,21.27974287,series_1,6131532c91b1750f51a9cb0a,Mężczyzna,19,2021-09-06_19h24.41.615,rantool2,2021.1.4,Win32,59.97720866,6135e006383e6ea6c3d06a28,61364cd405d6a61e6afda5a5,,,,,,,,
j,1.7674,0,9,9,14,1,6131532c91b1750f51a9cb0a,OORRROO,OORRROR,22.24142883,22.16977179,series_0,6131532c91b1750f51a9cb0a,Mężczyzna,19,2021-09-06_19h24.41.615,rantool2,2021.1.4,Win32,59.97720866,6135e006383e6ea6c3d06a28,61364cd405d6a61e6afda5a5,,,,,,,,
j,1.6709,0,10,10,36,1,6131532c91b1750f51a9cb0a,ROOROOO,ROOROOR,21.07991943,20.9984461,series_0,6131532c91b1750f51a9cb0a,Mężczyzna,19,2021-09-06_19h24.41.615,rantool2,2021.1.4,Win32,59.97720866,6135e006383e6ea6c3d06a28,61364cd405d6a61e6afda5a5,,,,,,,,
j,1.4506,0,11,11,10,1,6131532c91b1750f51a9cb0a,OOROROO,OOROROR,21.31236711,21.07490964,series_0,6131532c91b1750f51a9cb0a,Mężczyzna,19,2021-09-06_19h24.41.615,rantool2,2021.1.4,Win32,59.97720866,6135e006383e6ea6c3d06a28,61364cd405d6a61e6afda5a5,,,,,,,,
f,1.4426,0,12,12,13,1,6131532c91b1750f51a9cb0a,OORRORO,OORRORR,21.66733484,22.11181017,series_1,6131532c91b1750f51a9cb0a,Mężczyzna,19,2021-09-06_19h24.41.615,rantool2,2021.1.4,Win32,59.97720866,6135e006383e6ea6c3d06a28,61364cd405d6a61e6afda5a5,,,,,,,,
f,1.6171,0,13,13,46,1,6131532c91b1750f51a9cb0a,RORRROO,RORRROR,22.00300695,21.24781509,series_0,6131532c91b1750f51a9cb0a,Mężczyzna,19,2021-09-06_19h24.41.615,rantool2,2021.1.4,Win32,59.97720866,6135e006383e6ea6c3d06a28,61364cd405d6a61e6afda5a5,,,,,,,,
j,1.6513,0,14,14,37,1,6131532c91b1750f51a9cb0a,ROORORO,ROORORR,20.42602454,21.57657071,series_1,6131532c91b1750f51a9cb0a,Mężczyzna,19,2021-09-06_19h24.41.615,rantool2,2021.1.4,Win32,59.97720866,6135e006383e6ea6c3d06a28,61364cd405d6a61e6afda5a5,,,,,,,,
j,1.6174,0,15,15,50,1,6131532c91b1750f51a9cb0a,RROOROO,RROOROR,21.73568164,22.02566557,series_1,6131532c91b1750f51a9cb0a,Mężczyzna,19,2021-09-06_19h24.41.615,rantool2,2021.1.4,Win32,59.97720866,6135e006383e6ea6c3d06a28,61364cd405d6a61e6afda5a5,,,,,,,,
j,1.9172,0,16,16,51,1,6131532c91b1750f51a9cb0a,RROORRO,RROORRR,21.89852628,22.02786418,series_1,6131532c91b1750f51a9cb0a,Mężczyzna,19,2021-09-06_19h24.41.615,rantool2,2021.1.4,Win32,59.97720866,6135e006383e6ea6c3d06a28,61364cd405d6a61e6afda5a5,,,,,,,,
f,2.3554,0,17,17,3,1,6131532c91b1750f51a9cb0a,OOOORRO,OOOORRR,20.90986523,21.74922619,series_1,6131532c91b1750f51a9cb0a,Mężczyzna,19,2021-09-06_19h24.41.615,rantool2,2021.1.4,Win32,59.97720866,6135e006383e6ea6c3d06a28,61364cd405d6a61e6afda5a5,,,,,,,,
j,1.3835,0,18,18,4,1,6131532c91b1750f51a9cb0a,OOOROOO,OOOROOR,19.91402015,21.21223021,series_1,6131532c91b1750f51a9cb0a,Mężczyzna,19,2021-09-06_19h24.41.615,rantool2,2021.1.4,Win32,59.97720866,6135e006383e6ea6c3d06a28,61364cd405d6a61e6afda5a5,,,,,,,,
j,1.4778,0,19,19,54,1,6131532c91b1750f51a9cb0a,RRORROO,RRORROR,21.55250791,20.9984461,series_0,6131532c91b1750f51a9cb0a,Mężczyzna,19,2021-09-06_19h24.41.615,rantool2,2021.1.4,Win32,59.97720866,6135e006383e6ea6c3d06a28,61364cd405d6a61e6afda5a5,,,,,,,,
f,1.6218,0,20,20,11,1,6131532c91b1750f51a9cb0a,OORORRO,OORORRR,22.18365867,22.6797523,series_1,6131532c91b1750f51a9cb0a,Mężczyzna,19,2021-09-06_19h24.41.615,rantool2,2021.1.4,Win32,59.97720866,6135e006383e6ea6c3d06a28,61364cd405d6a61e6afda5a5,,,,,,,,
f,1.5867,0,21,21,0,1,6131532c91b1750f51a9cb0a,OOOOOOO,OOOOOOR,18.52739004,19.62521613,series_1,6131532c91b1750f51a9cb0a,Mężczyzna,19,2021-09-06_19h24.41.615,rantool2,2021.1.4,Win32,59.97720866,6135e006383e6ea6c3d06a28,61364cd405d6a61e6afda5a5,,,,,,,,
j,1.6422,0,22,22,20,1,6131532c91b1750f51a9cb0a,OROROOO,OROROOR,21.31236711,21.90565814,series_1,6131532c91b1750f51a9cb0a,Mężczyzna,19,2021-09-06_19h24.41.615,rantool2,2021.1.4,Win32,59.97720866,6135e006383e6ea6c3d06a28,61364cd405d6a61e6afda5a5,,,,,,,,
f,1.2125,0,23,23,2,1,6131532c91b1750f51a9cb0a,OOOOROO,OOOOROR,20.43051175,21.02936224,series_1,6131532c91b1750f51a9cb0a,Mężczyzna,19,2021-09-06_19h24.41.615,rantool2,2021.1.4,Win32,59.97720866,6135e006383e6ea6c3d06a28,61364cd405d6a61e6afda5a5,,,,,,,,
j,1.1459,0,24,24,23,1,6131532c91b1750f51a9cb0a,ORORRRO,ORORRRR,22.1285618,21.9921709,series_0,6131532c91b1750f51a9cb0a,Mężczyzna,19,2021-09-06_19h24.41.615,rantool2,2021.1.4,Win32,59.97720866,6135e006383e6ea6c3d06a28,61364cd405d6a61e6afda5a5,,,,,,,,
f,1.0794,0,25,25,56,1,6131532c91b1750f51a9cb0a,RRROOOO,RRROOOR,21.6194508,22.31681875,series_1,6131532c91b1750f51a9cb0a,Mężczyzna,19,2021-09-06_19h24.41.615,rantool2,2021.1.4,Win32,59.97720866,6135e006383e6ea6c3d06a28,61364cd405d6a61e6afda5a5,,,,,,,,
j,1.1004,0,26,26,31,1,6131532c91b1750f51a9cb0a,ORRRRRO,ORRRRRR,22.16413392,20.74050628,series_0,6131532c91b1750f51a9cb0a,Mężczyzna,19,2021-09-06_19h24.41.615,rantool2,2021.1.4,Win32,59.97720866,6135e006383e6ea6c3d06a28,61364cd405d6a61e6afda5a5,,,,,,,,
j,1.3558,0,27,27,17,1,6131532c91b1750f51a9cb0a,OROOORO,OROOORR,21.03750787,22.12173012,series_1,6131532c91b1750f51a9cb0a,Mężczyzna,19,2021-09-06_19h24.41.615,rantool2,2021.1.4,Win32,59.97720866,6135e006383e6ea6c3d06a28,61364cd405d6a61e6afda5a5,,,,,,,,
j,1.036,0,28,28,21,1,6131532c91b1750f51a9cb0a,ORORORO,ORORORR,20.39515459,22.06781359,series_1,6131532c91b1750f51a9cb0a,Mężczyzna,19,2021-09-06_19h24.41.615,rantool2,2021.1.4,Win32,59.97720866,6135e006383e6ea6c3d06a28,61364cd405d6a61e6afda5a5,,,,,,,,
f,1.0595,0,29,29,44,1,6131532c91b1750f51a9cb0a,RORROOO,RORROOR,21.66733484,22.02566557,series_1,6131532c91b1750f51a9cb0a,Mężczyzna,19,2021-09-06_19h24.41.615,rantool2,2021.1.4,Win32,59.97720866,6135e006383e6ea6c3d06a28,61364cd405d6a61e6afda5a5,,,,,,,,
j,0.9753,0,30,30,49,1,6131532c91b1750f51a9cb0a,RROOORO,RROOORR,21.76276513,22.53364006,series_1,6131532c91b1750f51a9cb0a,Mężczyzna,19,2021-09-06_19h24.41.615,rantool2,2021.1.4,Win32,59.97720866,6135e006383e6ea6c3d06a28,61364cd405d6a61e6afda5a5,,,,,,,,
j,1.0504,0,31,31,18,1,6131532c91b1750f51a9cb0a,OROOROO,OROOROR,20.84860893,21.22513037,series_1,6131532c91b1750f51a9cb0a,Mężczyzna,19,2021-09-06_19h24.41.615,rantool2,2021.1.4,Win32,59.97720866,6135e006383e6ea6c3d06a28,61364cd405d6a61e6afda5a5,,,,,,,,
f,0.9538,0,32,32,39,1,6131532c91b1750f51a9cb0a,ROORRRO,ROORRRR,21.82425538,21.38562617,series_0,6131532c91b1750f51a9cb0a,Mężczyzna,19,2021-09-06_19h24.41.615,rantool2,2021.1.4,Win32,59.97720866,6135e006383e6ea6c3d06a28,61364cd405d6a61e6afda5a5,,,,,,,,
j,0.8965,0,33,33,9,1,6131532c91b1750f51a9cb0a,OOROORO,OOROORR,21.07991943,22.2428857,series_1,6131532c91b1750f51a9cb0a,Mężczyzna,19,2021-09-06_19h24.41.615,rantool2,2021.1.4,Win32,59.97720866,6135e006383e6ea6c3d06a28,61364cd405d6a61e6afda5a5,,,,,,,,
f,1.0614,0,34,34,15,1,6131532c91b1750f51a9cb0a,OORRRRO,OORRRRR,22.10108823,21.74922619,series_0,6131532c91b1750f51a9cb0a,Mężczyzna,19,2021-09-06_19h24.41.615,rantool2,2021.1.4,Win32,59.97720866,6135e006383e6ea6c3d06a28,61364cd405d6a61e6afda5a5,,,,,,,,
j,1.0705,0,35,35,30,1,6131532c91b1750f51a9cb0a,ORRRROO,ORRRROR,22.46748491,22.03072203,series_0,6131532c91b1750f51a9cb0a,Mężczyzna,19,2021-09-06_19h24.41.615,rantool2,2021.1.4,Win32,59.97720866,6135e006383e6ea6c3d06a28,61364cd405d6a61e6afda5a5,,,,,,,,
f,1.4005,0,36,36,12,1,6131532c91b1750f51a9cb0a,OORROOO,OORROOR,21.30250474,22.02786418,series_1,6131532c91b1750f51a9cb0a,Mężczyzna,19,2021-09-06_19h24.41.615,rantool2,2021.1.4,Win32,59.97720866,6135e006383e6ea6c3d06a28,61364cd405d6a61e6afda5a5,,,,,,,,
f,1.9671,0,37,37,48,1,6131532c91b1750f51a9cb0a,RROOOOO,RROOOOR,20.90986523,22.15934078,series_1,6131532c91b1750f51a9cb0a,Mężczyzna,19,2021-09-06_19h24.41.615,rantool2,2021.1.4,Win32,59.97720866,6135e006383e6ea6c3d06a28,61364cd405d6a61e6afda5a5,,,,,,,,
j,1.2195,0,38,38,52,1,6131532c91b1750f51a9cb0a,RROROOO,RROROOR,22.18365867,22.11097995,series_0,6131532c91b1750f51a9cb0a,Mężczyzna,19,2021-09-06_19h24.41.615,rantool2,2021.1.4,Win32,59.97720866,6135e006383e6ea6c3d06a28,61364cd405d6a61e6afda5a5,,,,,,,,
j,1.1924,0,39,39,34,1,6131532c91b1750f51a9cb0a,ROOOROO,ROOOROR,21.03750787,21.24781509,series_1,6131532c91b1750f51a9cb0a,Mężczyzna,19,2021-09-06_19h24.41.615,rantool2,2021.1.4,Win32,59.97720866,6135e006383e6ea6c3d06a28,61364cd405d6a61e6afda5a5,,,,,,,,
f,1.274,0,40,40,60,1,6131532c91b1750f51a9cb0a,RRRROOO,RRRROOR,22.10108823,22.15934078,series_1,6131532c91b1750f51a9cb0a,Mężczyzna,19,2021-09-06_19h24.41.615,rantool2,2021.1.4,Win32,59.97720866,6135e006383e6ea6c3d06a28,61364cd405d6a61e6afda5a5,,,,,,,,
j,1.1838,0,41,41,22,1,6131532c91b1750f51a9cb0a,ORORROO,ORORROR,22.02732763,21.57657071,series_0,6131532c91b1750f51a9cb0a,Mężczyzna,19,2021-09-06_19h24.41.615,rantool2,2021.1.4,Win32,59.97720866,6135e006383e6ea6c3d06a28,61364cd405d6a61e6afda5a5,,,,,,,,
f,1.0739,0,42,42,19,1,6131532c91b1750f51a9cb0a,OROORRO,OROORRR,21.73568164,22.11181017,series_1,6131532c91b1750f51a9cb0a,Mężczyzna,19,2021-09-06_19h24.41.615,rantool2,2021.1.4,Win32,59.97720866,6135e006383e6ea6c3d06a28,61364cd405d6a61e6afda5a5,,,,,,,,
f,2.1728,0,43,43,16,1,6131532c91b1750f51a9cb0a,OROOOOO,OROOOOR,20.43051175,21.17347734,series_1,6131532c91b1750f51a9cb0a,Mężczyzna,19,2021-09-06_19h24.41.615,rantool2,2021.1.4,Win32,59.97720866,6135e006383e6ea6c3d06a28,61364cd405d6a61e6afda5a5,,,,,,,,
j,1.3109,0,44,44,6,1,6131532c91b1750f51a9cb0a,OOORROO,OOORROR,21.12383932,21.38562617,series_1,6131532c91b1750f51a9cb0a,Mężczyzna,19,2021-09-06_19h24.41.615,rantool2,2021.1.4,Win32,59.97720866,6135e006383e6ea6c3d06a28,61364cd405d6a61e6afda5a5,,,,,,,,
j,1.7386,0,45,45,7,1,6131532c91b1750f51a9cb0a,OOORRRO,OOORRRR,21.6194508,21.899017,series_1,6131532c91b1750f51a9cb0a,Mężczyzna,19,2021-09-06_19h24.41.615,rantool2,2021.1.4,Win32,59.97720866,6135e006383e6ea6c3d06a28,61364cd405d6a61e6afda5a5,,,,,,,,
f,1.0417,0,46,46,26,1,6131532c91b1750f51a9cb0a,ORROROO,ORROROR,22.02732763,21.71443381,series_0,6131532c91b1750f51a9cb0a,Mężczyzna,19,2021-09-06_19h24.41.615,rantool2,2021.1.4,Win32,59.97720866,6135e006383e6ea6c3d06a28,61364cd405d6a61e6afda5a5,,,,,,,,
j,1.0338,0,47,47,24,1,6131532c91b1750f51a9cb0a,ORROOOO,ORROOOR,21.12383932,22.07102821,series_1,6131532c91b1750f51a9cb0a,Mężczyzna,19,2021-09-06_19h24.41.615,rantool2,2021.1.4,Win32,59.97720866,6135e006383e6ea6c3d06a28,61364cd405d6a61e6afda5a5,,,,,,,,
f,1.3572,0,48,48,55,1,6131532c91b1750f51a9cb0a,RRORRRO,RRORRRR,21.56657303,21.21223021,series_0,6131532c91b1750f51a9cb0a,Mężczyzna,19,2021-09-06_19h24.41.615,rantool2,2021.1.4,Win32,59.97720866,6135e006383e6ea6c3d06a28,61364cd405d6a61e6afda5a5,,,,,,,,
j,1.0561,0,49,49,38,1,6131532c91b1750f51a9cb0a,ROORROO,ROORROR,21.79500819,21.36812781,series_0,6131532c91b1750f51a9cb0a,Mężczyzna,19,2021-09-06_19h24.41.615,rantool2,2021.1.4,Win32,59.97720866,6135e006383e6ea6c3d06a28,61364cd405d6a61e6afda5a5,,,,,,,,
f,0.8136,0,50,50,43,1,6131532c91b1750f51a9cb0a,RORORRO,RORORRR,20.71309134,21.07490964,series_1,6131532c91b1750f51a9cb0a,Mężczyzna,19,2021-09-06_19h24.41.615,rantool2,2021.1.4,Win32,59.97720866,6135e006383e6ea6c3d06a28,61364cd405d6a61e6afda5a5,,,,,,,,
j,0.5343,0,51,51,25,1,6131532c91b1750f51a9cb0a,ORROORO,ORROORR,21.79500819,22.61624387,series_1,6131532c91b1750f51a9cb0a,Mężczyzna,19,2021-09-06_19h24.41.615,rantool2,2021.1.4,Win32,59.97720866,6135e006383e6ea6c3d06a28,61364cd405d6a61e6afda5a5,,,,,,,,
f,0.4582,0,52,52,8,1,6131532c91b1750f51a9cb0a,OOROOOO,OOROOOR,19.91402015,20.89823192,series_1,6131532c91b1750f51a9cb0a,Mężczyzna,19,2021-09-06_19h24.41.615,rantool2,2021.1.4,Win32,59.97720866,6135e006383e6ea6c3d06a28,61364cd405d6a61e6afda5a5,,,,,,,,
j,0.4528,0,53,53,47,1,6131532c91b1750f51a9cb0a,RORRRRO,RORRRRR,21.81333602,21.02936224,series_0,6131532c91b1750f51a9cb0a,Mężczyzna,19,2021-09-06_19h24.41.615,rantool2,2021.1.4,Win32,59.97720866,6135e006383e6ea6c3d06a28,61364cd405d6a61e6afda5a5,,,,,,,,
j,0.467,0,54,54,45,1,6131532c91b1750f51a9cb0a,RORRORO,RORRORR,20.78182524,21.22513037,series_1,6131532c91b1750f51a9cb0a,Mężczyzna,19,2021-09-06_19h24.41.615,rantool2,2021.1.4,Win32,59.97720866,6135e006383e6ea6c3d06a28,61364cd405d6a61e6afda5a5,,,,,,,,
f,0.3954,0,55,55,53,1,6131532c91b1750f51a9cb0a,RRORORO,RRORORR,20.71309134,21.90565814,series_1,6131532c91b1750f51a9cb0a,Mężczyzna,19,2021-09-06_19h24.41.615,rantool2,2021.1.4,Win32,59.97720866,6135e006383e6ea6c3d06a28,61364cd405d6a61e6afda5a5,,,,,,,,
j,0.4433,0,56,56,57,1,6131532c91b1750f51a9cb0a,RRROORO,RRROORR,21.82425538,22.07102821,series_1,6131532c91b1750f51a9cb0a,Mężczyzna,19,2021-09-06_19h24.41.615,rantool2,2021.1.4,Win32,59.97720866,6135e006383e6ea6c3d06a28,61364cd405d6a61e6afda5a5,,,,,,,,
f,0.458,0,57,57,27,1,6131532c91b1750f51a9cb0a,ORRORRO,ORRORRR,21.55250791,22.2428857,series_1,6131532c91b1750f51a9cb0a,Mężczyzna,19,2021-09-06_19h24.41.615,rantool2,2021.1.4,Win32,59.97720866,6135e006383e6ea6c3d06a28,61364cd405d6a61e6afda5a5,,,,,,,,
j,1.1104,0,58,58,63,1,6131532c91b1750f51a9cb0a,RRRRRRO,RRRRRRR,21.35278725,19.62521613,series_0,6131532c91b1750f51a9cb0a,Mężczyzna,19,2021-09-06_19h24.41.615,rantool2,2021.1.4,Win32,59.97720866,6135e006383e6ea6c3d06a28,61364cd405d6a61e6afda5a5,,,,,,,,
j,0.8124,0,59,59,58,1,6131532c91b1750f51a9cb0a,RRROROO,RRROROR,22.1285618,21.37121559,series_0,6131532c91b1750f51a9cb0a,Mężczyzna,19,2021-09-06_19h24.41.615,rantool2,2021.1.4,Win32,59.97720866,6135e006383e6ea6c3d06a28,61364cd405d6a61e6afda5a5,,,,,,,,
j,1.0833,0,60,60,33,1,6131532c91b1750f51a9cb0a,ROOOORO,ROOOORR,20.83779602,22.03072203,series_1,6131532c91b1750f51a9cb0a,Mężczyzna,19,2021-09-06_19h24.41.615,rantool2,2021.1.4,Win32,59.97720866,6135e006383e6ea6c3d06a28,61364cd405d6a61e6afda5a5,,,,,,,,
f,0.8709,0,61,61,41,1,6131532c91b1750f51a9cb0a,ROROORO,ROROORR,20.42602454,21.71443381,series_1,6131532c91b1750f51a9cb0a,Mężczyzna,19,2021-09-06_19h24.41.615,rantool2,2021.1.4,Win32,59.97720866,6135e006383e6ea6c3d06a28,61364cd405d6a61e6afda5a5,,,,,,,,
j,0.7368,0,62,62,59,1,6131532c91b1750f51a9cb0a,RRRORRO,RRRORRR,21.56657303,20.89823192,series_0,6131532c91b1750f51a9cb0a,Mężczyzna,19,2021-09-06_19h24.41.615,rantool2,2021.1.4,Win32,59.97720866,6135e006383e6ea6c3d06a28,61364cd405d6a61e6afda5a5,,,,,,,,
f,0.756,0,63,63,29,1,6131532c91b1750f51a9cb0a,ORRRORO,ORRRORR,22.00300695,22.12173012,series_1,6131532c91b1750f51a9cb0a,Mężczyzna,19,2021-09-06_19h24.41.615,rantool2,2021.1.4,Win32,59.97720866,6135e006383e6ea6c3d06a28,61364cd405d6a61e6afda5a5,,,,,,,,
,,,,,,,6131532c91b1750f51a9cb0a,,,,,,6131532c91b1750f51a9cb0a,Mężczyzna,19,2021-09-06_19h24.41.615,rantool2,2021.1.4,Win32,59.97720866,6135e006383e6ea6c3d06a28,61364cd405d6a61e6afda5a5,"[""comma""]",0,[0.42770000004767894],0,0,0,0,1
,,,,,,,6131532c91b1750f51a9cb0a,,,,,,6131532c91b1750f51a9cb0a,Mężczyzna,19,2021-09-06_19h24.41.615,rantool2,2021.1.4,Win32,59.97720866,6135e006383e6ea6c3d06a28,61364cd405d6a61e6afda5a5,"[""period""]",0,[0.24500000000000455],1,0,1,0,1
,,,,,,,6131532c91b1750f51a9cb0a,,,,,,6131532c91b1750f51a9cb0a,Mężczyzna,19,2021-09-06_19h24.41.615,rantool2,2021.1.4,Win32,59.97720866,6135e006383e6ea6c3d06a28,61364cd405d6a61e6afda5a5,"[""comma""]",0,[0.23900000000000432],2,0,2,0,1
,,,,,,,6131532c91b1750f51a9cb0a,,,,,,6131532c91b1750f51a9cb0a,Mężczyzna,19,2021-09-06_19h24.41.615,rantool2,2021.1.4,Win32,59.97720866,6135e006383e6ea6c3d06a28,61364cd405d6a61e6afda5a5,"[""period""]",0,[0.2634999999999934],3,0,3,0,1
,,,,,,,6131532c91b1750f51a9cb0a,,,,,,6131532c91b1750f51a9cb0a,Mężczyzna,19,2021-09-06_19h24.41.615,rantool2,2021.1.4,Win32,59.97720866,6135e006383e6ea6c3d06a28,61364cd405d6a61e6afda5a5,"[""period""]",0,[0.2417000000476719],4,0,4,0,1
,,,,,,,6131532c91b1750f51a9cb0a,,,,,,6131532c91b1750f51a9cb0a,Mężczyzna,19,2021-09-06_19h24.41.615,rantool2,2021.1.4,Win32,59.97720866,6135e006383e6ea6c3d06a28,61364cd405d6a61e6afda5a5,"[""comma""]",0,[0.1017999999523056],5,0,5,0,1
,,,,,,,6131532c91b1750f51a9cb0a,,,,,,6131532c91b1750f51a9cb0a,Mężczyzna,19,2021-09-06_19h24.41.615,rantool2,2021.1.4,Win32,59.97720866,6135e006383e6ea6c3d06a28,61364cd405d6a61e6afda5a5,"[""period""]",0,[0.2307000000476762],6,0,6,0,1
,,,,,,,6131532c91b1750f51a9cb0a,,,,,,6131532c91b1750f51a9cb0a,Mężczyzna,19,2021-09-06_19h24.41.615,rantool2,2021.1.4,Win32,59.97720866,6135e006383e6ea6c3d06a28,61364cd405d6a61e6afda5a5,"[""period""]",0,[0.22050000000001546],7,0,7,0,1
,,,,,,,6131532c91b1750f51a9cb0a,,,,,,6131532c91b1750f51a9cb0a,Mężczyzna,19,2021-09-06_19h24.41.615,rantool2,2021.1.4,Win32,59.97720866,6135e006383e6ea6c3d06a28,61364cd405d6a61e6afda5a5,"[""comma""]",0,[0.20550000000000068],8,0,8,0,1
,,,,,,,6131532c91b1750f51a9cb0a,,,,,,6131532c91b1750f51a9cb0a,Mężczyzna,19,2021-09-06_19h24.41.615,rantool2,2021.1.4,Win32,59.97720866,6135e006383e6ea6c3d06a28,61364cd405d6a61e6afda5a5,"[""comma""]",0,[0.2513999998569716],9,0,9,0,1
,,,,,,,6131532c91b1750f51a9cb0a,,,,,,6131532c91b1750f51a9cb0a,Mężczyzna,19,2021-09-06_19h24.41.615,rantool2,2021.1.4,Win32,59.97720866,6135e006383e6ea6c3d06a28,61364cd405d6a61e6afda5a5,"[""period""]",0,[0.027399999856953627],10,0,10,0,1
,,,,,,,6131532c91b1750f51a9cb0a,,,,,,6131532c91b1750f51a9cb0a,Mężczyzna,19,2021-09-06_19h24.41.615,rantool2,2021.1.4,Win32,59.97720866,6135e006383e6ea6c3d06a28,61364cd405d6a61e6afda5a5,"[""period""]",0,[0.1285000000000025],11,0,11,0,1
,,,,,,,6131532c91b1750f51a9cb0a,,,,,,6131532c91b1750f51a9cb0a,Mężczyzna,19,2021-09-06_19h24.41.615,rantool2,2021.1.4,Win32,59.97720866,6135e006383e6ea6c3d06a28,61364cd405d6a61e6afda5a5,"[""comma""]",0,[0.2450999999046246],12,0,12,0,1
,,,,,,,6131532c91b1750f51a9cb0a,,,,,,6131532c91b1750f51a9cb0a,Mężczyzna,19,2021-09-06_19h24.41.615,rantool2,2021.1.4,Win32,59.97720866,6135e006383e6ea6c3d06a28,61364cd405d6a61e6afda5a5,"[""period""]",0,[0.2422000000476885],13,0,13,0,1
,,,,,,,6131532c91b1750f51a9cb0a,,,,,,6131532c91b1750f51a9cb0a,Mężczyzna,19,2021-09-06_19h24.41.615,rantool2,2021.1.4,Win32,59.97720866,6135e006383e6ea6c3d06a28,61364cd405d6a61e6afda5a5,"[""comma""]",0,[0.3024000000953606],14,0,14,0,1
,,,,,,,6131532c91b1750f51a9cb0a,,,,,,6131532c91b1750f51a9cb0a,Mężczyzna,19,2021-09-06_19h24.41.615,rantool2,2021.1.4,Win32,59.97720866,6135e006383e6ea6c3d06a28,61364cd405d6a61e6afda5a5,"[""period""]",0,[0.34110000014305797],15,0,15,0,1
,,,,,,,6131532c91b1750f51a9cb0a,,,,,,6131532c91b1750f51a9cb0a,Mężczyzna,19,2021-09-06_19h24.41.615,rantool2,2021.1.4,Win32,59.97720866,6135e006383e6ea6c3d06a28,61364cd405d6a61e6afda5a5,"[""comma""]",0,[0.2753999998569725],16,0,16,0,1
,,,,,,,6131532c91b1750f51a9cb0a,,,,,,6131532c91b1750f51a9cb0a,Mężczyzna,19,2021-09-06_19h24.41.615,rantool2,2021.1.4,Win32,59.97720866,6135e006383e6ea6c3d06a28,61364cd405d6a61e6afda5a5,"[""period""]",0,[0.23490000009536516],17,0,17,0,1
,,,,,,,6131532c91b1750f51a9cb0a,,,,,,6131532c91b1750f51a9cb0a,Mężczyzna,19,2021-09-06_19h24.41.615,rantool2,2021.1.4,Win32,59.97720866,6135e006383e6ea6c3d06a28,61364cd405d6a61e6afda5a5,"[""comma""]",0,[0.20570000004767053],18,0,18,0,1
,,,,,,,6131532c91b1750f51a9cb0a,,,,,,6131532c91b1750f51a9cb0a,Mężczyzna,19,2021-09-06_19h24.41.615,rantool2,2021.1.4,Win32,59.97720866,6135e006383e6ea6c3d06a28,61364cd405d6a61e6afda5a5,"[""period""]",0,[0.28379999995232197],19,0,19,0,1
,,,,,,,6131532c91b1750f51a9cb0a,,,,,,6131532c91b1750f51a9cb0a,Mężczyzna,19,2021-09-06_19h24.41.615,rantool2,2021.1.4,Win32,59.97720866,6135e006383e6ea6c3d06a28,61364cd405d6a61e6afda5a5,"[""comma""]",0,[0.2717999999523215],20,0,20,0,1
,,,,,,,6131532c91b1750f51a9cb0a,,,,,,6131532c91b1750f51a9cb0a,Mężczyzna,19,2021-09-06_19h24.41.615,rantool2,2021.1.4,Win32,59.97720866,6135e006383e6ea6c3d06a28,61364cd405d6a61e6afda5a5,"[""comma""]",0,[0.33409999990462325],21,0,21,0,1
,,,,,,,6131532c91b1750f51a9cb0a,,,,,,6131532c91b1750f51a9cb0a,Mężczyzna,19,2021-09-06_19h24.41.615,rantool2,2021.1.4,Win32,59.97720866,6135e006383e6ea6c3d06a28,61364cd405d6a61e6afda5a5,"[""period""]",0,[0.2867000000476878],22,0,22,0,1
,,,,,,,6131532c91b1750f51a9cb0a,,,,,,6131532c91b1750f51a9cb0a,Mężczyzna,19,2021-09-06_19h24.41.615,rantool2,2021.1.4,Win32,59.97720866,6135e006383e6ea6c3d06a28,61364cd405d6a61e6afda5a5,"[""period""]",0,[0.2957999999523224],23,0,23,0,1
,,,,,,,6131532c91b1750f51a9cb0a,,,,,,6131532c91b1750f51a9cb0a,Mężczyzna,19,2021-09-06_19h24.41.615,rantool2,2021.1.4,Win32,59.97720866,6135e006383e6ea6c3d06a28,61364cd405d6a61e6afda5a5,"[""comma""]",0,[0.23370000004769054],24,0,24,0,1
,,,,,,,6131532c91b1750f51a9cb0a,,,,,,6131532c91b1750f51a9cb0a,Mężczyzna,19,2021-09-06_19h24.41.615,rantool2,2021.1.4,Win32,59.97720866,6135e006383e6ea6c3d06a28,61364cd405d6a61e6afda5a5,"[""comma""]",0,[0.35040000009536243],25,0,25,0,1
,,,,,,,6131532c91b1750f51a9cb0a,,,,,,6131532c91b1750f51a9cb0a,Mężczyzna,19,2021-09-06_19h24.41.615,rantool2,2021.1.4,Win32,59.97720866,6135e006383e6ea6c3d06a28,61364cd405d6a61e6afda5a5,"[""comma""]",0,[0.2504999999999882],26,0,26,0,1
,,,,,,,6131532c91b1750f51a9cb0a,,,,,,6131532c91b1750f51a9cb0a,Mężczyzna,19,2021-09-06_19h24.41.615,rantool2,2021.1.4,Win32,59.97720866,6135e006383e6ea6c3d06a28,61364cd405d6a61e6afda5a5,"[""comma""]",0,[0.25799999999998136],27,0,27,0,1
,,,,,,,6131532c91b1750f51a9cb0a,,,,,,6131532c91b1750f51a9cb0a,Mężczyzna,19,2021-09-06_19h24.41.615,rantool2,2021.1.4,Win32,59.97720866,6135e006383e6ea6c3d06a28,61364cd405d6a61e6afda5a5,"[""period""]",0,[0.18649999999999523],28,0,28,0,1
,,,,,,,6131532c91b1750f51a9cb0a,,,,,,6131532c91b1750f51a9cb0a,Mężczyzna,19,2021-09-06_19h24.41.615,rantool2,2021.1.4,Win32,59.97720866,6135e006383e6ea6c3d06a28,61364cd405d6a61e6afda5a5,"[""period""]",0,[0.012500000000017053],29,0,29,0,1
,,,,,,,6131532c91b1750f51a9cb0a,,,,,,6131532c91b1750f51a9cb0a,Mężczyzna,19,2021-09-06_19h24.41.615,rantool2,2021.1.4,Win32,59.97720866,6135e006383e6ea6c3d06a28,61364cd405d6a61e6afda5a5,"[""period""]",0,[0.22870000004769508],30,0,30,0,1
,,,,,,,6131532c91b1750f51a9cb0a,,,,,,6131532c91b1750f51a9cb0a,Mężczyzna,19,2021-09-06_19h24.41.615,rantool2,2021.1.4,Win32,59.97720866,6135e006383e6ea6c3d06a28,61364cd405d6a61e6afda5a5,"[""period""]",0,[0.29440000009537926],31,0,31,0,1
,,,,,,,6131532c91b1750f51a9cb0a,,,,,,6131532c91b1750f51a9cb0a,Mężczyzna,19,2021-09-06_19h24.41.615,rantool2,2021.1.4,Win32,59.97720866,6135e006383e6ea6c3d06a28,61364cd405d6a61e6afda5a5,"[""comma""]",0,[0.3455999999046355],32,0,32,0,1
,,,,,,,6131532c91b1750f51a9cb0a,,,,,,6131532c91b1750f51a9cb0a,Mężczyzna,19,2021-09-06_19h24.41.615,rantool2,2021.1.4,Win32,59.97720866,6135e006383e6ea6c3d06a28,61364cd405d6a61e6afda5a5,"[""comma""]",0,[0.23840000009536766],33,0,33,0,1
,,,,,,,6131532c91b1750f51a9cb0a,,,,,,6131532c91b1750f51a9cb0a,Mężczyzna,19,2021-09-06_19h24.41.615,rantool2,2021.1.4,Win32,59.97720866,6135e006383e6ea6c3d06a28,61364cd405d6a61e6afda5a5,"[""period""]",0,[0.3252000000476869],34,0,34,0,1
,,,,,,,6131532c91b1750f51a9cb0a,,,,,,6131532c91b1750f51a9cb0a,Mężczyzna,19,2021-09-06_19h24.41.615,rantool2,2021.1.4,Win32,59.97720866,6135e006383e6ea6c3d06a28,61364cd405d6a61e6afda5a5,"[""comma""]",0,[0.28920000004768553],35,0,35,0,1
,,,,,,,6131532c91b1750f51a9cb0a,,,,,,6131532c91b1750f51a9cb0a,Mężczyzna,19,2021-09-06_19h24.41.615,rantool2,2021.1.4,Win32,59.97720866,6135e006383e6ea6c3d06a28,61364cd405d6a61e6afda5a5,"[""period""]",0,[0.3183000001907317],36,0,36,0,1
,,,,,,,6131532c91b1750f51a9cb0a,,,,,,6131532c91b1750f51a9cb0a,Mężczyzna,19,2021-09-06_19h24.41.615,rantool2,2021.1.4,Win32,59.97720866,6135e006383e6ea6c3d06a28,61364cd405d6a61e6afda5a5,"[""comma""]",0,[0.3019999999999925],37,0,37,0,1
,,,,,,,6131532c91b1750f51a9cb0a,,,,,,6131532c91b1750f51a9cb0a,Mężczyzna,19,2021-09-06_19h24.41.615,rantool2,2021.1.4,Win32,59.97720866,6135e006383e6ea6c3d06a28,61364cd405d6a61e6afda5a5,"[""period""]",0,[0.2513000001907528],38,0,38,0,1
,,,,,,,6131532c91b1750f51a9cb0a,,,,,,6131532c91b1750f51a9cb0a,Mężczyzna,19,2021-09-06_19h24.41.615,rantool2,2021.1.4,Win32,59.97720866,6135e006383e6ea6c3d06a28,61364cd405d6a61e6afda5a5,"[""period""]",0,[0.22609999990464758],39,0,39,0,1
,,,,,,,6131532c91b1750f51a9cb0a,,,,,,6131532c91b1750f51a9cb0a,Mężczyzna,19,2021-09-06_19h24.41.615,rantool2,2021.1.4,Win32,59.97720866,6135e006383e6ea6c3d06a28,61364cd405d6a61e6afda5a5,"[""comma""]",0,[0.3929000000953522],40,0,40,0,1
,,,,,,,6131532c91b1750f51a9cb0a,,,,,,6131532c91b1750f51a9cb0a,Mężczyzna,19,2021-09-06_19h24.41.615,rantool2,2021.1.4,Win32,59.97720866,6135e006383e6ea6c3d06a28,61364cd405d6a61e6afda5a5,"[""period""]",0,[0.519799999952312],41,0,41,0,1
,,,,,,,6131532c91b1750f51a9cb0a,,,,,,6131532c91b1750f51a9cb0a,Mężczyzna,19,2021-09-06_19h24.41.615,rantool2,2021.1.4,Win32,59.97720866,6135e006383e6ea6c3d06a28,61364cd405d6a61e6afda5a5,"[""comma""]",0,[0.29390000009536266],42,0,42,0,1
,,,,,,,6131532c91b1750f51a9cb0a,,,,,,6131532c91b1750f51a9cb0a,Mężczyzna,19,2021-09-06_19h24.41.615,rantool2,2021.1.4,Win32,59.97720866,6135e006383e6ea6c3d06a28,61364cd405d6a61e6afda5a5,"[""period""]",0,[0.30919999980926605],43,0,43,0,1
,,,,,,,6131532c91b1750f51a9cb0a,,,,,,6131532c91b1750f51a9cb0a,Mężczyzna,19,2021-09-06_19h24.41.615,rantool2,2021.1.4,Win32,59.97720866,6135e006383e6ea6c3d06a28,61364cd405d6a61e6afda5a5,"[""period""]",0,[0.2845999999046285],44,0,44,0,1
,,,,,,,6131532c91b1750f51a9cb0a,,,,,,6131532c91b1750f51a9cb0a,Mężczyzna,19,2021-09-06_19h24.41.615,rantool2,2021.1.4,Win32,59.97720866,6135e006383e6ea6c3d06a28,61364cd405d6a61e6afda5a5,"[""comma""]",0,[0.3006999998092681],45,0,45,0,1
,,,,,,,6131532c91b1750f51a9cb0a,,,,,,6131532c91b1750f51a9cb0a,Mężczyzna,19,2021-09-06_19h24.41.615,rantool2,2021.1.4,Win32,59.97720866,6135e006383e6ea6c3d06a28,61364cd405d6a61e6afda5a5,"[""comma""]",0,[0.33370000004768485],46,0,46,0,1
,,,,,,,6131532c91b1750f51a9cb0a,,,,,,6131532c91b1750f51a9cb0a,Mężczyzna,19,2021-09-06_19h24.41.615,rantool2,2021.1.4,Win32,59.97720866,6135e006383e6ea6c3d06a28,61364cd405d6a61e6afda5a5,"[""comma""]",0,[0.23220000004766916],47,0,47,0,1
,,,,,,,6131532c91b1750f51a9cb0a,,,,,,6131532c91b1750f51a9cb0a,Mężczyzna,19,2021-09-06_19h24.41.615,rantool2,2021.1.4,Win32,59.97720866,6135e006383e6ea6c3d06a28,61364cd405d6a61e6afda5a5,"[""comma""]",0,[0.28340000009535515],48,0,48,0,1
,,,,,,,6131532c91b1750f51a9cb0a,,,,,,6131532c91b1750f51a9cb0a,Mężczyzna,19,2021-09-06_19h24.41.615,rantool2,2021.1.4,Win32,59.97720866,6135e006383e6ea6c3d06a28,61364cd405d6a61e6afda5a5,"[""period""]",0,[0.23579999995232015],49,0,49,0,1
,,,,,,,6131532c91b1750f51a9cb0a,,,,,,6131532c91b1750f51a9cb0a,Mężczyzna,19,2021-09-06_19h24.41.615,rantool2,2021.1.4,Win32,59.97720866,6135e006383e6ea6c3d06a28,61364cd405d6a61e6afda5a5,"[""period""]",0,[0.27679999995231697],50,0,50,0,1
,,,,,,,6131532c91b1750f51a9cb0a,,,,,,6131532c91b1750f51a9cb0a,Mężczyzna,19,2021-09-06_19h24.41.615,rantool2,2021.1.4,Win32,59.97720866,6135e006383e6ea6c3d06a28,61364cd405d6a61e6afda5a5,"[""period""]",0,[0.22139999985694203],51,0,51,0,1
,,,,,,,6131532c91b1750f51a9cb0a,,,,,,6131532c91b1750f51a9cb0a,Mężczyzna,19,2021-09-06_19h24.41.615,rantool2,2021.1.4,Win32,59.97720866,6135e006383e6ea6c3d06a28,61364cd405d6a61e6afda5a5,"[""comma""]",0,[0.23250000000001592],52,0,52,0,1
,,,,,,,6131532c91b1750f51a9cb0a,,,,,,6131532c91b1750f51a9cb0a,Mężczyzna,19,2021-09-06_19h24.41.615,rantool2,2021.1.4,Win32,59.97720866,6135e006383e6ea6c3d06a28,61364cd405d6a61e6afda5a5,"[""comma""]",0,[0.22449999999997772],53,0,53,0,1
,,,,,,,6131532c91b1750f51a9cb0a,,,,,,6131532c91b1750f51a9cb0a,Mężczyzna,19,2021-09-06_19h24.41.615,rantool2,2021.1.4,Win32,59.97720866,6135e006383e6ea6c3d06a28,61364cd405d6a61e6afda5a5,"[""period""]",0,[0.2526999998092947],54,0,54,0,1
,,,,,,,6131532c91b1750f51a9cb0a,,,,,,6131532c91b1750f51a9cb0a,Mężczyzna,19,2021-09-06_19h24.41.615,rantool2,2021.1.4,Win32,59.97720866,6135e006383e6ea6c3d06a28,61364cd405d6a61e6afda5a5,"[""period""]",0,[0.28339999985695385],55,0,55,0,1
,,,,,,,6131532c91b1750f51a9cb0a,,,,,,6131532c91b1750f51a9cb0a,Mężczyzna,19,2021-09-06_19h24.41.615,rantool2,2021.1.4,Win32,59.97720866,6135e006383e6ea6c3d06a28,61364cd405d6a61e6afda5a5,"[""period""]",0,[0.2542000000476605],56,0,56,0,1
,,,,,,,6131532c91b1750f51a9cb0a,,,,,,6131532c91b1750f51a9cb0a,Mężczyzna,19,2021-09-06_19h24.41.615,rantool2,2021.1.4,Win32,59.97720866,6135e006383e6ea6c3d06a28,61364cd405d6a61e6afda5a5,"[""comma""]",0,[0.22839999985694703],57,0,57,0,1
,,,,,,,6131532c91b1750f51a9cb0a,,,,,,6131532c91b1750f51a9cb0a,Mężczyzna,19,2021-09-06_19h24.41.615,rantool2,2021.1.4,Win32,59.97720866,6135e006383e6ea6c3d06a28,61364cd405d6a61e6afda5a5,"[""comma""]",0,[0.30040000009535106],58,0,58,0,1
,,,,,,,6131532c91b1750f51a9cb0a,,,,,,6131532c91b1750f51a9cb0a,Mężczyzna,19,2021-09-06_19h24.41.615,rantool2,2021.1.4,Win32,59.97720866,6135e006383e6ea6c3d06a28,61364cd405d6a61e6afda5a5,"[""period""]",0,[0.31749999999999545],59,0,59,0,1
,,,,,,,6131532c91b1750f51a9cb0a,,,,,,6131532c91b1750f51a9cb0a,Mężczyzna,19,2021-09-06_19h24.41.615,rantool2,2021.1.4,Win32,59.97720866,6135e006383e6ea6c3d06a28,61364cd405d6a61e6afda5a5,"[""period""]",0,[0.26539999985692475],60,0,60,0,1
,,,,,,,6131532c91b1750f51a9cb0a,,,,,,6131532c91b1750f51a9cb0a,Mężczyzna,19,2021-09-06_19h24.41.615,rantool2,2021.1.4,Win32,59.97720866,6135e006383e6ea6c3d06a28,61364cd405d6a61e6afda5a5,"[""period""]",0,[0.22909999990463348],61,0,61,0,1
,,,,,,,6131532c91b1750f51a9cb0a,,,,,,6131532c91b1750f51a9cb0a,Mężczyzna,19,2021-09-06_19h24.41.615,rantool2,2021.1.4,Win32,59.97720866,6135e006383e6ea6c3d06a28,61364cd405d6a61e6afda5a5,"[""comma""]",0,[0.2671000001430457],62,0,62,0,1
,,,,,,,6131532c91b1750f51a9cb0a,,,,,,6131532c91b1750f51a9cb0a,Mężczyzna,19,2021-09-06_19h24.41.615,rantool2,2021.1.4,Win32,59.97720866,6135e006383e6ea6c3d06a28,61364cd405d6a61e6afda5a5,"[""comma""]",0,[0.2939000000953911],63,0,63,0,1
,,,,,,,6131532c91b1750f51a9cb0a,,,,,,6131532c91b1750f51a9cb0a,Mężczyzna,19,2021-09-06_19h24.41.615,rantool2,2021.1.4,Win32,59.97720866,6135e006383e6ea6c3d06a28,61364cd405d6a61e6afda5a5,"[""comma""]",0,[0.6262999999522663],64,0,64,0,1
,,,,,,,6131532c91b1750f51a9cb0a,,,,,,6131532c91b1750f51a9cb0a,Mężczyzna,19,2021-09-06_19h24.41.615,rantool2,2021.1.4,Win32,59.97720866,6135e006383e6ea6c3d06a28,61364cd405d6a61e6afda5a5,"[""period""]",0,[0.27609999990465894],65,0,65,0,1
,,,,,,,6131532c91b1750f51a9cb0a,,,,,,6131532c91b1750f51a9cb0a,Mężczyzna,19,2021-09-06_19h24.41.615,rantool2,2021.1.4,Win32,59.97720866,6135e006383e6ea6c3d06a28,61364cd405d6a61e6afda5a5,"[""period""]",0,[0.3347999999523381],66,0,66,0,1
,,,,,,,6131532c91b1750f51a9cb0a,,,,,,6131532c91b1750f51a9cb0a,Mężczyzna,19,2021-09-06_19h24.41.615,rantool2,2021.1.4,Win32,59.97720866,6135e006383e6ea6c3d06a28,61364cd405d6a61e6afda5a5,"[""period""]",0,[0.335700000047666],67,0,67,0,1
,,,,,,,6131532c91b1750f51a9cb0a,,,,,,6131532c91b1750f51a9cb0a,Mężczyzna,19,2021-09-06_19h24.41.615,rantool2,2021.1.4,Win32,59.97720866,6135e006383e6ea6c3d06a28,61364cd405d6a61e6afda5a5,"[""period""]",0,[0.3322999999523404],68,0,68,0,1
,,,,,,,6131532c91b1750f51a9cb0a,,,,,,6131532c91b1750f51a9cb0a,Mężczyzna,19,2021-09-06_19h24.41.615,rantool2,2021.1.4,Win32,59.97720866,6135e006383e6ea6c3d06a28,61364cd405d6a61e6afda5a5,"[""period""]",0,[0.32099999999996953],69,0,69,0,1
,,,,,,,6131532c91b1750f51a9cb0a,,,,,,6131532c91b1750f51a9cb0a,Mężczyzna,19,2021-09-06_19h24.41.615,rantool2,2021.1.4,Win32,59.97720866,6135e006383e6ea6c3d06a28,61364cd405d6a61e6afda5a5,"[""period""]",0,[0.5504000000953511],70,0,70,0,1
,,,,,,,6131532c91b1750f51a9cb0a,,,,,,6131532c91b1750f51a9cb0a,Mężczyzna,19,2021-09-06_19h24.41.615,rantool2,2021.1.4,Win32,59.97720866,6135e006383e6ea6c3d06a28,61364cd405d6a61e6afda5a5,"[""period""]",0,[0.3909999999999627],71,0,71,0,1
,,,,,,,6131532c91b1750f51a9cb0a,,,,,,6131532c91b1750f51a9cb0a,Mężczyzna,19,2021-09-06_19h24.41.615,rantool2,2021.1.4,Win32,59.97720866,6135e006383e6ea6c3d06a28,61364cd405d6a61e6afda5a5,"[""comma""]",0,[0.3127999999522899],72,0,72,0,1
,,,,,,,6131532c91b1750f51a9cb0a,,,,,,6131532c91b1750f51a9cb0a,Mężczyzna,19,2021-09-06_19h24.41.615,rantool2,2021.1.4,Win32,59.97720866,6135e006383e6ea6c3d06a28,61364cd405d6a61e6afda5a5,"[""comma""]",0,[0.3275000000000432],73,0,73,0,1
,,,,,,,6131532c91b1750f51a9cb0a,,,,,,6131532c91b1750f51a9cb0a,Mężczyzna,19,2021-09-06_19h24.41.615,rantool2,2021.1.4,Win32,59.97720866,6135e006383e6ea6c3d06a28,61364cd405d6a61e6afda5a5,"[""period""]",0,[0.35149999999998727],74,0,74,0,1
,,,,,,,6131532c91b1750f51a9cb0a,,,,,,6131532c91b1750f51a9cb0a,Mężczyzna,19,2021-09-06_19h24.41.615,rantool2,2021.1.4,Win32,59.97720866,6135e006383e6ea6c3d06a28,61364cd405d6a61e6afda5a5,"[""period""]",0,[0.39950000000004593],75,0,75,0,1
,,,,,,,6131532c91b1750f51a9cb0a,,,,,,6131532c91b1750f51a9cb0a,Mężczyzna,19,2021-09-06_19h24.41.615,rantool2,2021.1.4,Win32,59.97720866,6135e006383e6ea6c3d06a28,61364cd405d6a61e6afda5a5,"[""comma""]",0,[0.5231000001430743],76,0,76,0,1
,,,,,,,6131532c91b1750f51a9cb0a,,,,,,6131532c91b1750f51a9cb0a,Mężczyzna,19,2021-09-06_19h24.41.615,rantool2,2021.1.4,Win32,59.97720866,6135e006383e6ea6c3d06a28,61364cd405d6a61e6afda5a5,"[""comma""]",0,[0.29970000004772146],77,0,77,0,1
,,,,,,,6131532c91b1750f51a9cb0a,,,,,,6131532c91b1750f51a9cb0a,Mężczyzna,19,2021-09-06_19h24.41.615,rantool2,2021.1.4,Win32,59.97720866,6135e006383e6ea6c3d06a28,61364cd405d6a61e6afda5a5,"[""comma""]",0,[0.38240000009540154],78,0,78,0,1
,,,,,,,6131532c91b1750f51a9cb0a,,,,,,6131532c91b1750f51a9cb0a,Mężczyzna,19,2021-09-06_19h24.41.615,rantool2,2021.1.4,Win32,59.97720866,6135e006383e6ea6c3d06a28,61364cd405d6a61e6afda5a5,"[""period""]",0,[0.40229999995233356],79,0,79,0,1
,,,,,,,6131532c91b1750f51a9cb0a,,,,,,6131532c91b1750f51a9cb0a,Mężczyzna,19,2021-09-06_19h24.41.615,rantool2,2021.1.4,Win32,59.97720866,6135e006383e6ea6c3d06a28,61364cd405d6a61e6afda5a5,"[""period""]",0,[0.3563000001907426],80,0,80,0,1
,,,,,,,6131532c91b1750f51a9cb0a,,,,,,6131532c91b1750f51a9cb0a,Mężczyzna,19,2021-09-06_19h24.41.615,rantool2,2021.1.4,Win32,59.97720866,6135e006383e6ea6c3d06a28,61364cd405d6a61e6afda5a5,"[""comma""]",0,[0.38040000009533514],81,0,81,0,1
,,,,,,,6131532c91b1750f51a9cb0a,,,,,,6131532c91b1750f51a9cb0a,Mężczyzna,19,2021-09-06_19h24.41.615,rantool2,2021.1.4,Win32,59.97720866,6135e006383e6ea6c3d06a28,61364cd405d6a61e6afda5a5,"[""period""]",0,[0.33330000019071804],82,0,82,0,1
,,,,,,,6131532c91b1750f51a9cb0a,,,,,,6131532c91b1750f51a9cb0a,Mężczyzna,19,2021-09-06_19h24.41.615,rantool2,2021.1.4,Win32,59.97720866,6135e006383e6ea6c3d06a28,61364cd405d6a61e6afda5a5,"[""comma""]",0,[0.3163999998569693],83,0,83,0,1
,,,,,,,6131532c91b1750f51a9cb0a,,,,,,6131532c91b1750f51a9cb0a,Mężczyzna,19,2021-09-06_19h24.41.615,rantool2,2021.1.4,Win32,59.97720866,6135e006383e6ea6c3d06a28,61364cd405d6a61e6afda5a5,"[""comma""]",0,[0.30220000004766234],84,0,84,0,1
,,,,,,,6131532c91b1750f51a9cb0a,,,,,,6131532c91b1750f51a9cb0a,Mężczyzna,19,2021-09-06_19h24.41.615,rantool2,2021.1.4,Win32,59.97720866,6135e006383e6ea6c3d06a28,61364cd405d6a61e6afda5a5,"[""period""]",0,[0.2502999999522899],85,0,85,0,1
,,,,,,,6131532c91b1750f51a9cb0a,,,,,,6131532c91b1750f51a9cb0a,Mężczyzna,19,2021-09-06_19h24.41.615,rantool2,2021.1.4,Win32,59.97720866,6135e006383e6ea6c3d06a28,61364cd405d6a61e6afda5a5,"[""period"",""period""]",0,"[0.06790000009533514,0.6289999999999623]",86,0,86,0,1
,,,,,,,6131532c91b1750f51a9cb0a,,,,,,6131532c91b1750f51a9cb0a,Mężczyzna,19,2021-09-06_19h24.41.615,rantool2,2021.1.4,Win32,59.97720866,6135e006383e6ea6c3d06a28,61364cd405d6a61e6afda5a5,"[""comma""]",0,[0.30479999995230855],87,0,87,0,1
,,,,,,,6131532c91b1750f51a9cb0a,,,,,,6131532c91b1750f51a9cb0a,Mężczyzna,19,2021-09-06_19h24.41.615,rantool2,2021.1.4,Win32,59.97720866,6135e006383e6ea6c3d06a28,61364cd405d6a61e6afda5a5,"[""comma""]",0,[0.26650000000000773],88,0,88,0,1
,,,,,,,6131532c91b1750f51a9cb0a,,,,,,6131532c91b1750f51a9cb0a,Mężczyzna,19,2021-09-06_19h24.41.615,rantool2,2021.1.4,Win32,59.97720866,6135e006383e6ea6c3d06a28,61364cd405d6a61e6afda5a5,"[""comma""]",0,[0.22289999985690656],89,0,89,0,1
,,,,,,,6131532c91b1750f51a9cb0a,,,,,,6131532c91b1750f51a9cb0a,Mężczyzna,19,2021-09-06_19h24.41.615,rantool2,2021.1.4,Win32,59.97720866,6135e006383e6ea6c3d06a28,61364cd405d6a61e6afda5a5,"[""comma""]",0,[0.27170000004770145],90,0,90,0,1
,,,,,,,6131532c91b1750f51a9cb0a,,,,,,6131532c91b1750f51a9cb0a,Mężczyzna,19,2021-09-06_19h24.41.615,rantool2,2021.1.4,Win32,59.97720866,6135e006383e6ea6c3d06a28,61364cd405d6a61e6afda5a5,"[""period""]",0,[0.16160000014303932],91,0,91,0,1
,,,,,,,6131532c91b1750f51a9cb0a,,,,,,6131532c91b1750f51a9cb0a,Mężczyzna,19,2021-09-06_19h24.41.615,rantool2,2021.1.4,Win32,59.97720866,6135e006383e6ea6c3d06a28,61364cd405d6a61e6afda5a5,"[""period""]",0,[0.2300000000000182],92,0,92,0,1
,,,,,,,6131532c91b1750f51a9cb0a,,,,,,6131532c91b1750f51a9cb0a,Mężczyzna,19,2021-09-06_19h24.41.615,rantool2,2021.1.4,Win32,59.97720866,6135e006383e6ea6c3d06a28,61364cd405d6a61e6afda5a5,"[""comma""]",0,[0.2609000000953756],93,0,93,0,1
,,,,,,,6131532c91b1750f51a9cb0a,,,,,,6131532c91b1750f51a9cb0a,Mężczyzna,19,2021-09-06_19h24.41.615,rantool2,2021.1.4,Win32,59.97720866,6135e006383e6ea6c3d06a28,61364cd405d6a61e6afda5a5,"[""period""]",0,[0.22470000004767599],94,0,94,0,1
,,,,,,,6131532c91b1750f51a9cb0a,,,,,,6131532c91b1750f51a9cb0a,Mężczyzna,19,2021-09-06_19h24.41.615,rantool2,2021.1.4,Win32,59.97720866,6135e006383e6ea6c3d06a28,61364cd405d6a61e6afda5a5,"[""comma""]",0,[0.41589999985694703],95,0,95,0,1
,,,,,,,6131532c91b1750f51a9cb0a,,,,,,6131532c91b1750f51a9cb0a,Mężczyzna,19,2021-09-06_19h24.41.615,rantool2,2021.1.4,Win32,59.97720866,6135e006383e6ea6c3d06a28,61364cd405d6a61e6afda5a5,"[""period""]",0,[0.3165999999046676],96,0,96,0,1
,,,,,,,6131532c91b1750f51a9cb0a,,,,,,6131532c91b1750f51a9cb0a,Mężczyzna,19,2021-09-06_19h24.41.615,rantool2,2021.1.4,Win32,59.97720866,6135e006383e6ea6c3d06a28,61364cd405d6a61e6afda5a5,"[""comma"",""comma""]",0,"[0.3125999999046485,1.8663999998569238]",97,0,97,0,1
,,,,,,,6131532c91b1750f51a9cb0a,,,,,,6131532c91b1750f51a9cb0a,Mężczyzna,19,2021-09-06_19h24.41.615,rantool2,2021.1.4,Win32,59.97720866,6135e006383e6ea6c3d06a28,61364cd405d6a61e6afda5a5,"[""comma""]",0,[0.7532999999523327],98,0,98,0,1
,,,,,,,6131532c91b1750f51a9cb0a,,,,,,6131532c91b1750f51a9cb0a,Mężczyzna,19,2021-09-06_19h24.41.615,rantool2,2021.1.4,Win32,59.97720866,6135e006383e6ea6c3d06a28,61364cd405d6a61e6afda5a5,"[""comma"",""period""]",0,"[0.2525999999046462,1.8704999999999927]",99,0,99,0,1
,,,,,,,6131532c91b1750f51a9cb0a,,,,,,6131532c91b1750f51a9cb0a,Mężczyzna,19,2021-09-06_19h24.41.615,rantool2,2021.1.4,Win32,59.97720866,6135e006383e6ea6c3d06a28,61364cd405d6a61e6afda5a5,"[""period"",""period""]",0,"[0.06919999980925695,0.3042999999523204]",100,0,100,0,1
,,,,,,,6131532c91b1750f51a9cb0a,,,,,,6131532c91b1750f51a9cb0a,Mężczyzna,19,2021-09-06_19h24.41.615,rantool2,2021.1.4,Win32,59.97720866,6135e006383e6ea6c3d06a28,61364cd405d6a61e6afda5a5,"[""comma""]",0,[0.3413999998569466],101,0,101,0,1
,,,,,,,6131532c91b1750f51a9cb0a,,,,,,6131532c91b1750f51a9cb0a,Mężczyzna,19,2021-09-06_19h24.41.615,rantool2,2021.1.4,Win32,59.97720866,6135e006383e6ea6c3d06a28,61364cd405d6a61e6afda5a5,"[""period""]",0,[0.2824000000953788],102,0,102,0,1
,,,,,,,6131532c91b1750f51a9cb0a,,,,,,6131532c91b1750f51a9cb0a,Mężczyzna,19,2021-09-06_19h24.41.615,rantool2,2021.1.4,Win32,59.97720866,6135e006383e6ea6c3d06a28,61364cd405d6a61e6afda5a5,"[""comma""]",0,[0.29530000019076397],103,0,103,0,1
,,,,,,,6131532c91b1750f51a9cb0a,,,,,,6131532c91b1750f51a9cb0a,Mężczyzna,19,2021-09-06_19h24.41.615,rantool2,2021.1.4,Win32,59.97720866,6135e006383e6ea6c3d06a28,61364cd405d6a61e6afda5a5,"[""comma""]",0,[0.24420000004772646],104,0,104,0,1
,,,,,,,6131532c91b1750f51a9cb0a,,,,,,6131532c91b1750f51a9cb0a,Mężczyzna,19,2021-09-06_19h24.41.615,rantool2,2021.1.4,Win32,59.97720866,6135e006383e6ea6c3d06a28,61364cd405d6a61e6afda5a5,"[""comma""]",0,[0.3133000001907362],105,0,105,0,1
,,,,,,,6131532c91b1750f51a9cb0a,,,,,,6131532c91b1750f51a9cb0a,Mężczyzna,19,2021-09-06_19h24.41.615,rantool2,2021.1.4,Win32,59.97720866,6135e006383e6ea6c3d06a28,61364cd405d6a61e6afda5a5,"[""period"",""period""]",0,"[0.1280999999046344,0.7738999998569511]",106,0,106,0,1
,,,,,,,6131532c91b1750f51a9cb0a,,,,,,6131532c91b1750f51a9cb0a,Mężczyzna,19,2021-09-06_19h24.41.615,rantool2,2021.1.4,Win32,59.97720866,6135e006383e6ea6c3d06a28,61364cd405d6a61e6afda5a5,"[""period""]",0,[0.3269999999999982],107,0,107,0,1
,,,,,,,6131532c91b1750f51a9cb0a,,,,,,6131532c91b1750f51a9cb0a,Mężczyzna,19,2021-09-06_19h24.41.615,rantool2,2021.1.4,Win32,59.97720866,6135e006383e6ea6c3d06a28,61364cd405d6a61e6afda5a5,"[""period""]",0,[0.4870000000000232],108,0,108,0,1
,,,,,,,6131532c91b1750f51a9cb0a,,,,,,6131532c91b1750f51a9cb0a,Mężczyzna,19,2021-09-06_19h24.41.615,rantool2,2021.1.4,Win32,59.97720866,6135e006383e6ea6c3d06a28,61364cd405d6a61e6afda5a5,"[""comma""]",0,[0.33579999995231447],109,0,109,0,1
,,,,,,,6131532c91b1750f51a9cb0a,,,,,,6131532c91b1750f51a9cb0a,Mężczyzna,19,2021-09-06_19h24.41.615,rantool2,2021.1.4,Win32,59.97720866,6135e006383e6ea6c3d06a28,61364cd405d6a61e6afda5a5,"[""period""]",0,[0.32320000004767735],110,0,110,0,1
,,,,,,,6131532c91b1750f51a9cb0a,,,,,,6131532c91b1750f51a9cb0a,Mężczyzna,19,2021-09-06_19h24.41.615,rantool2,2021.1.4,Win32,59.97720866,6135e006383e6ea6c3d06a28,61364cd405d6a61e6afda5a5,"[""comma""]",0,[0.2469000000953656],111,0,111,0,1
,,,,,,,6131532c91b1750f51a9cb0a,,,,,,6131532c91b1750f51a9cb0a,Mężczyzna,19,2021-09-06_19h24.41.615,rantool2,2021.1.4,Win32,59.97720866,6135e006383e6ea6c3d06a28,61364cd405d6a61e6afda5a5,"[""comma""]",0,[0.24920000004766507],112,0,112,0,1
,,,,,,,6131532c91b1750f51a9cb0a,,,,,,6131532c91b1750f51a9cb0a,Mężczyzna,19,2021-09-06_19h24.41.615,rantool2,2021.1.4,Win32,59.97720866,6135e006383e6ea6c3d06a28,61364cd405d6a61e6afda5a5,"[""period""]",0,[0.2800999999046212],113,0,113,0,1
,,,,,,,6131532c91b1750f51a9cb0a,,,,,,6131532c91b1750f51a9cb0a,Mężczyzna,19,2021-09-06_19h24.41.615,rantool2,2021.1.4,Win32,59.97720866,6135e006383e6ea6c3d06a28,61364cd405d6a61e6afda5a5,"[""comma""]",0,[0.377700000047696],114,0,114,0,1
,,,,,,,6131532c91b1750f51a9cb0a,,,,,,6131532c91b1750f51a9cb0a,Mężczyzna,19,2021-09-06_19h24.41.615,rantool2,2021.1.4,Win32,59.97720866,6135e006383e6ea6c3d06a28,61364cd405d6a61e6afda5a5,"[""period""]",0,[0.2659000000953142],115,0,115,0,1
,,,,,,,6131532c91b1750f51a9cb0a,,,,,,6131532c91b1750f51a9cb0a,Mężczyzna,19,2021-09-06_19h24.41.615,rantool2,2021.1.4,Win32,59.97720866,6135e006383e6ea6c3d06a28,61364cd405d6a61e6afda5a5,"[""comma""]",0,[0.23689999985691657],116,0,116,0,1
,,,,,,,6131532c91b1750f51a9cb0a,,,,,,6131532c91b1750f51a9cb0a,Mężczyzna,19,2021-09-06_19h24.41.615,rantool2,2021.1.4,Win32,59.97720866,6135e006383e6ea6c3d06a28,61364cd405d6a61e6afda5a5,"[""comma""]",0,[0.3375000000000341],117,0,117,0,1
,,,,,,,6131532c91b1750f51a9cb0a,,,,,,6131532c91b1750f51a9cb0a,Mężczyzna,19,2021-09-06_19h24.41.615,rantool2,2021.1.4,Win32,59.97720866,6135e006383e6ea6c3d06a28,61364cd405d6a61e6afda5a5,"[""period""]",0,[0.1775000000000091],118,0,118,0,1
,,,,,,,6131532c91b1750f51a9cb0a,,,,,,6131532c91b1750f51a9cb0a,Mężczyzna,19,2021-09-06_19h24.41.615,rantool2,2021.1.4,Win32,59.97720866,6135e006383e6ea6c3d06a28,61364cd405d6a61e6afda5a5,"[""period"",""period"",""period""]",0,"[-0.003399999856924296,0.44350000000002865,0.6745000000000232]",119,0,119,0,1
