key_resp_5.keys,key_resp_5.corr,key_resp_5.rt,trials.thisRepN,trials.thisTrialN,trials.thisN,trials.thisIndex,trials.ran,id*,Płeć*,Wiek*,date,expName,psychopyVersion,OS,frameRate,id,STUDY_ID,SESSION_ID,key_resp_7.keys,key_resp_7.rt,trials_2.thisRepN,trials_2.thisTrialN,trials_2.thisN,trials_2.thisIndex,trials_2.ran,series_0,series_1,acss_0,acss_1,comparison
"[""comma""]",0,[1.0889000000003648],0,0,0,0,1,60e83d685665b6867ad7c907,Kobieta,18,2021-07-13_21h28.35.166,rantool2,2021.1.4,Win32,60.20107158,60e83d685665b6867ad7c907,60d9d14f4a8a35a482e0d9bf,60ede9407a9f1d380fbbbd87,,,,,,,,,,,,
"[""period""]",0,[1.3234999999999957],1,0,1,0,1,60e83d685665b6867ad7c907,Kobieta,18,2021-07-13_21h28.35.166,rantool2,2021.1.4,Win32,60.20107158,60e83d685665b6867ad7c907,60d9d14f4a8a35a482e0d9bf,60ede9407a9f1d380fbbbd87,,,,,,,,,,,,
"[""period""]",0,[1.7667000000011228],2,0,2,0,1,60e83d685665b6867ad7c907,Kobieta,18,2021-07-13_21h28.35.166,rantool2,2021.1.4,Win32,60.20107158,60e83d685665b6867ad7c907,60d9d14f4a8a35a482e0d9bf,60ede9407a9f1d380fbbbd87,,,,,,,,,,,,
0,0,,3,0,3,0,1,60e83d685665b6867ad7c907,Kobieta,18,2021-07-13_21h28.35.166,rantool2,2021.1.4,Win32,60.20107158,60e83d685665b6867ad7c907,60d9d14f4a8a35a482e0d9bf,60ede9407a9f1d380fbbbd87,,,,,,,,,,,,
0,0,,4,0,4,0,1,60e83d685665b6867ad7c907,Kobieta,18,2021-07-13_21h28.35.166,rantool2,2021.1.4,Win32,60.20107158,60e83d685665b6867ad7c907,60d9d14f4a8a35a482e0d9bf,60ede9407a9f1d380fbbbd87,,,,,,,,,,,,
"[""period"",""period""]",0,"[0.004499999999978854,0.5841999999992424]",5,0,5,0,1,60e83d685665b6867ad7c907,Kobieta,18,2021-07-13_21h28.35.166,rantool2,2021.1.4,Win32,60.20107158,60e83d685665b6867ad7c907,60d9d14f4a8a35a482e0d9bf,60ede9407a9f1d380fbbbd87,,,,,,,,,,,,
"[""comma""]",0,[0.3173999999985142],6,0,6,0,1,60e83d685665b6867ad7c907,Kobieta,18,2021-07-13_21h28.35.166,rantool2,2021.1.4,Win32,60.20107158,60e83d685665b6867ad7c907,60d9d14f4a8a35a482e0d9bf,60ede9407a9f1d380fbbbd87,,,,,,,,,,,,
"[""period""]",0,[0.35060000000149216],7,0,7,0,1,60e83d685665b6867ad7c907,Kobieta,18,2021-07-13_21h28.35.166,rantool2,2021.1.4,Win32,60.20107158,60e83d685665b6867ad7c907,60d9d14f4a8a35a482e0d9bf,60ede9407a9f1d380fbbbd87,,,,,,,,,,,,
"[""comma""]",0,[1.48369999999926],8,0,8,0,1,60e83d685665b6867ad7c907,Kobieta,18,2021-07-13_21h28.35.166,rantool2,2021.1.4,Win32,60.20107158,60e83d685665b6867ad7c907,60d9d14f4a8a35a482e0d9bf,60ede9407a9f1d380fbbbd87,,,,,,,,,,,,
"[""comma""]",0,[1.3286999999992588],9,0,9,0,1,60e83d685665b6867ad7c907,Kobieta,18,2021-07-13_21h28.35.166,rantool2,2021.1.4,Win32,60.20107158,60e83d685665b6867ad7c907,60d9d14f4a8a35a482e0d9bf,60ede9407a9f1d380fbbbd87,,,,,,,,,,,,
"[""period""]",0,[0.45059999999963907],10,0,10,0,1,60e83d685665b6867ad7c907,Kobieta,18,2021-07-13_21h28.35.166,rantool2,2021.1.4,Win32,60.20107158,60e83d685665b6867ad7c907,60d9d14f4a8a35a482e0d9bf,60ede9407a9f1d380fbbbd87,,,,,,,,,,,,
"[""comma""]",0,[0.38450000000000273],11,0,11,0,1,60e83d685665b6867ad7c907,Kobieta,18,2021-07-13_21h28.35.166,rantool2,2021.1.4,Win32,60.20107158,60e83d685665b6867ad7c907,60d9d14f4a8a35a482e0d9bf,60ede9407a9f1d380fbbbd87,,,,,,,,,,,,
"[""period""]",0,[0.7522999999988826],12,0,12,0,1,60e83d685665b6867ad7c907,Kobieta,18,2021-07-13_21h28.35.166,rantool2,2021.1.4,Win32,60.20107158,60e83d685665b6867ad7c907,60d9d14f4a8a35a482e0d9bf,60ede9407a9f1d380fbbbd87,,,,,,,,,,,,
"[""comma""]",0,[0.4873000000007437],13,0,13,0,1,60e83d685665b6867ad7c907,Kobieta,18,2021-07-13_21h28.35.166,rantool2,2021.1.4,Win32,60.20107158,60e83d685665b6867ad7c907,60d9d14f4a8a35a482e0d9bf,60ede9407a9f1d380fbbbd87,,,,,,,,,,,,
"[""period""]",0,[0.28380000000075256],14,0,14,0,1,60e83d685665b6867ad7c907,Kobieta,18,2021-07-13_21h28.35.166,rantool2,2021.1.4,Win32,60.20107158,60e83d685665b6867ad7c907,60d9d14f4a8a35a482e0d9bf,60ede9407a9f1d380fbbbd87,,,,,,,,,,,,
"[""period""]",0,[1.4171999999992408],15,0,15,0,1,60e83d685665b6867ad7c907,Kobieta,18,2021-07-13_21h28.35.166,rantool2,2021.1.4,Win32,60.20107158,60e83d685665b6867ad7c907,60d9d14f4a8a35a482e0d9bf,60ede9407a9f1d380fbbbd87,,,,,,,,,,,,
"[""comma""]",0,[0.3634000000003823],16,0,16,0,1,60e83d685665b6867ad7c907,Kobieta,18,2021-07-13_21h28.35.166,rantool2,2021.1.4,Win32,60.20107158,60e83d685665b6867ad7c907,60d9d14f4a8a35a482e0d9bf,60ede9407a9f1d380fbbbd87,,,,,,,,,,,,
"[""period""]",0,[0.295299999998889],17,0,17,0,1,60e83d685665b6867ad7c907,Kobieta,18,2021-07-13_21h28.35.166,rantool2,2021.1.4,Win32,60.20107158,60e83d685665b6867ad7c907,60d9d14f4a8a35a482e0d9bf,60ede9407a9f1d380fbbbd87,,,,,,,,,,,,
"[""period""]",0,[0.38889999999852876],18,0,18,0,1,60e83d685665b6867ad7c907,Kobieta,18,2021-07-13_21h28.35.166,rantool2,2021.1.4,Win32,60.20107158,60e83d685665b6867ad7c907,60d9d14f4a8a35a482e0d9bf,60ede9407a9f1d380fbbbd87,,,,,,,,,,,,
"[""comma""]",0,[0.33390000000036935],19,0,19,0,1,60e83d685665b6867ad7c907,Kobieta,18,2021-07-13_21h28.35.166,rantool2,2021.1.4,Win32,60.20107158,60e83d685665b6867ad7c907,60d9d14f4a8a35a482e0d9bf,60ede9407a9f1d380fbbbd87,,,,,,,,,,,,
"[""period"",""period""]",0,"[-0.03149999999999409,0.6735999999996238]",20,0,20,0,1,60e83d685665b6867ad7c907,Kobieta,18,2021-07-13_21h28.35.166,rantool2,2021.1.4,Win32,60.20107158,60e83d685665b6867ad7c907,60d9d14f4a8a35a482e0d9bf,60ede9407a9f1d380fbbbd87,,,,,,,,,,,,
"[""comma"",""period""]",0,"[0.5262999999988835,1.6761999999992554]",21,0,21,0,1,60e83d685665b6867ad7c907,Kobieta,18,2021-07-13_21h28.35.166,rantool2,2021.1.4,Win32,60.20107158,60e83d685665b6867ad7c907,60d9d14f4a8a35a482e0d9bf,60ede9407a9f1d380fbbbd87,,,,,,,,,,,,
"[""period""]",0,[0.3009000000003823],22,0,22,0,1,60e83d685665b6867ad7c907,Kobieta,18,2021-07-13_21h28.35.166,rantool2,2021.1.4,Win32,60.20107158,60e83d685665b6867ad7c907,60d9d14f4a8a35a482e0d9bf,60ede9407a9f1d380fbbbd87,,,,,,,,,,,,
"[""comma""]",0,[0.31340000000037094],23,0,23,0,1,60e83d685665b6867ad7c907,Kobieta,18,2021-07-13_21h28.35.166,rantool2,2021.1.4,Win32,60.20107158,60e83d685665b6867ad7c907,60d9d14f4a8a35a482e0d9bf,60ede9407a9f1d380fbbbd87,,,,,,,,,,,,
"[""period""]",0,[0.1960999999996318],24,0,24,0,1,60e83d685665b6867ad7c907,Kobieta,18,2021-07-13_21h28.35.166,rantool2,2021.1.4,Win32,60.20107158,60e83d685665b6867ad7c907,60d9d14f4a8a35a482e0d9bf,60ede9407a9f1d380fbbbd87,,,,,,,,,,,,
"[""comma""]",0,[0.45080000000075415],25,0,25,0,1,60e83d685665b6867ad7c907,Kobieta,18,2021-07-13_21h28.35.166,rantool2,2021.1.4,Win32,60.20107158,60e83d685665b6867ad7c907,60d9d14f4a8a35a482e0d9bf,60ede9407a9f1d380fbbbd87,,,,,,,,,,,,
"[""period""]",0,[0.5341999999992595],26,0,26,0,1,60e83d685665b6867ad7c907,Kobieta,18,2021-07-13_21h28.35.166,rantool2,2021.1.4,Win32,60.20107158,60e83d685665b6867ad7c907,60d9d14f4a8a35a482e0d9bf,60ede9407a9f1d380fbbbd87,,,,,,,,,,,,
"[""period""]",0,[0.34680000000074074],27,0,27,0,1,60e83d685665b6867ad7c907,Kobieta,18,2021-07-13_21h28.35.166,rantool2,2021.1.4,Win32,60.20107158,60e83d685665b6867ad7c907,60d9d14f4a8a35a482e0d9bf,60ede9407a9f1d380fbbbd87,,,,,,,,,,,,
"[""period""]",0,[0.5007999999988613],28,0,28,0,1,60e83d685665b6867ad7c907,Kobieta,18,2021-07-13_21h28.35.166,rantool2,2021.1.4,Win32,60.20107158,60e83d685665b6867ad7c907,60d9d14f4a8a35a482e0d9bf,60ede9407a9f1d380fbbbd87,,,,,,,,,,,,
"[""period""]",0,[0.2171999999992522],29,0,29,0,1,60e83d685665b6867ad7c907,Kobieta,18,2021-07-13_21h28.35.166,rantool2,2021.1.4,Win32,60.20107158,60e83d685665b6867ad7c907,60d9d14f4a8a35a482e0d9bf,60ede9407a9f1d380fbbbd87,,,,,,,,,,,,
"[""comma""]",0,[0.3171000000014885],30,0,30,0,1,60e83d685665b6867ad7c907,Kobieta,18,2021-07-13_21h28.35.166,rantool2,2021.1.4,Win32,60.20107158,60e83d685665b6867ad7c907,60d9d14f4a8a35a482e0d9bf,60ede9407a9f1d380fbbbd87,,,,,,,,,,,,
"[""comma""]",0,[0.46750000000000114],31,0,31,0,1,60e83d685665b6867ad7c907,Kobieta,18,2021-07-13_21h28.35.166,rantool2,2021.1.4,Win32,60.20107158,60e83d685665b6867ad7c907,60d9d14f4a8a35a482e0d9bf,60ede9407a9f1d380fbbbd87,,,,,,,,,,,,
"[""period""]",0,[0.5839000000003693],32,0,32,0,1,60e83d685665b6867ad7c907,Kobieta,18,2021-07-13_21h28.35.166,rantool2,2021.1.4,Win32,60.20107158,60e83d685665b6867ad7c907,60d9d14f4a8a35a482e0d9bf,60ede9407a9f1d380fbbbd87,,,,,,,,,,,,
"[""period""]",0,[0.44620000000111304],33,0,33,0,1,60e83d685665b6867ad7c907,Kobieta,18,2021-07-13_21h28.35.166,rantool2,2021.1.4,Win32,60.20107158,60e83d685665b6867ad7c907,60d9d14f4a8a35a482e0d9bf,60ede9407a9f1d380fbbbd87,,,,,,,,,,,,
"[""comma""]",0,[0.5673000000007562],34,0,34,0,1,60e83d685665b6867ad7c907,Kobieta,18,2021-07-13_21h28.35.166,rantool2,2021.1.4,Win32,60.20107158,60e83d685665b6867ad7c907,60d9d14f4a8a35a482e0d9bf,60ede9407a9f1d380fbbbd87,,,,,,,,,,,,
"[""period""]",0,[0.5173000000007448],35,0,35,0,1,60e83d685665b6867ad7c907,Kobieta,18,2021-07-13_21h28.35.166,rantool2,2021.1.4,Win32,60.20107158,60e83d685665b6867ad7c907,60d9d14f4a8a35a482e0d9bf,60ede9407a9f1d380fbbbd87,,,,,,,,,,,,
"[""comma""]",0,[0.5339000000003864],36,0,36,0,1,60e83d685665b6867ad7c907,Kobieta,18,2021-07-13_21h28.35.166,rantool2,2021.1.4,Win32,60.20107158,60e83d685665b6867ad7c907,60d9d14f4a8a35a482e0d9bf,60ede9407a9f1d380fbbbd87,,,,,,,,,,,,
"[""period""]",0,[0.26730000000074483],37,0,37,0,1,60e83d685665b6867ad7c907,Kobieta,18,2021-07-13_21h28.35.166,rantool2,2021.1.4,Win32,60.20107158,60e83d685665b6867ad7c907,60d9d14f4a8a35a482e0d9bf,60ede9407a9f1d380fbbbd87,,,,,,,,,,,,
"[""period""]",0,[0.2712000000011301],38,0,38,0,1,60e83d685665b6867ad7c907,Kobieta,18,2021-07-13_21h28.35.166,rantool2,2021.1.4,Win32,60.20107158,60e83d685665b6867ad7c907,60d9d14f4a8a35a482e0d9bf,60ede9407a9f1d380fbbbd87,,,,,,,,,,,,
"[""comma""]",0,[0.3675000000000068],39,0,39,0,1,60e83d685665b6867ad7c907,Kobieta,18,2021-07-13_21h28.35.166,rantool2,2021.1.4,Win32,60.20107158,60e83d685665b6867ad7c907,60d9d14f4a8a35a482e0d9bf,60ede9407a9f1d380fbbbd87,,,,,,,,,,,,
"[""period""]",0,[0.41740000000038435],40,0,40,0,1,60e83d685665b6867ad7c907,Kobieta,18,2021-07-13_21h28.35.166,rantool2,2021.1.4,Win32,60.20107158,60e83d685665b6867ad7c907,60d9d14f4a8a35a482e0d9bf,60ede9407a9f1d380fbbbd87,,,,,,,,,,,,
"[""period""]",0,[0.3444000000003484],41,0,41,0,1,60e83d685665b6867ad7c907,Kobieta,18,2021-07-13_21h28.35.166,rantool2,2021.1.4,Win32,60.20107158,60e83d685665b6867ad7c907,60d9d14f4a8a35a482e0d9bf,60ede9407a9f1d380fbbbd87,,,,,,,,,,,,
"[""period""]",0,[0.40079999999886695],42,0,42,0,1,60e83d685665b6867ad7c907,Kobieta,18,2021-07-13_21h28.35.166,rantool2,2021.1.4,Win32,60.20107158,60e83d685665b6867ad7c907,60d9d14f4a8a35a482e0d9bf,60ede9407a9f1d380fbbbd87,,,,,,,,,,,,
"[""period""]",0,[0.26730000000074483],43,0,43,0,1,60e83d685665b6867ad7c907,Kobieta,18,2021-07-13_21h28.35.166,rantool2,2021.1.4,Win32,60.20107158,60e83d685665b6867ad7c907,60d9d14f4a8a35a482e0d9bf,60ede9407a9f1d380fbbbd87,,,,,,,,,,,,
"[""period""]",0,[0.24340000000037776],44,0,44,0,1,60e83d685665b6867ad7c907,Kobieta,18,2021-07-13_21h28.35.166,rantool2,2021.1.4,Win32,60.20107158,60e83d685665b6867ad7c907,60d9d14f4a8a35a482e0d9bf,60ede9407a9f1d380fbbbd87,,,,,,,,,,,,
"[""comma""]",0,[0.24589999999852807],45,0,45,0,1,60e83d685665b6867ad7c907,Kobieta,18,2021-07-13_21h28.35.166,rantool2,2021.1.4,Win32,60.20107158,60e83d685665b6867ad7c907,60d9d14f4a8a35a482e0d9bf,60ede9407a9f1d380fbbbd87,,,,,,,,,,,,
"[""period""]",0,[0.26769999999925176],46,0,46,0,1,60e83d685665b6867ad7c907,Kobieta,18,2021-07-13_21h28.35.166,rantool2,2021.1.4,Win32,60.20107158,60e83d685665b6867ad7c907,60d9d14f4a8a35a482e0d9bf,60ede9407a9f1d380fbbbd87,,,,,,,,,,,,
"[""comma""]",0,[0.23099999999999454],47,0,47,0,1,60e83d685665b6867ad7c907,Kobieta,18,2021-07-13_21h28.35.166,rantool2,2021.1.4,Win32,60.20107158,60e83d685665b6867ad7c907,60d9d14f4a8a35a482e0d9bf,60ede9407a9f1d380fbbbd87,,,,,,,,,,,,
"[""comma""]",0,[0.9610999999996466],48,0,48,0,1,60e83d685665b6867ad7c907,Kobieta,18,2021-07-13_21h28.35.166,rantool2,2021.1.4,Win32,60.20107158,60e83d685665b6867ad7c907,60d9d14f4a8a35a482e0d9bf,60ede9407a9f1d380fbbbd87,,,,,,,,,,,,
"[""period""]",0,[0.5669000000003734],49,0,49,0,1,60e83d685665b6867ad7c907,Kobieta,18,2021-07-13_21h28.35.166,rantool2,2021.1.4,Win32,60.20107158,60e83d685665b6867ad7c907,60d9d14f4a8a35a482e0d9bf,60ede9407a9f1d380fbbbd87,,,,,,,,,,,,
0,0,,50,0,50,0,1,60e83d685665b6867ad7c907,Kobieta,18,2021-07-13_21h28.35.166,rantool2,2021.1.4,Win32,60.20107158,60e83d685665b6867ad7c907,60d9d14f4a8a35a482e0d9bf,60ede9407a9f1d380fbbbd87,,,,,,,,,,,,
"[""comma""]",0,[0.2837000000011187],51,0,51,0,1,60e83d685665b6867ad7c907,Kobieta,18,2021-07-13_21h28.35.166,rantool2,2021.1.4,Win32,60.20107158,60e83d685665b6867ad7c907,60d9d14f4a8a35a482e0d9bf,60ede9407a9f1d380fbbbd87,,,,,,,,,,,,
"[""comma""]",0,[0.2844000000003746],52,0,52,0,1,60e83d685665b6867ad7c907,Kobieta,18,2021-07-13_21h28.35.166,rantool2,2021.1.4,Win32,60.20107158,60e83d685665b6867ad7c907,60d9d14f4a8a35a482e0d9bf,60ede9407a9f1d380fbbbd87,,,,,,,,,,,,
"[""period""]",0,[0.25040000000035434],53,0,53,0,1,60e83d685665b6867ad7c907,Kobieta,18,2021-07-13_21h28.35.166,rantool2,2021.1.4,Win32,60.20107158,60e83d685665b6867ad7c907,60d9d14f4a8a35a482e0d9bf,60ede9407a9f1d380fbbbd87,,,,,,,,,,,,
"[""comma""]",0,[0.3006999999992672],54,0,54,0,1,60e83d685665b6867ad7c907,Kobieta,18,2021-07-13_21h28.35.166,rantool2,2021.1.4,Win32,60.20107158,60e83d685665b6867ad7c907,60d9d14f4a8a35a482e0d9bf,60ede9407a9f1d380fbbbd87,,,,,,,,,,,,
"[""period""]",0,[0.38429999999888764],55,0,55,0,1,60e83d685665b6867ad7c907,Kobieta,18,2021-07-13_21h28.35.166,rantool2,2021.1.4,Win32,60.20107158,60e83d685665b6867ad7c907,60d9d14f4a8a35a482e0d9bf,60ede9407a9f1d380fbbbd87,,,,,,,,,,,,
"[""period"",""comma""]",0,"[0.3466999999992595,0.4173999999985085]",56,0,56,0,1,60e83d685665b6867ad7c907,Kobieta,18,2021-07-13_21h28.35.166,rantool2,2021.1.4,Win32,60.20107158,60e83d685665b6867ad7c907,60d9d14f4a8a35a482e0d9bf,60ede9407a9f1d380fbbbd87,,,,,,,,,,,,
"[""period""]",0,[0.2911999999992645],57,0,57,0,1,60e83d685665b6867ad7c907,Kobieta,18,2021-07-13_21h28.35.166,rantool2,2021.1.4,Win32,60.20107158,60e83d685665b6867ad7c907,60d9d14f4a8a35a482e0d9bf,60ede9407a9f1d380fbbbd87,,,,,,,,,,,,
"[""period""]",0,[0.267800000000733],58,0,58,0,1,60e83d685665b6867ad7c907,Kobieta,18,2021-07-13_21h28.35.166,rantool2,2021.1.4,Win32,60.20107158,60e83d685665b6867ad7c907,60d9d14f4a8a35a482e0d9bf,60ede9407a9f1d380fbbbd87,,,,,,,,,,,,
"[""comma""]",0,[0.4076999999992381],59,0,59,0,1,60e83d685665b6867ad7c907,Kobieta,18,2021-07-13_21h28.35.166,rantool2,2021.1.4,Win32,60.20107158,60e83d685665b6867ad7c907,60d9d14f4a8a35a482e0d9bf,60ede9407a9f1d380fbbbd87,,,,,,,,,,,,
"[""comma""]",0,[0.2500999999996054],60,0,60,0,1,60e83d685665b6867ad7c907,Kobieta,18,2021-07-13_21h28.35.166,rantool2,2021.1.4,Win32,60.20107158,60e83d685665b6867ad7c907,60d9d14f4a8a35a482e0d9bf,60ede9407a9f1d380fbbbd87,,,,,,,,,,,,
"[""comma""]",0,[0.24719999999925335],61,0,61,0,1,60e83d685665b6867ad7c907,Kobieta,18,2021-07-13_21h28.35.166,rantool2,2021.1.4,Win32,60.20107158,60e83d685665b6867ad7c907,60d9d14f4a8a35a482e0d9bf,60ede9407a9f1d380fbbbd87,,,,,,,,,,,,
"[""comma""]",0,[0.31690000000037344],62,0,62,0,1,60e83d685665b6867ad7c907,Kobieta,18,2021-07-13_21h28.35.166,rantool2,2021.1.4,Win32,60.20107158,60e83d685665b6867ad7c907,60d9d14f4a8a35a482e0d9bf,60ede9407a9f1d380fbbbd87,,,,,,,,,,,,
"[""comma""]",0,[0.36730000000073915],63,0,63,0,1,60e83d685665b6867ad7c907,Kobieta,18,2021-07-13_21h28.35.166,rantool2,2021.1.4,Win32,60.20107158,60e83d685665b6867ad7c907,60d9d14f4a8a35a482e0d9bf,60ede9407a9f1d380fbbbd87,,,,,,,,,,,,
"[""comma""]",0,[0.40040000000038845],64,0,64,0,1,60e83d685665b6867ad7c907,Kobieta,18,2021-07-13_21h28.35.166,rantool2,2021.1.4,Win32,60.20107158,60e83d685665b6867ad7c907,60d9d14f4a8a35a482e0d9bf,60ede9407a9f1d380fbbbd87,,,,,,,,,,,,
"[""comma""]",0,[0.24480000000073687],65,0,65,0,1,60e83d685665b6867ad7c907,Kobieta,18,2021-07-13_21h28.35.166,rantool2,2021.1.4,Win32,60.20107158,60e83d685665b6867ad7c907,60d9d14f4a8a35a482e0d9bf,60ede9407a9f1d380fbbbd87,,,,,,,,,,,,
"[""comma""]",0,[0.2818999999984726],66,0,66,0,1,60e83d685665b6867ad7c907,Kobieta,18,2021-07-13_21h28.35.166,rantool2,2021.1.4,Win32,60.20107158,60e83d685665b6867ad7c907,60d9d14f4a8a35a482e0d9bf,60ede9407a9f1d380fbbbd87,,,,,,,,,,,,
"[""comma""]",0,[0.32029999999883785],67,0,67,0,1,60e83d685665b6867ad7c907,Kobieta,18,2021-07-13_21h28.35.166,rantool2,2021.1.4,Win32,60.20107158,60e83d685665b6867ad7c907,60d9d14f4a8a35a482e0d9bf,60ede9407a9f1d380fbbbd87,,,,,,,,,,,,
"[""period"",""comma""]",0,"[0.29990000000037753,1.9670999999996184]",68,0,68,0,1,60e83d685665b6867ad7c907,Kobieta,18,2021-07-13_21h28.35.166,rantool2,2021.1.4,Win32,60.20107158,60e83d685665b6867ad7c907,60d9d14f4a8a35a482e0d9bf,60ede9407a9f1d380fbbbd87,,,,,,,,,,,,
0,0,,69,0,69,0,1,60e83d685665b6867ad7c907,Kobieta,18,2021-07-13_21h28.35.166,rantool2,2021.1.4,Win32,60.20107158,60e83d685665b6867ad7c907,60d9d14f4a8a35a482e0d9bf,60ede9407a9f1d380fbbbd87,,,,,,,,,,,,
"[""comma""]",0,[0.25069999999925585],70,0,70,0,1,60e83d685665b6867ad7c907,Kobieta,18,2021-07-13_21h28.35.166,rantool2,2021.1.4,Win32,60.20107158,60e83d685665b6867ad7c907,60d9d14f4a8a35a482e0d9bf,60ede9407a9f1d380fbbbd87,,,,,,,,,,,,
"[""comma""]",0,[0.2869000000004007],71,0,71,0,1,60e83d685665b6867ad7c907,Kobieta,18,2021-07-13_21h28.35.166,rantool2,2021.1.4,Win32,60.20107158,60e83d685665b6867ad7c907,60d9d14f4a8a35a482e0d9bf,60ede9407a9f1d380fbbbd87,,,,,,,,,,,,
"[""period""]",0,[0.23319999999927177],72,0,72,0,1,60e83d685665b6867ad7c907,Kobieta,18,2021-07-13_21h28.35.166,rantool2,2021.1.4,Win32,60.20107158,60e83d685665b6867ad7c907,60d9d14f4a8a35a482e0d9bf,60ede9407a9f1d380fbbbd87,,,,,,,,,,,,
"[""comma""]",0,[0.25090000000039936],73,0,73,0,1,60e83d685665b6867ad7c907,Kobieta,18,2021-07-13_21h28.35.166,rantool2,2021.1.4,Win32,60.20107158,60e83d685665b6867ad7c907,60d9d14f4a8a35a482e0d9bf,60ede9407a9f1d380fbbbd87,,,,,,,,,,,,
"[""period""]",0,[0.2370000000000232],74,0,74,0,1,60e83d685665b6867ad7c907,Kobieta,18,2021-07-13_21h28.35.166,rantool2,2021.1.4,Win32,60.20107158,60e83d685665b6867ad7c907,60d9d14f4a8a35a482e0d9bf,60ede9407a9f1d380fbbbd87,,,,,,,,,,,,
"[""period""]",0,[0.12159999999960291],75,0,75,0,1,60e83d685665b6867ad7c907,Kobieta,18,2021-07-13_21h28.35.166,rantool2,2021.1.4,Win32,60.20107158,60e83d685665b6867ad7c907,60d9d14f4a8a35a482e0d9bf,60ede9407a9f1d380fbbbd87,,,,,,,,,,,,
"[""comma""]",0,[0.21709999999961838],76,0,76,0,1,60e83d685665b6867ad7c907,Kobieta,18,2021-07-13_21h28.35.166,rantool2,2021.1.4,Win32,60.20107158,60e83d685665b6867ad7c907,60d9d14f4a8a35a482e0d9bf,60ede9407a9f1d380fbbbd87,,,,,,,,,,,,
"[""period""]",0,[0.23950000000002092],77,0,77,0,1,60e83d685665b6867ad7c907,Kobieta,18,2021-07-13_21h28.35.166,rantool2,2021.1.4,Win32,60.20107158,60e83d685665b6867ad7c907,60d9d14f4a8a35a482e0d9bf,60ede9407a9f1d380fbbbd87,,,,,,,,,,,,
"[""period""]",0,[0.33030000000076143],78,0,78,0,1,60e83d685665b6867ad7c907,Kobieta,18,2021-07-13_21h28.35.166,rantool2,2021.1.4,Win32,60.20107158,60e83d685665b6867ad7c907,60d9d14f4a8a35a482e0d9bf,60ede9407a9f1d380fbbbd87,,,,,,,,,,,,
"[""comma""]",0,[0.30049999999999955],79,0,79,0,1,60e83d685665b6867ad7c907,Kobieta,18,2021-07-13_21h28.35.166,rantool2,2021.1.4,Win32,60.20107158,60e83d685665b6867ad7c907,60d9d14f4a8a35a482e0d9bf,60ede9407a9f1d380fbbbd87,,,,,,,,,,,,
"[""comma""]",0,[0.2835999999996375],80,0,80,0,1,60e83d685665b6867ad7c907,Kobieta,18,2021-07-13_21h28.35.166,rantool2,2021.1.4,Win32,60.20107158,60e83d685665b6867ad7c907,60d9d14f4a8a35a482e0d9bf,60ede9407a9f1d380fbbbd87,,,,,,,,,,,,
"[""period""]",0,[0.17549999999999955],81,0,81,0,1,60e83d685665b6867ad7c907,Kobieta,18,2021-07-13_21h28.35.166,rantool2,2021.1.4,Win32,60.20107158,60e83d685665b6867ad7c907,60d9d14f4a8a35a482e0d9bf,60ede9407a9f1d380fbbbd87,,,,,,,,,,,,
"[""comma""]",0,[0.5173000000007164],82,0,82,0,1,60e83d685665b6867ad7c907,Kobieta,18,2021-07-13_21h28.35.166,rantool2,2021.1.4,Win32,60.20107158,60e83d685665b6867ad7c907,60d9d14f4a8a35a482e0d9bf,60ede9407a9f1d380fbbbd87,,,,,,,,,,,,
"[""comma""]",0,[0.3268000000007305],83,0,83,0,1,60e83d685665b6867ad7c907,Kobieta,18,2021-07-13_21h28.35.166,rantool2,2021.1.4,Win32,60.20107158,60e83d685665b6867ad7c907,60d9d14f4a8a35a482e0d9bf,60ede9407a9f1d380fbbbd87,,,,,,,,,,,,
"[""comma""]",0,[0.277499999999975],84,0,84,0,1,60e83d685665b6867ad7c907,Kobieta,18,2021-07-13_21h28.35.166,rantool2,2021.1.4,Win32,60.20107158,60e83d685665b6867ad7c907,60d9d14f4a8a35a482e0d9bf,60ede9407a9f1d380fbbbd87,,,,,,,,,,,,
"[""period""]",0,[0.2335999999996261],85,0,85,0,1,60e83d685665b6867ad7c907,Kobieta,18,2021-07-13_21h28.35.166,rantool2,2021.1.4,Win32,60.20107158,60e83d685665b6867ad7c907,60d9d14f4a8a35a482e0d9bf,60ede9407a9f1d380fbbbd87,,,,,,,,,,,,
"[""period""]",0,[0.23379999999889378],86,0,86,0,1,60e83d685665b6867ad7c907,Kobieta,18,2021-07-13_21h28.35.166,rantool2,2021.1.4,Win32,60.20107158,60e83d685665b6867ad7c907,60d9d14f4a8a35a482e0d9bf,60ede9407a9f1d380fbbbd87,,,,,,,,,,,,
"[""period""]",0,[0.28379999999890515],87,0,87,0,1,60e83d685665b6867ad7c907,Kobieta,18,2021-07-13_21h28.35.166,rantool2,2021.1.4,Win32,60.20107158,60e83d685665b6867ad7c907,60d9d14f4a8a35a482e0d9bf,60ede9407a9f1d380fbbbd87,,,,,,,,,,,,
"[""period""]",0,[0.17689999999851125],88,0,88,0,1,60e83d685665b6867ad7c907,Kobieta,18,2021-07-13_21h28.35.166,rantool2,2021.1.4,Win32,60.20107158,60e83d685665b6867ad7c907,60d9d14f4a8a35a482e0d9bf,60ede9407a9f1d380fbbbd87,,,,,,,,,,,,
"[""period""]",0,[0.28180000000077143],89,0,89,0,1,60e83d685665b6867ad7c907,Kobieta,18,2021-07-13_21h28.35.166,rantool2,2021.1.4,Win32,60.20107158,60e83d685665b6867ad7c907,60d9d14f4a8a35a482e0d9bf,60ede9407a9f1d380fbbbd87,,,,,,,,,,,,
"[""period""]",0,[0.3511999999992099],90,0,90,0,1,60e83d685665b6867ad7c907,Kobieta,18,2021-07-13_21h28.35.166,rantool2,2021.1.4,Win32,60.20107158,60e83d685665b6867ad7c907,60d9d14f4a8a35a482e0d9bf,60ede9407a9f1d380fbbbd87,,,,,,,,,,,,
"[""comma""]",0,[0.584199999999214],91,0,91,0,1,60e83d685665b6867ad7c907,Kobieta,18,2021-07-13_21h28.35.166,rantool2,2021.1.4,Win32,60.20107158,60e83d685665b6867ad7c907,60d9d14f4a8a35a482e0d9bf,60ede9407a9f1d380fbbbd87,,,,,,,,,,,,
"[""comma""]",0,[0.3171999999992181],92,0,92,0,1,60e83d685665b6867ad7c907,Kobieta,18,2021-07-13_21h28.35.166,rantool2,2021.1.4,Win32,60.20107158,60e83d685665b6867ad7c907,60d9d14f4a8a35a482e0d9bf,60ede9407a9f1d380fbbbd87,,,,,,,,,,,,
"[""comma""]",0,[0.3003999999984899],93,0,93,0,1,60e83d685665b6867ad7c907,Kobieta,18,2021-07-13_21h28.35.166,rantool2,2021.1.4,Win32,60.20107158,60e83d685665b6867ad7c907,60d9d14f4a8a35a482e0d9bf,60ede9407a9f1d380fbbbd87,,,,,,,,,,,,
"[""comma""]",0,[0.43410000000147875],94,0,94,0,1,60e83d685665b6867ad7c907,Kobieta,18,2021-07-13_21h28.35.166,rantool2,2021.1.4,Win32,60.20107158,60e83d685665b6867ad7c907,60d9d14f4a8a35a482e0d9bf,60ede9407a9f1d380fbbbd87,,,,,,,,,,,,
"[""comma""]",0,[0.8240999999996461],95,0,95,0,1,60e83d685665b6867ad7c907,Kobieta,18,2021-07-13_21h28.35.166,rantool2,2021.1.4,Win32,60.20107158,60e83d685665b6867ad7c907,60d9d14f4a8a35a482e0d9bf,60ede9407a9f1d380fbbbd87,,,,,,,,,,,,
"[""period""]",0,[0.2343000000007578],96,0,96,0,1,60e83d685665b6867ad7c907,Kobieta,18,2021-07-13_21h28.35.166,rantool2,2021.1.4,Win32,60.20107158,60e83d685665b6867ad7c907,60d9d14f4a8a35a482e0d9bf,60ede9407a9f1d380fbbbd87,,,,,,,,,,,,
"[""comma""]",0,[0.21140000000036707],97,0,97,0,1,60e83d685665b6867ad7c907,Kobieta,18,2021-07-13_21h28.35.166,rantool2,2021.1.4,Win32,60.20107158,60e83d685665b6867ad7c907,60d9d14f4a8a35a482e0d9bf,60ede9407a9f1d380fbbbd87,,,,,,,,,,,,
"[""comma""]",0,[0.11720000000110531],98,0,98,0,1,60e83d685665b6867ad7c907,Kobieta,18,2021-07-13_21h28.35.166,rantool2,2021.1.4,Win32,60.20107158,60e83d685665b6867ad7c907,60d9d14f4a8a35a482e0d9bf,60ede9407a9f1d380fbbbd87,,,,,,,,,,,,
"[""comma""]",0,[0.10099999999999909],99,0,99,0,1,60e83d685665b6867ad7c907,Kobieta,18,2021-07-13_21h28.35.166,rantool2,2021.1.4,Win32,60.20107158,60e83d685665b6867ad7c907,60d9d14f4a8a35a482e0d9bf,60ede9407a9f1d380fbbbd87,,,,,,,,,,,,
"[""comma""]",0,[0.053999999999973625],100,0,100,0,1,60e83d685665b6867ad7c907,Kobieta,18,2021-07-13_21h28.35.166,rantool2,2021.1.4,Win32,60.20107158,60e83d685665b6867ad7c907,60d9d14f4a8a35a482e0d9bf,60ede9407a9f1d380fbbbd87,,,,,,,,,,,,
"[""comma""]",0,[0.21699999999998454],101,0,101,0,1,60e83d685665b6867ad7c907,Kobieta,18,2021-07-13_21h28.35.166,rantool2,2021.1.4,Win32,60.20107158,60e83d685665b6867ad7c907,60d9d14f4a8a35a482e0d9bf,60ede9407a9f1d380fbbbd87,,,,,,,,,,,,
"[""comma""]",0,[0.20819999999923766],102,0,102,0,1,60e83d685665b6867ad7c907,Kobieta,18,2021-07-13_21h28.35.166,rantool2,2021.1.4,Win32,60.20107158,60e83d685665b6867ad7c907,60d9d14f4a8a35a482e0d9bf,60ede9407a9f1d380fbbbd87,,,,,,,,,,,,
"[""comma""]",0,[0.21679999999889787],103,0,103,0,1,60e83d685665b6867ad7c907,Kobieta,18,2021-07-13_21h28.35.166,rantool2,2021.1.4,Win32,60.20107158,60e83d685665b6867ad7c907,60d9d14f4a8a35a482e0d9bf,60ede9407a9f1d380fbbbd87,,,,,,,,,,,,
"[""comma""]",0,[0.251100000001486],104,0,104,0,1,60e83d685665b6867ad7c907,Kobieta,18,2021-07-13_21h28.35.166,rantool2,2021.1.4,Win32,60.20107158,60e83d685665b6867ad7c907,60d9d14f4a8a35a482e0d9bf,60ede9407a9f1d380fbbbd87,,,,,,,,,,,,
"[""comma""]",0,[0.20640000000037162],105,0,105,0,1,60e83d685665b6867ad7c907,Kobieta,18,2021-07-13_21h28.35.166,rantool2,2021.1.4,Win32,60.20107158,60e83d685665b6867ad7c907,60d9d14f4a8a35a482e0d9bf,60ede9407a9f1d380fbbbd87,,,,,,,,,,,,
"[""comma""]",0,[0.23370000000107893],106,0,106,0,1,60e83d685665b6867ad7c907,Kobieta,18,2021-07-13_21h28.35.166,rantool2,2021.1.4,Win32,60.20107158,60e83d685665b6867ad7c907,60d9d14f4a8a35a482e0d9bf,60ede9407a9f1d380fbbbd87,,,,,,,,,,,,
"[""period""]",0,[0.2671999999992636],107,0,107,0,1,60e83d685665b6867ad7c907,Kobieta,18,2021-07-13_21h28.35.166,rantool2,2021.1.4,Win32,60.20107158,60e83d685665b6867ad7c907,60d9d14f4a8a35a482e0d9bf,60ede9407a9f1d380fbbbd87,,,,,,,,,,,,
"[""comma""]",0,[0.2836999999992713],108,0,108,0,1,60e83d685665b6867ad7c907,Kobieta,18,2021-07-13_21h28.35.166,rantool2,2021.1.4,Win32,60.20107158,60e83d685665b6867ad7c907,60d9d14f4a8a35a482e0d9bf,60ede9407a9f1d380fbbbd87,,,,,,,,,,,,
"[""comma""]",0,[0.4201000000015256],109,0,109,0,1,60e83d685665b6867ad7c907,Kobieta,18,2021-07-13_21h28.35.166,rantool2,2021.1.4,Win32,60.20107158,60e83d685665b6867ad7c907,60d9d14f4a8a35a482e0d9bf,60ede9407a9f1d380fbbbd87,,,,,,,,,,,,
"[""comma""]",0,[0.46540000000032933],110,0,110,0,1,60e83d685665b6867ad7c907,Kobieta,18,2021-07-13_21h28.35.166,rantool2,2021.1.4,Win32,60.20107158,60e83d685665b6867ad7c907,60d9d14f4a8a35a482e0d9bf,60ede9407a9f1d380fbbbd87,,,,,,,,,,,,
"[""period""]",0,[0.21740000000033888],111,0,111,0,1,60e83d685665b6867ad7c907,Kobieta,18,2021-07-13_21h28.35.166,rantool2,2021.1.4,Win32,60.20107158,60e83d685665b6867ad7c907,60d9d14f4a8a35a482e0d9bf,60ede9407a9f1d380fbbbd87,,,,,,,,,,,,
"[""period""]",0,[0.2560999999996625],112,0,112,0,1,60e83d685665b6867ad7c907,Kobieta,18,2021-07-13_21h28.35.166,rantool2,2021.1.4,Win32,60.20107158,60e83d685665b6867ad7c907,60d9d14f4a8a35a482e0d9bf,60ede9407a9f1d380fbbbd87,,,,,,,,,,,,
"[""period""]",0,[0.33429999999884785],113,0,113,0,1,60e83d685665b6867ad7c907,Kobieta,18,2021-07-13_21h28.35.166,rantool2,2021.1.4,Win32,60.20107158,60e83d685665b6867ad7c907,60d9d14f4a8a35a482e0d9bf,60ede9407a9f1d380fbbbd87,,,,,,,,,,,,
"[""period"",""period""]",0,"[0.09760000000147784,1.7282000000011521]",114,0,114,0,1,60e83d685665b6867ad7c907,Kobieta,18,2021-07-13_21h28.35.166,rantool2,2021.1.4,Win32,60.20107158,60e83d685665b6867ad7c907,60d9d14f4a8a35a482e0d9bf,60ede9407a9f1d380fbbbd87,,,,,,,,,,,,
"[""period""]",0,[0.5339999999999918],115,0,115,0,1,60e83d685665b6867ad7c907,Kobieta,18,2021-07-13_21h28.35.166,rantool2,2021.1.4,Win32,60.20107158,60e83d685665b6867ad7c907,60d9d14f4a8a35a482e0d9bf,60ede9407a9f1d380fbbbd87,,,,,,,,,,,,
"[""comma""]",0,[0.21780000000075006],116,0,116,0,1,60e83d685665b6867ad7c907,Kobieta,18,2021-07-13_21h28.35.166,rantool2,2021.1.4,Win32,60.20107158,60e83d685665b6867ad7c907,60d9d14f4a8a35a482e0d9bf,60ede9407a9f1d380fbbbd87,,,,,,,,,,,,
"[""comma""]",0,[0.26719999999920674],117,0,117,0,1,60e83d685665b6867ad7c907,Kobieta,18,2021-07-13_21h28.35.166,rantool2,2021.1.4,Win32,60.20107158,60e83d685665b6867ad7c907,60d9d14f4a8a35a482e0d9bf,60ede9407a9f1d380fbbbd87,,,,,,,,,,,,
"[""period""]",0,[1.1007000000010976],118,0,118,0,1,60e83d685665b6867ad7c907,Kobieta,18,2021-07-13_21h28.35.166,rantool2,2021.1.4,Win32,60.20107158,60e83d685665b6867ad7c907,60d9d14f4a8a35a482e0d9bf,60ede9407a9f1d380fbbbd87,,,,,,,,,,,,
"[""period""]",0,[0.3507000000010976],119,0,119,0,1,60e83d685665b6867ad7c907,Kobieta,18,2021-07-13_21h28.35.166,rantool2,2021.1.4,Win32,60.20107158,60e83d685665b6867ad7c907,60d9d14f4a8a35a482e0d9bf,60ede9407a9f1d380fbbbd87,,,,,,,,,,,,
,,,,,,,,60e83d685665b6867ad7c907,Kobieta,18,2021-07-13_21h28.35.166,rantool2,2021.1.4,Win32,60.20107158,60e83d685665b6867ad7c907,60d9d14f4a8a35a482e0d9bf,60ede9407a9f1d380fbbbd87,j,1.1769,0,0,0,37,1,ROORORO,ROORORR,20.42602454,21.57657071,series_1
,,,,,,,,60e83d685665b6867ad7c907,Kobieta,18,2021-07-13_21h28.35.166,rantool2,2021.1.4,Win32,60.20107158,60e83d685665b6867ad7c907,60d9d14f4a8a35a482e0d9bf,60ede9407a9f1d380fbbbd87,f,2.2552,0,1,1,25,1,ORROORO,ORROORR,21.79500819,22.61624387,series_1
,,,,,,,,60e83d685665b6867ad7c907,Kobieta,18,2021-07-13_21h28.35.166,rantool2,2021.1.4,Win32,60.20107158,60e83d685665b6867ad7c907,60d9d14f4a8a35a482e0d9bf,60ede9407a9f1d380fbbbd87,j,2.3384,0,2,2,2,1,OOOOROO,OOOOROR,20.43051175,21.02936224,series_1
,,,,,,,,60e83d685665b6867ad7c907,Kobieta,18,2021-07-13_21h28.35.166,rantool2,2021.1.4,Win32,60.20107158,60e83d685665b6867ad7c907,60d9d14f4a8a35a482e0d9bf,60ede9407a9f1d380fbbbd87,j,1.6001,0,3,3,42,1,ROROROO,ROROROR,20.39515459,19.8361834,series_0
,,,,,,,,60e83d685665b6867ad7c907,Kobieta,18,2021-07-13_21h28.35.166,rantool2,2021.1.4,Win32,60.20107158,60e83d685665b6867ad7c907,60d9d14f4a8a35a482e0d9bf,60ede9407a9f1d380fbbbd87,f,1.8285,0,4,4,21,1,ORORORO,ORORORR,20.39515459,22.06781359,series_1
,,,,,,,,60e83d685665b6867ad7c907,Kobieta,18,2021-07-13_21h28.35.166,rantool2,2021.1.4,Win32,60.20107158,60e83d685665b6867ad7c907,60d9d14f4a8a35a482e0d9bf,60ede9407a9f1d380fbbbd87,f,1.9377,0,5,5,40,1,ROROOOO,ROROOOR,20.87963819,21.37121559,series_1
,,,,,,,,60e83d685665b6867ad7c907,Kobieta,18,2021-07-13_21h28.35.166,rantool2,2021.1.4,Win32,60.20107158,60e83d685665b6867ad7c907,60d9d14f4a8a35a482e0d9bf,60ede9407a9f1d380fbbbd87,f,1.8735,0,6,6,53,1,RRORORO,RRORORR,20.71309134,21.90565814,series_1
,,,,,,,,60e83d685665b6867ad7c907,Kobieta,18,2021-07-13_21h28.35.166,rantool2,2021.1.4,Win32,60.20107158,60e83d685665b6867ad7c907,60d9d14f4a8a35a482e0d9bf,60ede9407a9f1d380fbbbd87,j,1.5672,0,7,7,61,1,RRRRORO,RRRRORR,21.81333602,21.17347734,series_0
,,,,,,,,60e83d685665b6867ad7c907,Kobieta,18,2021-07-13_21h28.35.166,rantool2,2021.1.4,Win32,60.20107158,60e83d685665b6867ad7c907,60d9d14f4a8a35a482e0d9bf,60ede9407a9f1d380fbbbd87,f,1.6029,0,8,8,46,1,RORRROO,RORRROR,22.00300695,21.24781509,series_0
,,,,,,,,60e83d685665b6867ad7c907,Kobieta,18,2021-07-13_21h28.35.166,rantool2,2021.1.4,Win32,60.20107158,60e83d685665b6867ad7c907,60d9d14f4a8a35a482e0d9bf,60ede9407a9f1d380fbbbd87,j,1.5569,0,9,9,34,1,ROOOROO,ROOOROR,21.03750787,21.24781509,series_1
,,,,,,,,60e83d685665b6867ad7c907,Kobieta,18,2021-07-13_21h28.35.166,rantool2,2021.1.4,Win32,60.20107158,60e83d685665b6867ad7c907,60d9d14f4a8a35a482e0d9bf,60ede9407a9f1d380fbbbd87,f,1.1732,0,10,10,33,1,ROOOORO,ROOOORR,20.83779602,22.03072203,series_1
,,,,,,,,60e83d685665b6867ad7c907,Kobieta,18,2021-07-13_21h28.35.166,rantool2,2021.1.4,Win32,60.20107158,60e83d685665b6867ad7c907,60d9d14f4a8a35a482e0d9bf,60ede9407a9f1d380fbbbd87,f,1.4167,0,11,11,6,1,OOORROO,OOORROR,21.12383932,21.38562617,series_1
,,,,,,,,60e83d685665b6867ad7c907,Kobieta,18,2021-07-13_21h28.35.166,rantool2,2021.1.4,Win32,60.20107158,60e83d685665b6867ad7c907,60d9d14f4a8a35a482e0d9bf,60ede9407a9f1d380fbbbd87,j,1.128,0,12,12,10,1,OOROROO,OOROROR,21.31236711,21.07490964,series_0
,,,,,,,,60e83d685665b6867ad7c907,Kobieta,18,2021-07-13_21h28.35.166,rantool2,2021.1.4,Win32,60.20107158,60e83d685665b6867ad7c907,60d9d14f4a8a35a482e0d9bf,60ede9407a9f1d380fbbbd87,j,1.7836,0,13,13,55,1,RRORRRO,RRORRRR,21.56657303,21.21223021,series_0
,,,,,,,,60e83d685665b6867ad7c907,Kobieta,18,2021-07-13_21h28.35.166,rantool2,2021.1.4,Win32,60.20107158,60e83d685665b6867ad7c907,60d9d14f4a8a35a482e0d9bf,60ede9407a9f1d380fbbbd87,j,1.2772,0,14,14,4,1,OOOROOO,OOOROOR,19.91402015,21.21223021,series_1
,,,,,,,,60e83d685665b6867ad7c907,Kobieta,18,2021-07-13_21h28.35.166,rantool2,2021.1.4,Win32,60.20107158,60e83d685665b6867ad7c907,60d9d14f4a8a35a482e0d9bf,60ede9407a9f1d380fbbbd87,f,1.2193,0,15,15,45,1,RORRORO,RORRORR,20.78182524,21.22513037,series_1
,,,,,,,,60e83d685665b6867ad7c907,Kobieta,18,2021-07-13_21h28.35.166,rantool2,2021.1.4,Win32,60.20107158,60e83d685665b6867ad7c907,60d9d14f4a8a35a482e0d9bf,60ede9407a9f1d380fbbbd87,j,1.2668,0,16,16,35,1,ROOORRO,ROOORRR,21.76276513,22.16977179,series_1
,,,,,,,,60e83d685665b6867ad7c907,Kobieta,18,2021-07-13_21h28.35.166,rantool2,2021.1.4,Win32,60.20107158,60e83d685665b6867ad7c907,60d9d14f4a8a35a482e0d9bf,60ede9407a9f1d380fbbbd87,f,1.2725,0,17,17,63,1,RRRRRRO,RRRRRRR,21.35278725,19.62521613,series_0
,,,,,,,,60e83d685665b6867ad7c907,Kobieta,18,2021-07-13_21h28.35.166,rantool2,2021.1.4,Win32,60.20107158,60e83d685665b6867ad7c907,60d9d14f4a8a35a482e0d9bf,60ede9407a9f1d380fbbbd87,j,1.7237,0,18,18,22,1,ORORROO,ORORROR,22.02732763,21.57657071,series_0
,,,,,,,,60e83d685665b6867ad7c907,Kobieta,18,2021-07-13_21h28.35.166,rantool2,2021.1.4,Win32,60.20107158,60e83d685665b6867ad7c907,60d9d14f4a8a35a482e0d9bf,60ede9407a9f1d380fbbbd87,f,1.6503,0,19,19,39,1,ROORRRO,ROORRRR,21.82425538,21.38562617,series_0
,,,,,,,,60e83d685665b6867ad7c907,Kobieta,18,2021-07-13_21h28.35.166,rantool2,2021.1.4,Win32,60.20107158,60e83d685665b6867ad7c907,60d9d14f4a8a35a482e0d9bf,60ede9407a9f1d380fbbbd87,j,1.4501,0,20,20,48,1,RROOOOO,RROOOOR,20.90986523,22.15934078,series_1
,,,,,,,,60e83d685665b6867ad7c907,Kobieta,18,2021-07-13_21h28.35.166,rantool2,2021.1.4,Win32,60.20107158,60e83d685665b6867ad7c907,60d9d14f4a8a35a482e0d9bf,60ede9407a9f1d380fbbbd87,j,1.294,0,21,21,62,1,RRRRROO,RRRRROR,22.16413392,21.27974287,series_0
,,,,,,,,60e83d685665b6867ad7c907,Kobieta,18,2021-07-13_21h28.35.166,rantool2,2021.1.4,Win32,60.20107158,60e83d685665b6867ad7c907,60d9d14f4a8a35a482e0d9bf,60ede9407a9f1d380fbbbd87,f,1.4768,0,22,22,24,1,ORROOOO,ORROOOR,21.12383932,22.07102821,series_1
,,,,,,,,60e83d685665b6867ad7c907,Kobieta,18,2021-07-13_21h28.35.166,rantool2,2021.1.4,Win32,60.20107158,60e83d685665b6867ad7c907,60d9d14f4a8a35a482e0d9bf,60ede9407a9f1d380fbbbd87,f,1.4883,0,23,23,28,1,ORRROOO,ORRROOR,22.24142883,22.53364006,series_1
,,,,,,,,60e83d685665b6867ad7c907,Kobieta,18,2021-07-13_21h28.35.166,rantool2,2021.1.4,Win32,60.20107158,60e83d685665b6867ad7c907,60d9d14f4a8a35a482e0d9bf,60ede9407a9f1d380fbbbd87,j,1.2502,0,24,24,44,1,RORROOO,RORROOR,21.66733484,22.02566557,series_1
,,,,,,,,60e83d685665b6867ad7c907,Kobieta,18,2021-07-13_21h28.35.166,rantool2,2021.1.4,Win32,60.20107158,60e83d685665b6867ad7c907,60d9d14f4a8a35a482e0d9bf,60ede9407a9f1d380fbbbd87,f,1.4397,0,25,25,19,1,OROORRO,OROORRR,21.73568164,22.11181017,series_1
,,,,,,,,60e83d685665b6867ad7c907,Kobieta,18,2021-07-13_21h28.35.166,rantool2,2021.1.4,Win32,60.20107158,60e83d685665b6867ad7c907,60d9d14f4a8a35a482e0d9bf,60ede9407a9f1d380fbbbd87,j,1.2766,0,26,26,16,1,OROOOOO,OROOOOR,20.43051175,21.17347734,series_1
,,,,,,,,60e83d685665b6867ad7c907,Kobieta,18,2021-07-13_21h28.35.166,rantool2,2021.1.4,Win32,60.20107158,60e83d685665b6867ad7c907,60d9d14f4a8a35a482e0d9bf,60ede9407a9f1d380fbbbd87,f,1.1509,0,27,27,17,1,OROOORO,OROOORR,21.03750787,22.12173012,series_1
,,,,,,,,60e83d685665b6867ad7c907,Kobieta,18,2021-07-13_21h28.35.166,rantool2,2021.1.4,Win32,60.20107158,60e83d685665b6867ad7c907,60d9d14f4a8a35a482e0d9bf,60ede9407a9f1d380fbbbd87,j,1.0831,0,28,28,0,1,OOOOOOO,OOOOOOR,18.52739004,19.62521613,series_1
,,,,,,,,60e83d685665b6867ad7c907,Kobieta,18,2021-07-13_21h28.35.166,rantool2,2021.1.4,Win32,60.20107158,60e83d685665b6867ad7c907,60d9d14f4a8a35a482e0d9bf,60ede9407a9f1d380fbbbd87,j,1.4218,0,29,29,9,1,OOROORO,OOROORR,21.07991943,22.2428857,series_1
,,,,,,,,60e83d685665b6867ad7c907,Kobieta,18,2021-07-13_21h28.35.166,rantool2,2021.1.4,Win32,60.20107158,60e83d685665b6867ad7c907,60d9d14f4a8a35a482e0d9bf,60ede9407a9f1d380fbbbd87,j,1.3668,0,30,30,56,1,RRROOOO,RRROOOR,21.6194508,22.31681875,series_1
,,,,,,,,60e83d685665b6867ad7c907,Kobieta,18,2021-07-13_21h28.35.166,rantool2,2021.1.4,Win32,60.20107158,60e83d685665b6867ad7c907,60d9d14f4a8a35a482e0d9bf,60ede9407a9f1d380fbbbd87,j,1.4283,0,31,31,7,1,OOORRRO,OOORRRR,21.6194508,21.899017,series_1
,,,,,,,,60e83d685665b6867ad7c907,Kobieta,18,2021-07-13_21h28.35.166,rantool2,2021.1.4,Win32,60.20107158,60e83d685665b6867ad7c907,60d9d14f4a8a35a482e0d9bf,60ede9407a9f1d380fbbbd87,j,1.2835,0,32,32,51,1,RROORRO,RROORRR,21.89852628,22.02786418,series_1
,,,,,,,,60e83d685665b6867ad7c907,Kobieta,18,2021-07-13_21h28.35.166,rantool2,2021.1.4,Win32,60.20107158,60e83d685665b6867ad7c907,60d9d14f4a8a35a482e0d9bf,60ede9407a9f1d380fbbbd87,j,1.4571,0,33,33,3,1,OOOORRO,OOOORRR,20.90986523,21.74922619,series_1
,,,,,,,,60e83d685665b6867ad7c907,Kobieta,18,2021-07-13_21h28.35.166,rantool2,2021.1.4,Win32,60.20107158,60e83d685665b6867ad7c907,60d9d14f4a8a35a482e0d9bf,60ede9407a9f1d380fbbbd87,f,1.4173,0,34,34,54,1,RRORROO,RRORROR,21.55250791,20.9984461,series_0
,,,,,,,,60e83d685665b6867ad7c907,Kobieta,18,2021-07-13_21h28.35.166,rantool2,2021.1.4,Win32,60.20107158,60e83d685665b6867ad7c907,60d9d14f4a8a35a482e0d9bf,60ede9407a9f1d380fbbbd87,f,0.9359,0,35,35,32,1,ROOOOOO,ROOOOOR,19.92253567,21.27974287,series_1
,,,,,,,,60e83d685665b6867ad7c907,Kobieta,18,2021-07-13_21h28.35.166,rantool2,2021.1.4,Win32,60.20107158,60e83d685665b6867ad7c907,60d9d14f4a8a35a482e0d9bf,60ede9407a9f1d380fbbbd87,j,1.7048,0,36,36,14,1,OORRROO,OORRROR,22.24142883,22.16977179,series_0
,,,,,,,,60e83d685665b6867ad7c907,Kobieta,18,2021-07-13_21h28.35.166,rantool2,2021.1.4,Win32,60.20107158,60e83d685665b6867ad7c907,60d9d14f4a8a35a482e0d9bf,60ede9407a9f1d380fbbbd87,f,1.9655,0,37,37,27,1,ORRORRO,ORRORRR,21.55250791,22.2428857,series_1
,,,,,,,,60e83d685665b6867ad7c907,Kobieta,18,2021-07-13_21h28.35.166,rantool2,2021.1.4,Win32,60.20107158,60e83d685665b6867ad7c907,60d9d14f4a8a35a482e0d9bf,60ede9407a9f1d380fbbbd87,j,1.3165,0,38,38,12,1,OORROOO,OORROOR,21.30250474,22.02786418,series_1
,,,,,,,,60e83d685665b6867ad7c907,Kobieta,18,2021-07-13_21h28.35.166,rantool2,2021.1.4,Win32,60.20107158,60e83d685665b6867ad7c907,60d9d14f4a8a35a482e0d9bf,60ede9407a9f1d380fbbbd87,j,1.321,0,39,39,57,1,RRROORO,RRROORR,21.82425538,22.07102821,series_1
,,,,,,,,60e83d685665b6867ad7c907,Kobieta,18,2021-07-13_21h28.35.166,rantool2,2021.1.4,Win32,60.20107158,60e83d685665b6867ad7c907,60d9d14f4a8a35a482e0d9bf,60ede9407a9f1d380fbbbd87,j,1.4071,0,40,40,49,1,RROOORO,RROOORR,21.76276513,22.53364006,series_1
,,,,,,,,60e83d685665b6867ad7c907,Kobieta,18,2021-07-13_21h28.35.166,rantool2,2021.1.4,Win32,60.20107158,60e83d685665b6867ad7c907,60d9d14f4a8a35a482e0d9bf,60ede9407a9f1d380fbbbd87,f,1.6439,0,41,41,41,1,ROROORO,ROROORR,20.42602454,21.71443381,series_1
,,,,,,,,60e83d685665b6867ad7c907,Kobieta,18,2021-07-13_21h28.35.166,rantool2,2021.1.4,Win32,60.20107158,60e83d685665b6867ad7c907,60d9d14f4a8a35a482e0d9bf,60ede9407a9f1d380fbbbd87,j,1.1262,0,42,42,58,1,RRROROO,RRROROR,22.1285618,21.37121559,series_0
,,,,,,,,60e83d685665b6867ad7c907,Kobieta,18,2021-07-13_21h28.35.166,rantool2,2021.1.4,Win32,60.20107158,60e83d685665b6867ad7c907,60d9d14f4a8a35a482e0d9bf,60ede9407a9f1d380fbbbd87,f,1.1293,0,43,43,8,1,OOROOOO,OOROOOR,19.91402015,20.89823192,series_1
,,,,,,,,60e83d685665b6867ad7c907,Kobieta,18,2021-07-13_21h28.35.166,rantool2,2021.1.4,Win32,60.20107158,60e83d685665b6867ad7c907,60d9d14f4a8a35a482e0d9bf,60ede9407a9f1d380fbbbd87,j,0.8665,0,44,44,59,1,RRRORRO,RRRORRR,21.56657303,20.89823192,series_0
,,,,,,,,60e83d685665b6867ad7c907,Kobieta,18,2021-07-13_21h28.35.166,rantool2,2021.1.4,Win32,60.20107158,60e83d685665b6867ad7c907,60d9d14f4a8a35a482e0d9bf,60ede9407a9f1d380fbbbd87,j,1.2118,0,45,45,30,1,ORRRROO,ORRRROR,22.46748491,22.03072203,series_0
,,,,,,,,60e83d685665b6867ad7c907,Kobieta,18,2021-07-13_21h28.35.166,rantool2,2021.1.4,Win32,60.20107158,60e83d685665b6867ad7c907,60d9d14f4a8a35a482e0d9bf,60ede9407a9f1d380fbbbd87,f,1.2076,0,46,46,50,1,RROOROO,RROOROR,21.73568164,22.02566557,series_1
,,,,,,,,60e83d685665b6867ad7c907,Kobieta,18,2021-07-13_21h28.35.166,rantool2,2021.1.4,Win32,60.20107158,60e83d685665b6867ad7c907,60d9d14f4a8a35a482e0d9bf,60ede9407a9f1d380fbbbd87,j,0.9336,0,47,47,5,1,OOORORO,OOORORR,20.87963819,21.9921709,series_1
,,,,,,,,60e83d685665b6867ad7c907,Kobieta,18,2021-07-13_21h28.35.166,rantool2,2021.1.4,Win32,60.20107158,60e83d685665b6867ad7c907,60d9d14f4a8a35a482e0d9bf,60ede9407a9f1d380fbbbd87,j,0.9686,0,48,48,23,1,ORORRRO,ORORRRR,22.1285618,21.9921709,series_0
,,,,,,,,60e83d685665b6867ad7c907,Kobieta,18,2021-07-13_21h28.35.166,rantool2,2021.1.4,Win32,60.20107158,60e83d685665b6867ad7c907,60d9d14f4a8a35a482e0d9bf,60ede9407a9f1d380fbbbd87,f,0.9727,0,49,49,11,1,OORORRO,OORORRR,22.18365867,22.6797523,series_1
,,,,,,,,60e83d685665b6867ad7c907,Kobieta,18,2021-07-13_21h28.35.166,rantool2,2021.1.4,Win32,60.20107158,60e83d685665b6867ad7c907,60d9d14f4a8a35a482e0d9bf,60ede9407a9f1d380fbbbd87,j,1.0438,0,50,50,60,1,RRRROOO,RRRROOR,22.10108823,22.15934078,series_1
,,,,,,,,60e83d685665b6867ad7c907,Kobieta,18,2021-07-13_21h28.35.166,rantool2,2021.1.4,Win32,60.20107158,60e83d685665b6867ad7c907,60d9d14f4a8a35a482e0d9bf,60ede9407a9f1d380fbbbd87,f,1.2892,0,51,51,47,1,RORRRRO,RORRRRR,21.81333602,21.02936224,series_0
,,,,,,,,60e83d685665b6867ad7c907,Kobieta,18,2021-07-13_21h28.35.166,rantool2,2021.1.4,Win32,60.20107158,60e83d685665b6867ad7c907,60d9d14f4a8a35a482e0d9bf,60ede9407a9f1d380fbbbd87,j,1.152,0,52,52,26,1,ORROROO,ORROROR,22.02732763,21.71443381,series_0
,,,,,,,,60e83d685665b6867ad7c907,Kobieta,18,2021-07-13_21h28.35.166,rantool2,2021.1.4,Win32,60.20107158,60e83d685665b6867ad7c907,60d9d14f4a8a35a482e0d9bf,60ede9407a9f1d380fbbbd87,j,1.3089,0,53,53,20,1,OROROOO,OROROOR,21.31236711,21.90565814,series_1
,,,,,,,,60e83d685665b6867ad7c907,Kobieta,18,2021-07-13_21h28.35.166,rantool2,2021.1.4,Win32,60.20107158,60e83d685665b6867ad7c907,60d9d14f4a8a35a482e0d9bf,60ede9407a9f1d380fbbbd87,f,1.3094,0,54,54,13,1,OORRORO,OORRORR,21.66733484,22.11181017,series_1
,,,,,,,,60e83d685665b6867ad7c907,Kobieta,18,2021-07-13_21h28.35.166,rantool2,2021.1.4,Win32,60.20107158,60e83d685665b6867ad7c907,60d9d14f4a8a35a482e0d9bf,60ede9407a9f1d380fbbbd87,j,1.3543,0,55,55,18,1,OROOROO,OROOROR,20.84860893,21.22513037,series_1
,,,,,,,,60e83d685665b6867ad7c907,Kobieta,18,2021-07-13_21h28.35.166,rantool2,2021.1.4,Win32,60.20107158,60e83d685665b6867ad7c907,60d9d14f4a8a35a482e0d9bf,60ede9407a9f1d380fbbbd87,j,0.8797,0,56,56,15,1,OORRRRO,OORRRRR,22.10108823,21.74922619,series_0
,,,,,,,,60e83d685665b6867ad7c907,Kobieta,18,2021-07-13_21h28.35.166,rantool2,2021.1.4,Win32,60.20107158,60e83d685665b6867ad7c907,60d9d14f4a8a35a482e0d9bf,60ede9407a9f1d380fbbbd87,f,0.8251,0,57,57,29,1,ORRRORO,ORRRORR,22.00300695,22.12173012,series_1
,,,,,,,,60e83d685665b6867ad7c907,Kobieta,18,2021-07-13_21h28.35.166,rantool2,2021.1.4,Win32,60.20107158,60e83d685665b6867ad7c907,60d9d14f4a8a35a482e0d9bf,60ede9407a9f1d380fbbbd87,j,0.8923,0,58,58,36,1,ROOROOO,ROOROOR,21.07991943,20.9984461,series_0
,,,,,,,,60e83d685665b6867ad7c907,Kobieta,18,2021-07-13_21h28.35.166,rantool2,2021.1.4,Win32,60.20107158,60e83d685665b6867ad7c907,60d9d14f4a8a35a482e0d9bf,60ede9407a9f1d380fbbbd87,f,1.1655,0,59,59,31,1,ORRRRRO,ORRRRRR,22.16413392,20.74050628,series_0
,,,,,,,,60e83d685665b6867ad7c907,Kobieta,18,2021-07-13_21h28.35.166,rantool2,2021.1.4,Win32,60.20107158,60e83d685665b6867ad7c907,60d9d14f4a8a35a482e0d9bf,60ede9407a9f1d380fbbbd87,j,1.0077,0,60,60,43,1,RORORRO,RORORRR,20.71309134,21.07490964,series_1
,,,,,,,,60e83d685665b6867ad7c907,Kobieta,18,2021-07-13_21h28.35.166,rantool2,2021.1.4,Win32,60.20107158,60e83d685665b6867ad7c907,60d9d14f4a8a35a482e0d9bf,60ede9407a9f1d380fbbbd87,f,1.0617,0,61,61,52,1,RROROOO,RROROOR,22.18365867,22.11097995,series_0
,,,,,,,,60e83d685665b6867ad7c907,Kobieta,18,2021-07-13_21h28.35.166,rantool2,2021.1.4,Win32,60.20107158,60e83d685665b6867ad7c907,60d9d14f4a8a35a482e0d9bf,60ede9407a9f1d380fbbbd87,j,1.185,0,62,62,38,1,ROORROO,ROORROR,21.79500819,21.36812781,series_0
,,,,,,,,60e83d685665b6867ad7c907,Kobieta,18,2021-07-13_21h28.35.166,rantool2,2021.1.4,Win32,60.20107158,60e83d685665b6867ad7c907,60d9d14f4a8a35a482e0d9bf,60ede9407a9f1d380fbbbd87,f,1.1685,0,63,63,1,1,OOOOORO,OOOOORR,19.92253567,20.74050628,series_1
